trial_index,category,final_img,correct,tot_correct,rt_last,participant
206,locks,./Images/locks/e1_s2.jpg,0,1,43823,21
206,locks,./Images/locks/e2_s2.jpg,1,1,43823,21
207,lunchbox,./Images/lunchbox/e2_s2.jpg,1,1,6870,21
207,lunchbox,./Images/lunchbox/e1_s1.jpg,0,1,6870,21
208,mustard,./Images/mustard/e1_s1.jpg,0,0,4701,21
208,mustard,./Images/mustard/e2_s1.jpg,0,0,4701,21
209,cooking_pot,./Images/cooking_pot/e1_s2.jpg,1,1,5876,21
209,cooking_pot,./Images/cooking_pot/e2_s1.jpg,0,1,5876,21
210,coffeemug,./Images/coffeemug/e1_s2.jpg,1,1,3093,21
210,coffeemug,./Images/coffeemug/e2_s2.jpg,0,1,3093,21
211,paper_cup,./Images/paper_cup/e1_s2.jpg,1,2,5700,21
211,paper_cup,./Images/paper_cup/e2_s2.jpg,1,2,5700,21
212,soap,./Images/soap/e1_s1.jpg,1,2,5550,21
212,soap,./Images/soap/e2_s1.jpg,1,2,5550,21
213,chip,./Images/chip/e1_s1.jpg,1,1,6099,21
213,chip,./Images/chip/e2_s2.jpg,0,1,6099,21
214,poker_chips,./Images/poker_chips/e1_s2.jpg,1,1,4443,21
214,poker_chips,./Images/poker_chips/e2_s1.jpg,0,1,4443,21
215,lemon,./Images/lemon/e1_s1.jpg,1,1,11749,21
215,lemon,./Images/lemon/e2_s1.jpg,0,1,11749,21
216,drink,./Images/drink/e2_s1.jpg,1,2,4742,21
216,drink,./Images/drink/e1_s1.jpg,1,2,4742,21
217,tape_dispenser,./Images/tape_dispenser/e2_s2.jpg,0,1,3249,21
217,tape_dispenser,./Images/tape_dispenser/e1_s2.jpg,1,1,3249,21
218,microwave,./Images/microwave/e2_s2.jpg,0,1,3379,21
218,microwave,./Images/microwave/e1_s2.jpg,1,1,3379,21
219,fridge,./Images/fridge/e2_s2.jpg,0,0,2903,21
219,fridge,./Images/fridge/e1_s2.jpg,0,0,2903,21
220,dryer,./Images/dryer/e2_s2.jpg,1,2,2918,21
220,dryer,./Images/dryer/e1_s2.jpg,1,2,2918,21
221,yarn,./Images/yarn/e2_s2.jpg,0,1,3198,21
221,yarn,./Images/yarn/e1_s1.jpg,1,1,3198,21
222,usb_key,./Images/usb_key/e2_s1.jpg,0,0,2943,21
222,usb_key,./Images/usb_key/e1_s1.jpg,0,0,2943,21
223,umbrella,./Images/umbrella/e1_s2.jpg,1,1,2616,21
223,umbrella,./Images/umbrella/e2_s2.jpg,0,1,2616,21
224,oj,./Images/oj/e2_s1.jpg,1,2,2119,21
224,oj,./Images/oj/e1_s2.jpg,1,2,2119,21
225,clocks,./Images/clocks/e1_s1.jpg,1,2,1928,21
225,clocks,./Images/clocks/e2_s2.jpg,1,2,1928,21
226,coins,./Images/coins/e1_s2.jpg,1,2,1956,21
226,coins,./Images/coins/e2_s1.jpg,1,2,1956,21
227,sugar_bowl,./Images/sugar_bowl/e2_s1.jpg,1,2,5144,21
227,sugar_bowl,./Images/sugar_bowl/e1_s2.jpg,1,2,5144,21
228,corkscrew,./Images/corkscrew/e2_s2.jpg,0,1,2918,21
228,corkscrew,./Images/corkscrew/e1_s1.jpg,1,1,2918,21
229,tictac,./Images/tictac/e2_s1.jpg,1,1,2616,21
229,tictac,./Images/tictac/e1_s2.jpg,0,1,2616,21
230,headphone_small,./Images/headphone_small/e2_s2.jpg,0,0,2713,21
230,headphone_small,./Images/headphone_small/e1_s2.jpg,0,0,2713,21
231,cardbox,./Images/cardbox/e2_s1.jpg,1,1,2283,21
231,cardbox,./Images/cardbox/e1_s1.jpg,0,1,2283,21
232,donut,./Images/donut/e1_s2.jpg,1,1,2526,21
232,donut,./Images/donut/e2_s2.jpg,0,1,2526,21
233,phone_antique,./Images/phone_antique/e2_s1.jpg,0,0,2131,21
233,phone_antique,./Images/phone_antique/e1_s1.jpg,0,0,2131,21
234,gummy,./Images/gummy/e1_s1.jpg,1,2,2935,21
234,gummy,./Images/gummy/e2_s2.jpg,1,2,2935,21
235,wallet,./Images/wallet/e1_s2.jpg,1,2,2889,21
235,wallet,./Images/wallet/e2_s2.jpg,1,2,2889,21
236,lotion,./Images/lotion/e2_s2.jpg,1,2,9440,21
236,lotion,./Images/lotion/e1_s2.jpg,1,2,9440,21
237,file_box,./Images/file_box/e2_s2.jpg,0,0,2922,21
237,file_box,./Images/file_box/e1_s2.jpg,0,0,2922,21
238,tea_pot,./Images/tea_pot/e2_s2.jpg,1,2,2733,21
238,tea_pot,./Images/tea_pot/e1_s2.jpg,1,2,2733,21
239,gift_box,./Images/gift_box/e1_s2.jpg,1,2,2814,21
239,gift_box,./Images/gift_box/e2_s2.jpg,1,2,2814,21
240,flask,./Images/flask/e2_s2.jpg,1,2,4253,21
240,flask,./Images/flask/e1_s2.jpg,1,2,4253,21
241,lottery_ticket,./Images/lottery_ticket/e2_s2.jpg,0,1,2397,21
241,lottery_ticket,./Images/lottery_ticket/e1_s2.jpg,1,1,2397,21
242,dresser,./Images/dresser/e1_s1.jpg,1,2,2259,21
242,dresser,./Images/dresser/e2_s2.jpg,1,2,2259,21
243,shoe,./Images/shoe/e1_s2.jpg,1,2,2226,21
243,shoe,./Images/shoe/e2_s1.jpg,1,2,2226,21
244,hand_puppet,./Images/hand_puppet/e2_s2.jpg,1,1,2150,21
244,hand_puppet,./Images/hand_puppet/e1_s2.jpg,0,1,2150,21
245,chapstick,./Images/chapstick/e2_s1.jpg,1,2,2266,21
245,chapstick,./Images/chapstick/e1_s1.jpg,1,2,2266,21
246,glass_orange,./Images/glass_orange/e1_s2.jpg,0,1,2205,21
246,glass_orange,./Images/glass_orange/e2_s2.jpg,1,1,2205,21
247,scanner,./Images/scanner/e2_s1.jpg,1,1,2018,21
247,scanner,./Images/scanner/e1_s2.jpg,0,1,2018,21
248,sharpie_pens,./Images/sharpie_pens/e2_s1.jpg,0,1,1911,21
248,sharpie_pens,./Images/sharpie_pens/e1_s1.jpg,1,1,1911,21
249,chips,./Images/chips/e2_s1.jpg,0,1,2917,21
249,chips,./Images/chips/e1_s1.jpg,1,1,2917,21
250,bills,./Images/bills/e2_s1.jpg,1,2,3299,21
250,bills,./Images/bills/e1_s1.jpg,1,2,3299,21
251,hourglass,./Images/hourglass/e2_s1.jpg,0,1,2385,21
251,hourglass,./Images/hourglass/e1_s1.jpg,1,1,2385,21
252,peanut_butter,./Images/peanut_butter/e2_s1.jpg,1,2,1890,21
252,peanut_butter,./Images/peanut_butter/e1_s2.jpg,1,2,1890,21
253,sugar_paper,./Images/sugar_paper/e2_s2.jpg,0,0,1652,21
253,sugar_paper,./Images/sugar_paper/e1_s2.jpg,0,0,1652,21
254,baseball_glove,./Images/baseball_glove/e1_s1.jpg,0,1,1890,21
254,baseball_glove,./Images/baseball_glove/e2_s2.jpg,1,1,1890,21
255,breadbox,./Images/breadbox/e1_s1.jpg,0,1,2379,21
255,breadbox,./Images/breadbox/e2_s1.jpg,1,1,2379,21
256,pen,./Images/pen/e2_s1.jpg,1,1,2465,21
256,pen,./Images/pen/e1_s1.jpg,0,1,2465,21
257,pail,./Images/pail/e2_s2.jpg,1,1,1903,21
257,pail,./Images/pail/e1_s1.jpg,0,1,1903,21
258,book,./Images/book/e1_s1.jpg,1,1,38891,21
258,book,./Images/book/e2_s1.jpg,0,1,38891,21
259,book_object,./Images/book_object/e2_s2.jpg,0,1,2185,21
259,book_object,./Images/book_object/e1_s1.jpg,1,1,2185,21
260,tool_box,./Images/tool_box/e2_s1.jpg,1,2,1537,21
260,tool_box,./Images/tool_box/e1_s2.jpg,1,2,1537,21
261,chair_recliner,./Images/chair_recliner/e1_s2.jpg,0,0,1561,21
261,chair_recliner,./Images/chair_recliner/e2_s1.jpg,0,0,1561,21
262,scissors,./Images/scissors/e2_s2.jpg,1,2,3093,21
262,scissors,./Images/scissors/e1_s1.jpg,1,2,3093,21
263,theater_seats,./Images/theater_seats/e1_s1.jpg,0,0,1850,21
263,theater_seats,./Images/theater_seats/e2_s2.jpg,0,0,1850,21
264,canopener,./Images/canopener/e2_s1.jpg,1,1,2013,21
264,canopener,./Images/canopener/e1_s1.jpg,0,1,2013,21
265,apple,./Images/apple/e1_s2.jpg,1,2,1765,21
265,apple,./Images/apple/e2_s1.jpg,1,2,1765,21
266,accordion,./Images/accordion/e2_s2.jpg,0,1,2885,21
266,accordion,./Images/accordion/e1_s2.jpg,1,1,2885,21
267,cell,./Images/cell/e1_s2.jpg,1,1,4125,21
267,cell,./Images/cell/e2_s2.jpg,0,1,4125,21
268,laptop,./Images/laptop/e2_s2.jpg,1,2,1801,21
268,laptop,./Images/laptop/e1_s1.jpg,1,2,1801,21
269,file_folder,./Images/file_folder/e2_s2.jpg,1,2,1895,21
269,file_folder,./Images/file_folder/e1_s1.jpg,1,2,1895,21
270,typewriter,./Images/typewriter/e1_s1.jpg,0,1,1679,21
270,typewriter,./Images/typewriter/e2_s1.jpg,1,1,1679,21
271,chocolate_bar,./Images/chocolate_bar/e1_s1.jpg,1,2,1719,21
271,chocolate_bar,./Images/chocolate_bar/e2_s1.jpg,1,2,1719,21
272,menorah,./Images/menorah/e1_s2.jpg,0,0,18841,21
272,menorah,./Images/menorah/e2_s2.jpg,0,0,18841,21
273,cabinet,./Images/cabinet/e2_s2.jpg,1,1,2145,21
273,cabinet,./Images/cabinet/e1_s1.jpg,0,1,2145,21
274,toy_truck,./Images/toy_truck/e1_s1.jpg,0,1,3495,21
274,toy_truck,./Images/toy_truck/e2_s2.jpg,1,1,3495,21
275,backpack,./Images/backpack/e2_s1.jpg,1,1,1639,21
275,backpack,./Images/backpack/e1_s1.jpg,0,1,1639,21
276,cereal,./Images/cereal/e2_s2.jpg,0,0,1808,21
276,cereal,./Images/cereal/e1_s2.jpg,0,0,1808,21
277,reeses,./Images/reeses/e2_s2.jpg,1,1,1637,21
277,reeses,./Images/reeses/e1_s2.jpg,0,1,1637,21
278,phone,./Images/phone/e1_s1.jpg,1,2,1609,21
278,phone,./Images/phone/e2_s2.jpg,1,2,1609,21
279,watch,./Images/watch/e1_s2.jpg,0,1,1502,21
279,watch,./Images/watch/e2_s2.jpg,1,1,1502,21
280,aabacus,./Images/aabacus/e2_s1.jpg,1,2,1839,21
280,aabacus,./Images/aabacus/e1_s1.jpg,1,2,1839,21
281,bottle_perfume,./Images/bottle_perfume/e2_s2.jpg,1,1,1694,21
281,bottle_perfume,./Images/bottle_perfume/e1_s1.jpg,0,1,1694,21
282,cookie,./Images/cookie/e2_s1.jpg,1,1,1939,21
282,cookie,./Images/cookie/e1_s2.jpg,0,1,1939,21
283,tissues,./Images/tissues/e1_s1.jpg,1,2,1573,21
283,tissues,./Images/tissues/e2_s2.jpg,1,2,1573,21
284,car,./Images/car/e1_s2.jpg,0,0,1732,21
284,car,./Images/car/e2_s2.jpg,0,0,1732,21
285,toilet,./Images/toilet/e2_s1.jpg,1,1,1627,21
285,toilet,./Images/toilet/e1_s2.jpg,0,1,1627,21
286,mailbox,./Images/mailbox/e1_s2.jpg,0,0,2276,21
286,mailbox,./Images/mailbox/e2_s2.jpg,0,0,2276,21
287,small_box,./Images/small_box/e2_s1.jpg,1,2,1838,21
287,small_box,./Images/small_box/e1_s1.jpg,1,2,1838,21
288,leather_bag,./Images/leather_bag/e2_s2.jpg,0,0,1683,21
288,leather_bag,./Images/leather_bag/e1_s2.jpg,0,0,1683,21
289,cabbage,./Images/cabbage/e2_s2.jpg,1,2,2065,21
289,cabbage,./Images/cabbage/e1_s2.jpg,1,2,2065,21
290,tricycle,./Images/tricycle/e1_s2.jpg,0,0,1605,21
290,tricycle,./Images/tricycle/e2_s1.jpg,0,0,1605,21
291,chocolate,./Images/chocolate/e1_s2.jpg,0,0,1533,21
291,chocolate,./Images/chocolate/e2_s1.jpg,0,0,1533,21
292,menus,./Images/menus/e2_s2.jpg,0,1,1774,21
292,menus,./Images/menus/e1_s2.jpg,1,1,1774,21
293,keys,./Images/keys/e1_s1.jpg,0,1,1684,21
293,keys,./Images/keys/e2_s1.jpg,1,1,1684,21
294,altoid,./Images/altoid/e1_s2.jpg,1,2,1732,21
294,altoid,./Images/altoid/e2_s2.jpg,1,2,1732,21
295,sponge,./Images/sponge/e2_s1.jpg,1,1,1685,21
295,sponge,./Images/sponge/e1_s2.jpg,0,1,1685,21
296,kettle,./Images/kettle/e1_s2.jpg,0,0,1764,21
296,kettle,./Images/kettle/e2_s1.jpg,0,0,1764,21
297,garlic_press,./Images/garlic_press/e1_s1.jpg,0,1,1985,21
297,garlic_press,./Images/garlic_press/e2_s2.jpg,1,1,1985,21
298,cocktail_umbrella,./Images/cocktail_umbrella/e1_s1.jpg,1,2,1624,21
298,cocktail_umbrella,./Images/cocktail_umbrella/e2_s2.jpg,1,2,1624,21
299,pie,./Images/pie/e2_s1.jpg,0,0,1632,21
299,pie,./Images/pie/e1_s2.jpg,0,0,1632,21
300,bottle_liquid,./Images/bottle_liquid/e2_s1.jpg,0,0,1605,21
300,bottle_liquid,./Images/bottle_liquid/e1_s1.jpg,0,0,1605,21
301,container_open,./Images/container_open/e2_s2.jpg,0,1,1553,21
301,container_open,./Images/container_open/e1_s1.jpg,1,1,1553,21
302,metronome,./Images/metronome/e1_s2.jpg,0,0,1600,21
302,metronome,./Images/metronome/e2_s1.jpg,0,0,1600,21
303,mixer,./Images/mixer/e1_s1.jpg,0,1,1482,21
303,mixer,./Images/mixer/e2_s2.jpg,1,1,1482,21
304,notebook,./Images/notebook/e1_s2.jpg,0,0,1675,21
304,notebook,./Images/notebook/e2_s1.jpg,0,0,1675,21
305,plastic_bottle,./Images/plastic_bottle/e2_s2.jpg,0,0,1433,21
305,plastic_bottle,./Images/plastic_bottle/e1_s2.jpg,0,0,1433,21
206,book,./Images/book/e2_s2.jpg,0,1,8470.29999999702,4
206,book,./Images/book/e1_s2.jpg,1,1,8470.29999999702,4
207,chips,./Images/chips/e1_s1.jpg,1,2,4330,4
207,chips,./Images/chips/e2_s1.jpg,1,2,4330,4
208,mustard,./Images/mustard/e1_s1.jpg,1,2,6013.5,4
208,mustard,./Images/mustard/e2_s1.jpg,1,2,6013.5,4
209,bottle_perfume,./Images/bottle_perfume/e1_s1.jpg,0,1,5430.30000001192,4
209,bottle_perfume,./Images/bottle_perfume/e2_s1.jpg,1,1,5430.30000001192,4
210,metronome,./Images/metronome/e1_s1.jpg,1,1,4980.59999999404,4
210,metronome,./Images/metronome/e2_s2.jpg,0,1,4980.59999999404,4
211,lottery_ticket,./Images/lottery_ticket/e2_s1.jpg,1,1,9247.09999999404,4
211,lottery_ticket,./Images/lottery_ticket/e1_s2.jpg,0,1,9247.09999999404,4
212,reeses,./Images/reeses/e1_s2.jpg,1,2,7613.5,4
212,reeses,./Images/reeses/e2_s2.jpg,1,2,7613.5,4
213,tricycle,./Images/tricycle/e1_s1.jpg,0,0,7347.70000000298,4
213,tricycle,./Images/tricycle/e2_s1.jpg,0,0,7347.70000000298,4
214,donut,./Images/donut/e1_s1.jpg,1,2,2247.70000000298,4
214,donut,./Images/donut/e2_s1.jpg,1,2,2247.70000000298,4
215,pie,./Images/pie/e1_s1.jpg,1,2,2530.20000000298,4
215,pie,./Images/pie/e2_s2.jpg,1,2,2530.20000000298,4
216,laptop,./Images/laptop/e2_s2.jpg,0,0,4646.70000000298,4
216,laptop,./Images/laptop/e1_s2.jpg,0,0,4646.70000000298,4
217,hourglass,./Images/hourglass/e1_s1.jpg,1,1,6113.29999999702,4
217,hourglass,./Images/hourglass/e2_s2.jpg,0,1,6113.29999999702,4
218,chip,./Images/chip/e1_s1.jpg,1,2,4546.70000000298,4
218,chip,./Images/chip/e2_s1.jpg,1,2,4546.70000000298,4
219,gift_box,./Images/gift_box/e1_s1.jpg,1,2,2480,4
219,gift_box,./Images/gift_box/e2_s1.jpg,1,2,2480,4
220,chocolate_bar,./Images/chocolate_bar/e2_s2.jpg,1,2,7363,4
220,chocolate_bar,./Images/chocolate_bar/e1_s1.jpg,1,2,7363,4
221,bills,./Images/bills/e1_s1.jpg,1,1,4130.30000001192,4
221,bills,./Images/bills/e2_s1.jpg,0,1,4130.30000001192,4
222,lunchbox,./Images/lunchbox/e2_s1.jpg,1,1,3630.10000000894,4
222,lunchbox,./Images/lunchbox/e1_s2.jpg,0,1,3630.10000000894,4
223,cardbox,./Images/cardbox/e1_s2.jpg,1,1,7396.69999998808,4
223,cardbox,./Images/cardbox/e2_s1.jpg,0,1,7396.69999998808,4
224,cookie,./Images/cookie/e2_s1.jpg,1,2,2746.39999999106,4
224,cookie,./Images/cookie/e1_s1.jpg,1,2,2746.39999999106,4
225,garlic_press,./Images/garlic_press/e2_s2.jpg,1,2,3063.20000000298,4
225,garlic_press,./Images/garlic_press/e1_s2.jpg,1,2,3063.20000000298,4
226,notebook,./Images/notebook/e2_s1.jpg,1,2,6846.39999999106,4
226,notebook,./Images/notebook/e1_s2.jpg,1,2,6846.39999999106,4
227,yarn,./Images/yarn/e1_s2.jpg,1,2,5863.80000001192,4
227,yarn,./Images/yarn/e2_s2.jpg,1,2,5863.80000001192,4
228,gummy,./Images/gummy/e1_s2.jpg,1,1,7213.20000000298,4
228,gummy,./Images/gummy/e2_s2.jpg,0,1,7213.20000000298,4
229,menus,./Images/menus/e2_s2.jpg,0,1,5030,4
229,menus,./Images/menus/e1_s1.jpg,1,1,5030,4
230,peanut_butter,./Images/peanut_butter/e1_s1.jpg,1,2,5380.70000000298,4
230,peanut_butter,./Images/peanut_butter/e2_s1.jpg,1,2,5380.70000000298,4
231,scissors,./Images/scissors/e2_s1.jpg,0,0,4763.20000000298,4
231,scissors,./Images/scissors/e1_s1.jpg,0,0,4763.20000000298,4
232,cabinet,./Images/cabinet/e2_s2.jpg,0,0,2780.70000000298,4
232,cabinet,./Images/cabinet/e1_s1.jpg,0,0,2780.70000000298,4
233,theater_seats,./Images/theater_seats/e2_s1.jpg,1,2,7530.59999999404,4
233,theater_seats,./Images/theater_seats/e1_s2.jpg,1,2,7530.59999999404,4
234,cabbage,./Images/cabbage/e2_s2.jpg,1,2,2063.40000000596,4
234,cabbage,./Images/cabbage/e1_s1.jpg,1,2,2063.40000000596,4
235,bottle_liquid,./Images/bottle_liquid/e2_s1.jpg,0,0,2547.30000001192,4
235,bottle_liquid,./Images/bottle_liquid/e1_s2.jpg,0,0,2547.30000001192,4
236,sharpie_pens,./Images/sharpie_pens/e1_s2.jpg,0,1,2047.20000000298,4
236,sharpie_pens,./Images/sharpie_pens/e2_s1.jpg,1,1,2047.20000000298,4
237,dryer,./Images/dryer/e2_s2.jpg,1,2,4246.5,4
237,dryer,./Images/dryer/e1_s1.jpg,1,2,4246.5,4
238,locks,./Images/locks/e1_s2.jpg,1,2,3980.5,4
238,locks,./Images/locks/e2_s2.jpg,1,2,3980.5,4
239,drink,./Images/drink/e2_s2.jpg,0,0,6763.70000000298,4
239,drink,./Images/drink/e1_s1.jpg,0,0,6763.70000000298,4
240,plastic_bottle,./Images/plastic_bottle/e2_s1.jpg,0,1,3263.90000000596,4
240,plastic_bottle,./Images/plastic_bottle/e1_s1.jpg,1,1,3263.90000000596,4
241,chocolate,./Images/chocolate/e1_s1.jpg,0,1,3963.19999998808,4
241,chocolate,./Images/chocolate/e2_s1.jpg,1,1,3963.19999998808,4
242,toilet,./Images/toilet/e1_s2.jpg,0,1,5030.29999999702,4
242,toilet,./Images/toilet/e2_s1.jpg,1,1,5030.29999999702,4
243,toy_truck,./Images/toy_truck/e2_s2.jpg,1,1,2413.20000000298,4
243,toy_truck,./Images/toy_truck/e1_s1.jpg,0,1,2413.20000000298,4
244,dresser,./Images/dresser/e2_s1.jpg,1,2,2979.90000000596,4
244,dresser,./Images/dresser/e1_s2.jpg,1,2,2979.90000000596,4
245,cell,./Images/cell/e2_s2.jpg,0,0,2480.20000000298,4
245,cell,./Images/cell/e1_s1.jpg,0,0,2480.20000000298,4
246,accordion,./Images/accordion/e2_s2.jpg,0,0,3313.70000000298,4
246,accordion,./Images/accordion/e1_s2.jpg,0,0,3313.70000000298,4
247,keys,./Images/keys/e2_s2.jpg,1,1,3181,4
247,keys,./Images/keys/e1_s1.jpg,0,1,3181,4
248,menorah,./Images/menorah/e2_s1.jpg,1,2,4330.40000000596,4
248,menorah,./Images/menorah/e1_s2.jpg,1,2,4330.40000000596,4
249,lotion,./Images/lotion/e2_s2.jpg,1,1,2496.79999999702,4
249,lotion,./Images/lotion/e1_s1.jpg,0,1,2496.79999999702,4
250,tool_box,./Images/tool_box/e2_s2.jpg,0,0,1929.90000000596,4
250,tool_box,./Images/tool_box/e1_s2.jpg,0,0,1929.90000000596,4
251,umbrella,./Images/umbrella/e1_s1.jpg,1,2,2930,4
251,umbrella,./Images/umbrella/e2_s1.jpg,1,2,2930,4
252,book_object,./Images/book_object/e2_s2.jpg,1,2,3629.90000000596,4
252,book_object,./Images/book_object/e1_s2.jpg,1,2,3629.90000000596,4
253,typewriter,./Images/typewriter/e2_s2.jpg,1,2,2513,4
253,typewriter,./Images/typewriter/e1_s1.jpg,1,2,2513,4
254,usb_key,./Images/usb_key/e2_s1.jpg,1,1,4647,4
254,usb_key,./Images/usb_key/e1_s2.jpg,0,1,4647,4
255,leather_bag,./Images/leather_bag/e2_s1.jpg,0,0,1746.70000000298,4
255,leather_bag,./Images/leather_bag/e1_s1.jpg,0,0,1746.70000000298,4
256,microwave,./Images/microwave/e1_s1.jpg,1,2,4130.29999999702,4
256,microwave,./Images/microwave/e2_s1.jpg,1,2,4130.29999999702,4
257,corkscrew,./Images/corkscrew/e2_s1.jpg,1,1,2863.20000000298,4
257,corkscrew,./Images/corkscrew/e1_s2.jpg,0,1,2863.20000000298,4
258,coffeemug,./Images/coffeemug/e2_s1.jpg,1,2,2563.39999999106,4
258,coffeemug,./Images/coffeemug/e1_s2.jpg,1,2,2563.39999999106,4
259,oj,./Images/oj/e2_s2.jpg,1,2,4379.90000000596,4
259,oj,./Images/oj/e1_s2.jpg,1,2,4379.90000000596,4
260,cocktail_umbrella,./Images/cocktail_umbrella/e1_s2.jpg,1,2,3380,4
260,cocktail_umbrella,./Images/cocktail_umbrella/e2_s1.jpg,1,2,3380,4
261,phone_antique,./Images/phone_antique/e1_s2.jpg,1,1,2047.09999999404,4
261,phone_antique,./Images/phone_antique/e2_s2.jpg,0,1,2047.09999999404,4
262,backpack,./Images/backpack/e2_s1.jpg,0,1,4413.5,4
262,backpack,./Images/backpack/e1_s1.jpg,1,1,4413.5,4
263,flask,./Images/flask/e1_s1.jpg,1,1,3047.20000000298,4
263,flask,./Images/flask/e2_s2.jpg,0,1,3047.20000000298,4
264,paper_cup,./Images/paper_cup/e1_s1.jpg,1,2,2046.80000001192,4
264,paper_cup,./Images/paper_cup/e2_s1.jpg,1,2,2046.80000001192,4
265,pail,./Images/pail/e1_s1.jpg,0,1,3347.5,4
265,pail,./Images/pail/e2_s1.jpg,1,1,3347.5,4
266,fridge,./Images/fridge/e2_s1.jpg,1,2,2130.19999998808,4
266,fridge,./Images/fridge/e1_s1.jpg,1,2,2130.19999998808,4
267,chapstick,./Images/chapstick/e2_s2.jpg,1,2,4480.10000000894,4
267,chapstick,./Images/chapstick/e1_s1.jpg,1,2,4480.10000000894,4
268,sugar_bowl,./Images/sugar_bowl/e1_s2.jpg,0,1,2230,4
268,sugar_bowl,./Images/sugar_bowl/e2_s1.jpg,1,1,2230,4
269,watch,./Images/watch/e2_s1.jpg,0,1,3379.79999999702,4
269,watch,./Images/watch/e1_s1.jpg,1,1,3379.79999999702,4
270,mixer,./Images/mixer/e1_s2.jpg,1,2,3830.80000001192,4
270,mixer,./Images/mixer/e2_s1.jpg,1,2,3830.80000001192,4
271,car,./Images/car/e2_s1.jpg,1,1,3779.90000000596,4
271,car,./Images/car/e1_s1.jpg,0,1,3779.90000000596,4
272,sponge,./Images/sponge/e1_s2.jpg,1,2,2930.40000000596,4
272,sponge,./Images/sponge/e2_s1.jpg,1,2,2930.40000000596,4
273,sugar_paper,./Images/sugar_paper/e2_s1.jpg,1,2,2563.60000000894,4
273,sugar_paper,./Images/sugar_paper/e1_s2.jpg,1,2,2563.60000000894,4
274,soap,./Images/soap/e2_s2.jpg,1,2,4563.59999999404,4
274,soap,./Images/soap/e1_s1.jpg,1,2,4563.59999999404,4
275,cooking_pot,./Images/cooking_pot/e1_s2.jpg,1,1,3147.20000000298,4
275,cooking_pot,./Images/cooking_pot/e2_s1.jpg,0,1,3147.20000000298,4
276,tictac,./Images/tictac/e2_s1.jpg,1,2,3880.19999998808,4
276,tictac,./Images/tictac/e1_s2.jpg,1,2,3880.19999998808,4
277,apple,./Images/apple/e1_s2.jpg,1,2,2013.79999999702,4
277,apple,./Images/apple/e2_s2.jpg,1,2,2013.79999999702,4
278,coins,./Images/coins/e2_s2.jpg,1,1,2464.20000000298,4
278,coins,./Images/coins/e1_s2.jpg,0,1,2464.20000000298,4
279,clocks,./Images/clocks/e2_s1.jpg,1,1,2879.10000000894,4
279,clocks,./Images/clocks/e1_s1.jpg,0,1,2879.10000000894,4
280,glass_orange,./Images/glass_orange/e1_s1.jpg,1,1,3298.10000000894,4
280,glass_orange,./Images/glass_orange/e2_s2.jpg,0,1,3298.10000000894,4
281,tissues,./Images/tissues/e2_s1.jpg,1,1,4746.40000000596,4
281,tissues,./Images/tissues/e1_s1.jpg,0,1,4746.40000000596,4
282,pen,./Images/pen/e1_s1.jpg,1,2,3715.5,4
282,pen,./Images/pen/e2_s2.jpg,1,2,3715.5,4
283,wallet,./Images/wallet/e1_s1.jpg,1,1,2580,4
283,wallet,./Images/wallet/e2_s2.jpg,0,1,2580,4
284,breadbox,./Images/breadbox/e2_s1.jpg,1,2,2630.60000000894,4
284,breadbox,./Images/breadbox/e1_s1.jpg,1,2,2630.60000000894,4
285,hand_puppet,./Images/hand_puppet/e1_s1.jpg,1,2,2097.5,4
285,hand_puppet,./Images/hand_puppet/e2_s1.jpg,1,2,2097.5,4
286,tape_dispenser,./Images/tape_dispenser/e1_s2.jpg,1,1,2331.09999999404,4
286,tape_dispenser,./Images/tape_dispenser/e2_s2.jpg,0,1,2331.09999999404,4
287,aabacus,./Images/aabacus/e2_s2.jpg,0,1,2915.10000000894,4
287,aabacus,./Images/aabacus/e1_s2.jpg,1,1,2915.10000000894,4
288,phone,./Images/phone/e2_s2.jpg,1,1,2231.59999999404,4
288,phone,./Images/phone/e1_s2.jpg,0,1,2231.59999999404,4
289,canopener,./Images/canopener/e1_s1.jpg,0,1,2962.79999999702,4
289,canopener,./Images/canopener/e2_s2.jpg,1,1,2962.79999999702,4
290,lemon,./Images/lemon/e1_s1.jpg,1,2,3014.90000000596,4
290,lemon,./Images/lemon/e2_s2.jpg,1,2,3014.90000000596,4
291,headphone_small,./Images/headphone_small/e1_s2.jpg,0,0,5798.30000001192,4
291,headphone_small,./Images/headphone_small/e2_s2.jpg,0,0,5798.30000001192,4
292,shoe,./Images/shoe/e2_s1.jpg,1,2,2681.09999999404,4
292,shoe,./Images/shoe/e1_s2.jpg,1,2,2681.09999999404,4
293,small_box,./Images/small_box/e2_s2.jpg,0,0,3812.5,4
293,small_box,./Images/small_box/e1_s1.jpg,0,0,3812.5,4
294,cereal,./Images/cereal/e2_s1.jpg,0,1,5515.59999999404,4
294,cereal,./Images/cereal/e1_s2.jpg,1,1,5515.59999999404,4
295,poker_chips,./Images/poker_chips/e1_s1.jpg,0,1,3330.40000000596,4
295,poker_chips,./Images/poker_chips/e2_s1.jpg,1,1,3330.40000000596,4
296,container_open,./Images/container_open/e1_s1.jpg,1,1,2330.5,4
296,container_open,./Images/container_open/e2_s2.jpg,0,1,2330.5,4
297,mailbox,./Images/mailbox/e2_s1.jpg,1,1,2630,4
297,mailbox,./Images/mailbox/e1_s1.jpg,0,1,2630,4
298,kettle,./Images/kettle/e1_s1.jpg,1,1,2213.29999999702,4
298,kettle,./Images/kettle/e2_s1.jpg,0,1,2213.29999999702,4
299,baseball_glove,./Images/baseball_glove/e1_s2.jpg,1,2,5313.20000000298,4
299,baseball_glove,./Images/baseball_glove/e2_s1.jpg,1,2,5313.20000000298,4
300,tea_pot,./Images/tea_pot/e1_s1.jpg,1,1,3096.90000000596,4
300,tea_pot,./Images/tea_pot/e2_s2.jpg,0,1,3096.90000000596,4
301,file_box,./Images/file_box/e2_s1.jpg,1,2,1746.70000000298,4
301,file_box,./Images/file_box/e1_s2.jpg,1,2,1746.70000000298,4
302,file_folder,./Images/file_folder/e2_s1.jpg,1,1,2762.89999999106,4
302,file_folder,./Images/file_folder/e1_s1.jpg,0,1,2762.89999999106,4
303,altoid,./Images/altoid/e1_s1.jpg,1,1,2063.5,4
303,altoid,./Images/altoid/e2_s1.jpg,0,1,2063.5,4
304,scanner,./Images/scanner/e1_s1.jpg,1,1,2496.79999999702,4
304,scanner,./Images/scanner/e2_s2.jpg,0,1,2496.79999999702,4
305,chair_recliner,./Images/chair_recliner/e2_s2.jpg,1,1,3213.30000001192,4
305,chair_recliner,./Images/chair_recliner/e1_s2.jpg,0,1,3213.30000001192,4
206,drink,./Images/drink/e2_s1.jpg,0,1,5524.70000004768,16
206,drink,./Images/drink/e1_s2.jpg,1,1,5524.70000004768,16
207,cell,./Images/cell/e2_s1.jpg,1,2,3197.79999995232,16
207,cell,./Images/cell/e1_s1.jpg,1,2,3197.79999995232,16
208,tricycle,./Images/tricycle/e2_s2.jpg,0,1,3180.70000004768,16
208,tricycle,./Images/tricycle/e1_s1.jpg,1,1,3180.70000004768,16
209,toilet,./Images/toilet/e1_s1.jpg,1,2,2797.09999990463,16
209,toilet,./Images/toilet/e2_s2.jpg,1,2,2797.09999990463,16
210,gift_box,./Images/gift_box/e2_s2.jpg,1,2,2698.80000019074,16
210,gift_box,./Images/gift_box/e1_s1.jpg,1,2,2698.80000019074,16
211,chocolate_bar,./Images/chocolate_bar/e2_s1.jpg,1,1,2663.29999995232,16
211,chocolate_bar,./Images/chocolate_bar/e1_s2.jpg,0,1,2663.29999995232,16
212,mailbox,./Images/mailbox/e2_s1.jpg,0,0,3980.20000004768,16
212,mailbox,./Images/mailbox/e1_s1.jpg,0,0,3980.20000004768,16
213,glass_orange,./Images/glass_orange/e1_s1.jpg,1,1,3298.20000004768,16
213,glass_orange,./Images/glass_orange/e2_s1.jpg,0,1,3298.20000004768,16
214,donut,./Images/donut/e2_s1.jpg,1,2,5480.90000009537,16
214,donut,./Images/donut/e1_s2.jpg,1,2,5480.90000009537,16
215,tissues,./Images/tissues/e2_s2.jpg,0,1,3297.5,16
215,tissues,./Images/tissues/e1_s1.jpg,1,1,3297.5,16
216,car,./Images/car/e1_s1.jpg,0,0,3498.20000004768,16
216,car,./Images/car/e2_s2.jpg,0,0,3498.20000004768,16
217,dryer,./Images/dryer/e1_s2.jpg,1,2,4313.89999985695,16
217,dryer,./Images/dryer/e2_s2.jpg,1,2,4313.89999985695,16
218,backpack,./Images/backpack/e2_s1.jpg,1,2,3514.5,16
218,backpack,./Images/backpack/e1_s2.jpg,1,2,3514.5,16
219,chocolate,./Images/chocolate/e1_s2.jpg,1,2,2613.90000009537,16
219,chocolate,./Images/chocolate/e2_s1.jpg,1,2,2613.90000009537,16
220,mixer,./Images/mixer/e2_s2.jpg,0,0,10447.5,16
220,mixer,./Images/mixer/e1_s1.jpg,0,0,10447.5,16
221,pie,./Images/pie/e2_s1.jpg,1,2,4481.09999990463,16
221,pie,./Images/pie/e1_s1.jpg,1,2,4481.09999990463,16
222,cocktail_umbrella,./Images/cocktail_umbrella/e1_s1.jpg,1,2,3030.30000019074,16
222,cocktail_umbrella,./Images/cocktail_umbrella/e2_s1.jpg,1,2,3030.30000019074,16
223,aabacus,./Images/aabacus/e1_s2.jpg,0,0,3314.59999990463,16
223,aabacus,./Images/aabacus/e2_s2.jpg,0,0,3314.59999990463,16
224,bottle_perfume,./Images/bottle_perfume/e1_s2.jpg,0,1,3597.39999985695,16
224,bottle_perfume,./Images/bottle_perfume/e2_s2.jpg,1,1,3597.39999985695,16
225,corkscrew,./Images/corkscrew/e1_s1.jpg,1,2,2747.59999990463,16
225,corkscrew,./Images/corkscrew/e2_s2.jpg,1,2,2747.59999990463,16
226,chips,./Images/chips/e1_s2.jpg,0,1,4330.39999985695,16
226,chips,./Images/chips/e2_s1.jpg,1,1,4330.39999985695,16
227,watch,./Images/watch/e2_s2.jpg,0,1,2247,16
227,watch,./Images/watch/e1_s1.jpg,1,1,2247,16
228,coffeemug,./Images/coffeemug/e2_s2.jpg,0,1,2048.20000004768,16
228,coffeemug,./Images/coffeemug/e1_s2.jpg,1,1,2048.20000004768,16
229,lunchbox,./Images/lunchbox/e1_s1.jpg,1,2,2530.10000014305,16
229,lunchbox,./Images/lunchbox/e2_s2.jpg,1,2,2530.10000014305,16
230,pail,./Images/pail/e1_s1.jpg,1,2,2129.60000014305,16
230,pail,./Images/pail/e2_s2.jpg,1,2,2129.60000014305,16
231,container_open,./Images/container_open/e2_s2.jpg,1,2,2447.70000004768,16
231,container_open,./Images/container_open/e1_s2.jpg,1,2,2447.70000004768,16
232,dresser,./Images/dresser/e1_s1.jpg,0,1,2230.20000004768,16
232,dresser,./Images/dresser/e2_s2.jpg,1,1,2230.20000004768,16
233,file_box,./Images/file_box/e2_s2.jpg,1,1,1698.29999995232,16
233,file_box,./Images/file_box/e1_s1.jpg,0,1,1698.29999995232,16
234,tape_dispenser,./Images/tape_dispenser/e2_s1.jpg,1,2,2063.59999990463,16
234,tape_dispenser,./Images/tape_dispenser/e1_s1.jpg,1,2,2063.59999990463,16
235,sharpie_pens,./Images/sharpie_pens/e1_s1.jpg,1,2,1714.5,16
235,sharpie_pens,./Images/sharpie_pens/e2_s1.jpg,1,2,1714.5,16
236,clocks,./Images/clocks/e1_s2.jpg,1,1,2513.30000019074,16
236,clocks,./Images/clocks/e2_s1.jpg,0,1,2513.30000019074,16
237,sugar_paper,./Images/sugar_paper/e1_s1.jpg,1,1,1997.5,16
237,sugar_paper,./Images/sugar_paper/e2_s2.jpg,0,1,1997.5,16
238,chair_recliner,./Images/chair_recliner/e2_s2.jpg,1,1,2547.70000004768,16
238,chair_recliner,./Images/chair_recliner/e1_s1.jpg,0,1,2547.70000004768,16
239,keys,./Images/keys/e1_s1.jpg,1,2,2246.20000004768,16
239,keys,./Images/keys/e2_s1.jpg,1,2,2246.20000004768,16
240,theater_seats,./Images/theater_seats/e1_s2.jpg,1,1,1915.09999990463,16
240,theater_seats,./Images/theater_seats/e2_s2.jpg,0,1,1915.09999990463,16
241,oj,./Images/oj/e2_s2.jpg,1,1,2797.29999995232,16
241,oj,./Images/oj/e1_s1.jpg,0,1,2797.29999995232,16
242,canopener,./Images/canopener/e1_s1.jpg,0,1,1945.79999995232,16
242,canopener,./Images/canopener/e2_s2.jpg,1,1,1945.79999995232,16
243,chapstick,./Images/chapstick/e1_s1.jpg,0,1,2413.80000019073,16
243,chapstick,./Images/chapstick/e2_s1.jpg,1,1,2413.80000019073,16
244,coins,./Images/coins/e2_s1.jpg,1,2,3246.80000019074,16
244,coins,./Images/coins/e1_s2.jpg,1,2,3246.80000019074,16
245,small_box,./Images/small_box/e2_s2.jpg,1,2,2847.20000004768,16
245,small_box,./Images/small_box/e1_s1.jpg,1,2,2847.20000004768,16
246,menorah,./Images/menorah/e1_s2.jpg,1,2,2631.5,16
246,menorah,./Images/menorah/e2_s1.jpg,1,2,2631.5,16
247,garlic_press,./Images/garlic_press/e1_s1.jpg,1,1,3181.10000014305,16
247,garlic_press,./Images/garlic_press/e2_s1.jpg,0,1,3181.10000014305,16
248,sponge,./Images/sponge/e1_s2.jpg,1,2,2265.20000004768,16
248,sponge,./Images/sponge/e2_s1.jpg,1,2,2265.20000004768,16
249,soap,./Images/soap/e2_s2.jpg,1,2,3063.20000004768,16
249,soap,./Images/soap/e1_s1.jpg,1,2,3063.20000004768,16
250,typewriter,./Images/typewriter/e1_s2.jpg,0,1,2130.5,16
250,typewriter,./Images/typewriter/e2_s2.jpg,1,1,2130.5,16
251,menus,./Images/menus/e2_s2.jpg,0,1,3597.5,16
251,menus,./Images/menus/e1_s1.jpg,1,1,3597.5,16
252,cooking_pot,./Images/cooking_pot/e1_s1.jpg,0,1,2513.79999995232,16
252,cooking_pot,./Images/cooking_pot/e2_s2.jpg,1,1,2513.79999995232,16
253,hourglass,./Images/hourglass/e2_s2.jpg,1,2,2313.90000009537,16
253,hourglass,./Images/hourglass/e1_s1.jpg,1,2,2313.90000009537,16
254,umbrella,./Images/umbrella/e2_s1.jpg,1,2,2481.20000004768,16
254,umbrella,./Images/umbrella/e1_s2.jpg,1,2,2481.20000004768,16
255,baseball_glove,./Images/baseball_glove/e1_s1.jpg,1,2,2947.10000014305,16
255,baseball_glove,./Images/baseball_glove/e2_s2.jpg,1,2,2947.10000014305,16
256,headphone_small,./Images/headphone_small/e1_s2.jpg,0,1,2665,16
256,headphone_small,./Images/headphone_small/e2_s1.jpg,1,1,2665,16
257,fridge,./Images/fridge/e2_s1.jpg,1,2,2180.40000009537,16
257,fridge,./Images/fridge/e1_s1.jpg,1,2,2180.40000009537,16
258,shoe,./Images/shoe/e1_s1.jpg,1,2,2647.30000019074,16
258,shoe,./Images/shoe/e2_s1.jpg,1,2,2647.30000019074,16
259,phone_antique,./Images/phone_antique/e1_s2.jpg,0,1,3547.20000004768,16
259,phone_antique,./Images/phone_antique/e2_s2.jpg,1,1,3547.20000004768,16
260,hand_puppet,./Images/hand_puppet/e1_s2.jpg,1,2,2664.69999980927,16
260,hand_puppet,./Images/hand_puppet/e2_s1.jpg,1,2,2664.69999980927,16
261,tool_box,./Images/tool_box/e1_s1.jpg,1,1,3247.59999990463,16
261,tool_box,./Images/tool_box/e2_s2.jpg,0,1,3247.59999990463,16
262,file_folder,./Images/file_folder/e2_s1.jpg,1,2,2214.70000004768,16
262,file_folder,./Images/file_folder/e1_s2.jpg,1,2,2214.70000004768,16
263,laptop,./Images/laptop/e1_s1.jpg,1,2,2080.10000014305,16
263,laptop,./Images/laptop/e2_s2.jpg,1,2,2080.10000014305,16
264,cabbage,./Images/cabbage/e1_s1.jpg,1,2,2148.20000004768,16
264,cabbage,./Images/cabbage/e2_s1.jpg,1,2,2148.20000004768,16
265,tictac,./Images/tictac/e2_s1.jpg,1,2,2629.80000019074,16
265,tictac,./Images/tictac/e1_s2.jpg,1,2,2629.80000019074,16
266,scanner,./Images/scanner/e2_s1.jpg,1,1,2113,16
266,scanner,./Images/scanner/e1_s2.jpg,0,1,2113,16
267,flask,./Images/flask/e2_s2.jpg,0,1,1797.20000004768,16
267,flask,./Images/flask/e1_s2.jpg,1,1,1797.20000004768,16
268,gummy,./Images/gummy/e2_s2.jpg,1,2,2347.40000009537,16
268,gummy,./Images/gummy/e1_s1.jpg,1,2,2347.40000009537,16
269,plastic_bottle,./Images/plastic_bottle/e2_s2.jpg,1,1,2446.30000019074,16
269,plastic_bottle,./Images/plastic_bottle/e1_s1.jpg,0,1,2446.30000019074,16
270,lotion,./Images/lotion/e1_s2.jpg,0,1,4781.39999985695,16
270,lotion,./Images/lotion/e2_s2.jpg,1,1,4781.39999985695,16
271,toy_truck,./Images/toy_truck/e2_s2.jpg,0,1,1699.10000014305,16
271,toy_truck,./Images/toy_truck/e1_s1.jpg,1,1,1699.10000014305,16
272,notebook,./Images/notebook/e1_s1.jpg,1,1,2329.60000014305,16
272,notebook,./Images/notebook/e2_s1.jpg,0,1,2329.60000014305,16
273,cabinet,./Images/cabinet/e1_s2.jpg,1,2,1730.70000004768,16
273,cabinet,./Images/cabinet/e2_s2.jpg,1,2,1730.70000004768,16
274,altoid,./Images/altoid/e1_s2.jpg,1,1,2514.69999980927,16
274,altoid,./Images/altoid/e2_s1.jpg,0,1,2514.69999980927,16
275,usb_key,./Images/usb_key/e2_s1.jpg,1,2,2930,16
275,usb_key,./Images/usb_key/e1_s2.jpg,1,2,2930,16
276,accordion,./Images/accordion/e1_s2.jpg,0,1,2680.90000009537,16
276,accordion,./Images/accordion/e2_s1.jpg,1,1,2680.90000009537,16
277,scissors,./Images/scissors/e1_s1.jpg,1,1,1997.70000004768,16
277,scissors,./Images/scissors/e2_s2.jpg,0,1,1997.70000004768,16
278,locks,./Images/locks/e1_s2.jpg,1,1,3030.40000009537,16
278,locks,./Images/locks/e2_s1.jpg,0,1,3030.40000009537,16
279,peanut_butter,./Images/peanut_butter/e2_s2.jpg,0,0,2365.09999990463,16
279,peanut_butter,./Images/peanut_butter/e1_s1.jpg,0,0,2365.09999990463,16
280,reeses,./Images/reeses/e2_s2.jpg,1,2,1878.40000009537,16
280,reeses,./Images/reeses/e1_s1.jpg,1,2,1878.40000009537,16
281,poker_chips,./Images/poker_chips/e2_s1.jpg,1,1,3131,16
281,poker_chips,./Images/poker_chips/e1_s2.jpg,0,1,3131,16
282,cookie,./Images/cookie/e1_s1.jpg,1,2,2662.89999985695,16
282,cookie,./Images/cookie/e2_s2.jpg,1,2,2662.89999985695,16
283,mustard,./Images/mustard/e1_s2.jpg,1,2,2165.20000004768,16
283,mustard,./Images/mustard/e2_s1.jpg,1,2,2165.20000004768,16
284,paper_cup,./Images/paper_cup/e2_s1.jpg,1,2,2464,16
284,paper_cup,./Images/paper_cup/e1_s1.jpg,1,2,2464,16
285,book_object,./Images/book_object/e2_s2.jpg,1,2,2214,16
285,book_object,./Images/book_object/e1_s1.jpg,1,2,2214,16
286,metronome,./Images/metronome/e2_s2.jpg,0,1,2029.69999980927,16
286,metronome,./Images/metronome/e1_s1.jpg,1,1,2029.69999980927,16
287,apple,./Images/apple/e1_s2.jpg,1,2,1514.70000004768,16
287,apple,./Images/apple/e2_s1.jpg,1,2,1514.70000004768,16
288,cereal,./Images/cereal/e1_s1.jpg,1,2,2330.79999995232,16
288,cereal,./Images/cereal/e2_s1.jpg,1,2,2330.79999995232,16
289,leather_bag,./Images/leather_bag/e1_s2.jpg,1,2,2680.5,16
289,leather_bag,./Images/leather_bag/e2_s1.jpg,1,2,2680.5,16
290,lottery_ticket,./Images/lottery_ticket/e2_s1.jpg,1,1,3013.70000004768,16
290,lottery_ticket,./Images/lottery_ticket/e1_s1.jpg,0,1,3013.70000004768,16
291,lemon,./Images/lemon/e2_s1.jpg,1,2,1697.90000009537,16
291,lemon,./Images/lemon/e1_s2.jpg,1,2,1697.90000009537,16
292,wallet,./Images/wallet/e2_s2.jpg,0,1,2564,16
292,wallet,./Images/wallet/e1_s1.jpg,1,1,2564,16
293,bottle_liquid,./Images/bottle_liquid/e2_s1.jpg,1,2,1897.09999990463,16
293,bottle_liquid,./Images/bottle_liquid/e1_s2.jpg,1,2,1897.09999990463,16
294,yarn,./Images/yarn/e2_s2.jpg,1,2,1831,16
294,yarn,./Images/yarn/e1_s1.jpg,1,2,1831,16
295,sugar_bowl,./Images/sugar_bowl/e1_s1.jpg,1,1,3715,16
295,sugar_bowl,./Images/sugar_bowl/e2_s2.jpg,0,1,3715,16
296,microwave,./Images/microwave/e1_s1.jpg,1,2,1979.80000019074,16
296,microwave,./Images/microwave/e2_s2.jpg,1,2,1979.80000019074,16
297,pen,./Images/pen/e1_s2.jpg,1,1,3214.39999985695,16
297,pen,./Images/pen/e2_s1.jpg,0,1,3214.39999985695,16
298,kettle,./Images/kettle/e1_s1.jpg,0,0,2064.70000004768,16
298,kettle,./Images/kettle/e2_s2.jpg,0,0,2064.70000004768,16
299,book,./Images/book/e1_s2.jpg,1,1,1829,16
299,book,./Images/book/e2_s1.jpg,0,1,1829,16
300,chip,./Images/chip/e1_s2.jpg,1,1,3181,16
300,chip,./Images/chip/e2_s1.jpg,0,1,3181,16
301,cardbox,./Images/cardbox/e1_s2.jpg,0,0,2615.09999990463,16
301,cardbox,./Images/cardbox/e2_s2.jpg,0,0,2615.09999990463,16
302,bills,./Images/bills/e1_s1.jpg,1,2,1878.19999980927,16
302,bills,./Images/bills/e2_s2.jpg,1,2,1878.19999980927,16
303,phone,./Images/phone/e1_s1.jpg,1,2,3148,16
303,phone,./Images/phone/e2_s2.jpg,1,2,3148,16
304,breadbox,./Images/breadbox/e2_s1.jpg,1,1,2448,16
304,breadbox,./Images/breadbox/e1_s2.jpg,0,1,2448,16
305,tea_pot,./Images/tea_pot/e1_s2.jpg,0,1,3012.70000004768,16
305,tea_pot,./Images/tea_pot/e2_s1.jpg,1,1,3012.70000004768,16
206,bottle_liquid,./Images/bottle_liquid/e1_s2.jpg,1,2,11266.3999998569,10
206,bottle_liquid,./Images/bottle_liquid/e2_s2.jpg,1,2,11266.3999998569,10
207,cooking_pot,./Images/cooking_pot/e2_s2.jpg,1,2,7553.70000004768,10
207,cooking_pot,./Images/cooking_pot/e1_s2.jpg,1,2,7553.70000004768,10
208,bills,./Images/bills/e1_s2.jpg,0,1,2222.89999985695,10
208,bills,./Images/bills/e2_s2.jpg,1,1,2222.89999985695,10
209,clocks,./Images/clocks/e1_s1.jpg,0,1,3205.90000009537,10
209,clocks,./Images/clocks/e2_s1.jpg,1,1,3205.90000009537,10
210,cardbox,./Images/cardbox/e2_s2.jpg,0,0,3068.40000009537,10
210,cardbox,./Images/cardbox/e1_s2.jpg,0,0,3068.40000009537,10
211,plastic_bottle,./Images/plastic_bottle/e2_s2.jpg,1,2,2535.5,10
211,plastic_bottle,./Images/plastic_bottle/e1_s1.jpg,1,2,2535.5,10
212,gift_box,./Images/gift_box/e2_s2.jpg,1,1,3439.90000009537,10
212,gift_box,./Images/gift_box/e1_s2.jpg,0,1,3439.90000009537,10
213,pen,./Images/pen/e2_s2.jpg,0,1,3457.89999985695,10
213,pen,./Images/pen/e1_s2.jpg,1,1,3457.89999985695,10
214,chips,./Images/chips/e2_s1.jpg,1,2,2650,10
214,chips,./Images/chips/e1_s1.jpg,1,2,2650,10
215,accordion,./Images/accordion/e1_s1.jpg,1,1,4069.09999990463,10
215,accordion,./Images/accordion/e2_s1.jpg,0,1,4069.09999990463,10
216,apple,./Images/apple/e2_s1.jpg,1,2,1918,10
216,apple,./Images/apple/e1_s1.jpg,1,2,1918,10
217,hourglass,./Images/hourglass/e2_s2.jpg,0,1,3524.5,10
217,hourglass,./Images/hourglass/e1_s1.jpg,1,1,3524.5,10
218,cookie,./Images/cookie/e2_s1.jpg,1,2,2693.69999980927,10
218,cookie,./Images/cookie/e1_s1.jpg,1,2,2693.69999980927,10
219,aabacus,./Images/aabacus/e1_s2.jpg,1,2,3541.79999995232,10
219,aabacus,./Images/aabacus/e2_s1.jpg,1,2,3541.79999995232,10
220,file_box,./Images/file_box/e1_s1.jpg,0,1,3713.70000004768,10
220,file_box,./Images/file_box/e2_s2.jpg,1,1,3713.70000004768,10
221,chocolate_bar,./Images/chocolate_bar/e2_s1.jpg,1,2,2971.5,10
221,chocolate_bar,./Images/chocolate_bar/e1_s1.jpg,1,2,2971.5,10
222,toy_truck,./Images/toy_truck/e2_s1.jpg,1,2,2375.20000004768,10
222,toy_truck,./Images/toy_truck/e1_s2.jpg,1,2,2375.20000004768,10
223,leather_bag,./Images/leather_bag/e2_s1.jpg,1,1,4141.29999995232,10
223,leather_bag,./Images/leather_bag/e1_s1.jpg,0,1,4141.29999995232,10
224,mailbox,./Images/mailbox/e1_s1.jpg,1,2,3335.59999990463,10
224,mailbox,./Images/mailbox/e2_s1.jpg,1,2,3335.59999990463,10
225,reeses,./Images/reeses/e2_s2.jpg,1,2,2876,10
225,reeses,./Images/reeses/e1_s2.jpg,1,2,2876,10
226,lunchbox,./Images/lunchbox/e2_s1.jpg,0,1,3598.40000009537,10
226,lunchbox,./Images/lunchbox/e1_s2.jpg,1,1,3598.40000009537,10
227,laptop,./Images/laptop/e1_s1.jpg,1,1,2698.89999985695,10
227,laptop,./Images/laptop/e2_s1.jpg,0,1,2698.89999985695,10
228,drink,./Images/drink/e1_s1.jpg,1,2,2890.80000019074,10
228,drink,./Images/drink/e2_s1.jpg,1,2,2890.80000019074,10
229,garlic_press,./Images/garlic_press/e2_s2.jpg,1,2,3307.59999990463,10
229,garlic_press,./Images/garlic_press/e1_s2.jpg,1,2,3307.59999990463,10
230,lottery_ticket,./Images/lottery_ticket/e1_s2.jpg,1,2,4519.5,10
230,lottery_ticket,./Images/lottery_ticket/e2_s1.jpg,1,2,4519.5,10
231,usb_key,./Images/usb_key/e2_s1.jpg,1,2,3063,10
231,usb_key,./Images/usb_key/e1_s2.jpg,1,2,3063,10
232,locks,./Images/locks/e1_s2.jpg,1,2,1875.70000004768,10
232,locks,./Images/locks/e2_s1.jpg,1,2,1875.70000004768,10
233,kettle,./Images/kettle/e1_s2.jpg,1,2,2195.90000009537,10
233,kettle,./Images/kettle/e2_s1.jpg,1,2,2195.90000009537,10
234,corkscrew,./Images/corkscrew/e2_s2.jpg,1,2,2466,10
234,corkscrew,./Images/corkscrew/e1_s2.jpg,1,2,2466,10
235,headphone_small,./Images/headphone_small/e2_s2.jpg,1,2,2112.5,10
235,headphone_small,./Images/headphone_small/e1_s2.jpg,1,2,2112.5,10
236,breadbox,./Images/breadbox/e1_s2.jpg,1,2,3966.29999995232,10
236,breadbox,./Images/breadbox/e2_s2.jpg,1,2,3966.29999995232,10
237,umbrella,./Images/umbrella/e1_s1.jpg,0,1,3013,10
237,umbrella,./Images/umbrella/e2_s1.jpg,1,1,3013,10
238,coffeemug,./Images/coffeemug/e2_s1.jpg,1,2,3237.20000004768,10
238,coffeemug,./Images/coffeemug/e1_s2.jpg,1,2,3237.20000004768,10
239,cabinet,./Images/cabinet/e1_s1.jpg,0,1,2128.40000009537,10
239,cabinet,./Images/cabinet/e2_s2.jpg,1,1,2128.40000009537,10
240,phone_antique,./Images/phone_antique/e2_s2.jpg,0,0,2302.30000019074,10
240,phone_antique,./Images/phone_antique/e1_s2.jpg,0,0,2302.30000019074,10
241,mixer,./Images/mixer/e2_s1.jpg,1,2,3331.29999995232,10
241,mixer,./Images/mixer/e1_s1.jpg,1,2,3331.29999995232,10
242,menorah,./Images/menorah/e2_s1.jpg,0,0,3210.69999980927,10
242,menorah,./Images/menorah/e1_s1.jpg,0,0,3210.69999980927,10
243,tool_box,./Images/tool_box/e1_s2.jpg,1,2,2198.40000009537,10
243,tool_box,./Images/tool_box/e2_s2.jpg,1,2,2198.40000009537,10
244,wallet,./Images/wallet/e2_s2.jpg,1,2,2420.09999990463,10
244,wallet,./Images/wallet/e1_s1.jpg,1,2,2420.09999990463,10
245,book,./Images/book/e1_s1.jpg,1,1,2990.80000019074,10
245,book,./Images/book/e2_s2.jpg,0,1,2990.80000019074,10
246,baseball_glove,./Images/baseball_glove/e1_s1.jpg,1,2,2561.10000014305,10
246,baseball_glove,./Images/baseball_glove/e2_s1.jpg,1,2,2561.10000014305,10
247,hand_puppet,./Images/hand_puppet/e1_s2.jpg,0,1,2219.29999995232,10
247,hand_puppet,./Images/hand_puppet/e2_s2.jpg,1,1,2219.29999995232,10
248,glass_orange,./Images/glass_orange/e2_s1.jpg,1,2,3421.89999985695,10
248,glass_orange,./Images/glass_orange/e1_s1.jpg,1,2,3421.89999985695,10
249,coins,./Images/coins/e2_s1.jpg,1,2,2886.40000009537,10
249,coins,./Images/coins/e1_s1.jpg,1,2,2886.40000009537,10
250,scanner,./Images/scanner/e1_s1.jpg,1,2,4825.89999985695,10
250,scanner,./Images/scanner/e2_s2.jpg,1,2,4825.89999985695,10
251,paper_cup,./Images/paper_cup/e1_s1.jpg,1,1,2483.60000014305,10
251,paper_cup,./Images/paper_cup/e2_s2.jpg,0,1,2483.60000014305,10
252,chapstick,./Images/chapstick/e1_s2.jpg,1,2,3538,10
252,chapstick,./Images/chapstick/e2_s1.jpg,1,2,3538,10
253,gummy,./Images/gummy/e1_s2.jpg,1,1,2176.09999990463,10
253,gummy,./Images/gummy/e2_s1.jpg,0,1,2176.09999990463,10
254,pie,./Images/pie/e2_s1.jpg,1,2,1737.79999995232,10
254,pie,./Images/pie/e1_s1.jpg,1,2,1737.79999995232,10
255,car,./Images/car/e2_s1.jpg,1,2,2428.80000019074,10
255,car,./Images/car/e1_s1.jpg,1,2,2428.80000019074,10
256,dresser,./Images/dresser/e2_s2.jpg,0,1,1722.59999990463,10
256,dresser,./Images/dresser/e1_s2.jpg,1,1,1722.59999990463,10
257,backpack,./Images/backpack/e1_s2.jpg,1,1,2213.70000004768,10
257,backpack,./Images/backpack/e2_s2.jpg,0,1,2213.70000004768,10
258,tictac,./Images/tictac/e1_s1.jpg,1,1,3275.39999985695,10
258,tictac,./Images/tictac/e2_s1.jpg,0,1,3275.39999985695,10
259,metronome,./Images/metronome/e1_s1.jpg,1,2,2181.09999990463,10
259,metronome,./Images/metronome/e2_s1.jpg,1,2,2181.09999990463,10
260,yarn,./Images/yarn/e1_s2.jpg,1,2,2435.60000014305,10
260,yarn,./Images/yarn/e2_s2.jpg,1,2,2435.60000014305,10
261,lemon,./Images/lemon/e1_s1.jpg,1,1,1764.89999985695,10
261,lemon,./Images/lemon/e2_s1.jpg,0,1,1764.89999985695,10
262,sugar_bowl,./Images/sugar_bowl/e1_s1.jpg,0,1,2448,10
262,sugar_bowl,./Images/sugar_bowl/e2_s1.jpg,1,1,2448,10
263,soap,./Images/soap/e2_s2.jpg,1,2,4126.90000009537,10
263,soap,./Images/soap/e1_s1.jpg,1,2,4126.90000009537,10
264,small_box,./Images/small_box/e1_s2.jpg,0,1,2060,10
264,small_box,./Images/small_box/e2_s2.jpg,1,1,2060,10
265,mustard,./Images/mustard/e1_s2.jpg,1,1,3197.39999985695,10
265,mustard,./Images/mustard/e2_s2.jpg,0,1,3197.39999985695,10
266,lotion,./Images/lotion/e2_s2.jpg,0,1,4020.79999995232,10
266,lotion,./Images/lotion/e1_s2.jpg,1,1,4020.79999995232,10
267,menus,./Images/menus/e2_s2.jpg,0,1,3220.89999985695,10
267,menus,./Images/menus/e1_s2.jpg,1,1,3220.89999985695,10
268,toilet,./Images/toilet/e2_s2.jpg,1,1,3600.79999995232,10
268,toilet,./Images/toilet/e1_s2.jpg,0,1,3600.79999995232,10
269,theater_seats,./Images/theater_seats/e1_s1.jpg,1,1,2216.90000009537,10
269,theater_seats,./Images/theater_seats/e2_s1.jpg,0,1,2216.90000009537,10
270,dryer,./Images/dryer/e2_s2.jpg,1,2,3162.90000009537,10
270,dryer,./Images/dryer/e1_s1.jpg,1,2,3162.90000009537,10
271,book_object,./Images/book_object/e2_s1.jpg,1,2,2866.30000019074,10
271,book_object,./Images/book_object/e1_s1.jpg,1,2,2866.30000019074,10
272,bottle_perfume,./Images/bottle_perfume/e1_s1.jpg,1,2,2248.59999990463,10
272,bottle_perfume,./Images/bottle_perfume/e2_s2.jpg,1,2,2248.59999990463,10
273,oj,./Images/oj/e1_s2.jpg,1,1,2583.79999995232,10
273,oj,./Images/oj/e2_s2.jpg,0,1,2583.79999995232,10
274,shoe,./Images/shoe/e2_s1.jpg,1,2,2675.10000014305,10
274,shoe,./Images/shoe/e1_s1.jpg,1,2,2675.10000014305,10
275,cell,./Images/cell/e1_s1.jpg,1,2,3890.59999990463,10
275,cell,./Images/cell/e2_s2.jpg,1,2,3890.59999990463,10
276,donut,./Images/donut/e1_s2.jpg,1,2,2073,10
276,donut,./Images/donut/e2_s1.jpg,1,2,2073,10
277,cocktail_umbrella,./Images/cocktail_umbrella/e2_s2.jpg,1,1,2228.29999995232,10
277,cocktail_umbrella,./Images/cocktail_umbrella/e1_s1.jpg,0,1,2228.29999995232,10
278,watch,./Images/watch/e2_s2.jpg,0,1,3988.39999985695,10
278,watch,./Images/watch/e1_s1.jpg,1,1,3988.39999985695,10
279,keys,./Images/keys/e1_s2.jpg,1,2,2241.40000009537,10
279,keys,./Images/keys/e2_s1.jpg,1,2,2241.40000009537,10
280,tricycle,./Images/tricycle/e2_s1.jpg,0,0,1834.70000004768,10
280,tricycle,./Images/tricycle/e1_s2.jpg,0,0,1834.70000004768,10
281,microwave,./Images/microwave/e2_s1.jpg,1,1,3526.79999995232,10
281,microwave,./Images/microwave/e1_s2.jpg,0,1,3526.79999995232,10
282,canopener,./Images/canopener/e2_s2.jpg,1,1,2302.40000009537,10
282,canopener,./Images/canopener/e1_s2.jpg,0,1,2302.40000009537,10
283,container_open,./Images/container_open/e1_s2.jpg,1,1,1621.29999995232,10
283,container_open,./Images/container_open/e2_s1.jpg,0,1,1621.29999995232,10
284,tea_pot,./Images/tea_pot/e1_s1.jpg,0,0,1861.09999990463,10
284,tea_pot,./Images/tea_pot/e2_s1.jpg,0,0,1861.09999990463,10
285,chair_recliner,./Images/chair_recliner/e2_s2.jpg,1,1,2047.5,10
285,chair_recliner,./Images/chair_recliner/e1_s2.jpg,0,1,2047.5,10
286,tissues,./Images/tissues/e1_s2.jpg,1,1,1650.30000019073,10
286,tissues,./Images/tissues/e2_s2.jpg,0,1,1650.30000019073,10
287,peanut_butter,./Images/peanut_butter/e1_s2.jpg,1,2,2934.5,10
287,peanut_butter,./Images/peanut_butter/e2_s1.jpg,1,2,2934.5,10
288,sharpie_pens,./Images/sharpie_pens/e1_s2.jpg,0,1,1983.40000009537,10
288,sharpie_pens,./Images/sharpie_pens/e2_s2.jpg,1,1,1983.40000009537,10
289,flask,./Images/flask/e2_s2.jpg,0,0,1241,10
289,flask,./Images/flask/e1_s1.jpg,0,0,1241,10
290,pail,./Images/pail/e1_s1.jpg,1,2,1932.29999995232,10
290,pail,./Images/pail/e2_s1.jpg,1,2,1932.29999995232,10
291,file_folder,./Images/file_folder/e1_s2.jpg,1,1,3046.5,10
291,file_folder,./Images/file_folder/e2_s1.jpg,0,1,3046.5,10
292,phone,./Images/phone/e1_s2.jpg,0,1,3132.60000014305,10
292,phone,./Images/phone/e2_s1.jpg,1,1,3132.60000014305,10
293,chocolate,./Images/chocolate/e1_s2.jpg,1,2,2497.20000004768,10
293,chocolate,./Images/chocolate/e2_s2.jpg,1,2,2497.20000004768,10
294,sugar_paper,./Images/sugar_paper/e2_s2.jpg,0,1,2032.5,10
294,sugar_paper,./Images/sugar_paper/e1_s2.jpg,1,1,2032.5,10
295,typewriter,./Images/typewriter/e2_s2.jpg,0,0,2158.29999995232,10
295,typewriter,./Images/typewriter/e1_s2.jpg,0,0,2158.29999995232,10
296,cereal,./Images/cereal/e2_s2.jpg,1,1,1972.90000009537,10
296,cereal,./Images/cereal/e1_s1.jpg,0,1,1972.90000009537,10
297,fridge,./Images/fridge/e2_s2.jpg,1,2,2345.5,10
297,fridge,./Images/fridge/e1_s1.jpg,1,2,2345.5,10
298,altoid,./Images/altoid/e1_s2.jpg,1,1,2212.39999985695,10
298,altoid,./Images/altoid/e2_s2.jpg,0,1,2212.39999985695,10
299,sponge,./Images/sponge/e1_s2.jpg,1,1,1918.79999995232,10
299,sponge,./Images/sponge/e2_s2.jpg,0,1,1918.79999995232,10
300,notebook,./Images/notebook/e1_s2.jpg,0,1,2503,10
300,notebook,./Images/notebook/e2_s1.jpg,1,1,2503,10
301,cabbage,./Images/cabbage/e2_s1.jpg,1,2,3098.10000014305,10
301,cabbage,./Images/cabbage/e1_s1.jpg,1,2,3098.10000014305,10
302,poker_chips,./Images/poker_chips/e1_s2.jpg,1,2,2182.5,10
302,poker_chips,./Images/poker_chips/e2_s2.jpg,1,2,2182.5,10
303,scissors,./Images/scissors/e2_s2.jpg,0,1,1670.5,10
303,scissors,./Images/scissors/e1_s1.jpg,1,1,1670.5,10
304,tape_dispenser,./Images/tape_dispenser/e1_s2.jpg,0,0,4357.10000014305,10
304,tape_dispenser,./Images/tape_dispenser/e2_s1.jpg,0,0,4357.10000014305,10
305,chip,./Images/chip/e1_s1.jpg,1,2,2352.39999985695,10
305,chip,./Images/chip/e2_s1.jpg,1,2,2352.39999985695,10
206,fridge,./Images/fridge/e2_s2.jpg,1,2,4300.70000004768,35
206,fridge,./Images/fridge/e1_s1.jpg,1,2,4300.70000004768,35
207,file_folder,./Images/file_folder/e2_s1.jpg,1,2,5400,35
207,file_folder,./Images/file_folder/e1_s2.jpg,1,2,5400,35
208,metronome,./Images/metronome/e1_s2.jpg,0,0,8380.69999998808,35
208,metronome,./Images/metronome/e2_s1.jpg,0,0,8380.69999998808,35
209,tricycle,./Images/tricycle/e2_s2.jpg,0,1,6310.39999997616,35
209,tricycle,./Images/tricycle/e1_s1.jpg,1,1,6310.39999997616,35
210,lottery_ticket,./Images/lottery_ticket/e1_s1.jpg,0,0,12303.9000000358,35
210,lottery_ticket,./Images/lottery_ticket/e2_s2.jpg,0,0,12303.9000000358,35
211,scanner,./Images/scanner/e1_s2.jpg,1,2,3534.5,35
211,scanner,./Images/scanner/e2_s1.jpg,1,2,3534.5,35
212,bottle_perfume,./Images/bottle_perfume/e1_s2.jpg,1,2,5553.39999997616,35
212,bottle_perfume,./Images/bottle_perfume/e2_s1.jpg,1,2,5553.39999997616,35
213,lemon,./Images/lemon/e1_s1.jpg,1,2,5004.89999997616,35
213,lemon,./Images/lemon/e2_s2.jpg,1,2,5004.89999997616,35
214,book,./Images/book/e1_s2.jpg,1,2,12657.1999999881,35
214,book,./Images/book/e2_s1.jpg,1,2,12657.1999999881,35
215,chair_recliner,./Images/chair_recliner/e2_s2.jpg,1,2,4846.80000001192,35
215,chair_recliner,./Images/chair_recliner/e1_s1.jpg,1,2,4846.80000001192,35
216,umbrella,./Images/umbrella/e2_s2.jpg,1,2,5604.69999998808,35
216,umbrella,./Images/umbrella/e1_s1.jpg,1,2,5604.69999998808,35
217,altoid,./Images/altoid/e2_s2.jpg,1,2,5651.5,35
217,altoid,./Images/altoid/e1_s2.jpg,1,2,5651.5,35
218,watch,./Images/watch/e2_s1.jpg,0,1,18321,35
218,watch,./Images/watch/e1_s2.jpg,1,1,18321,35
219,drink,./Images/drink/e1_s1.jpg,0,1,8698.40000003576,35
219,drink,./Images/drink/e2_s2.jpg,1,1,8698.40000003576,35
220,lotion,./Images/lotion/e2_s2.jpg,0,0,4930,35
220,lotion,./Images/lotion/e1_s1.jpg,0,0,4930,35
221,wallet,./Images/wallet/e1_s2.jpg,1,2,5815,35
221,wallet,./Images/wallet/e2_s2.jpg,1,2,5815,35
222,leather_bag,./Images/leather_bag/e1_s2.jpg,0,0,14622.5,35
222,leather_bag,./Images/leather_bag/e2_s1.jpg,0,0,14622.5,35
223,phone,./Images/phone/e2_s1.jpg,1,1,13600.1000000238,35
223,phone,./Images/phone/e1_s2.jpg,0,1,13600.1000000238,35
224,corkscrew,./Images/corkscrew/e1_s2.jpg,0,1,7603.19999998808,35
224,corkscrew,./Images/corkscrew/e2_s1.jpg,1,1,7603.19999998808,35
225,accordion,./Images/accordion/e2_s2.jpg,1,1,8977.19999998808,35
225,accordion,./Images/accordion/e1_s1.jpg,0,1,8977.19999998808,35
226,chocolate,./Images/chocolate/e2_s1.jpg,1,2,4536.39999997616,35
226,chocolate,./Images/chocolate/e1_s2.jpg,1,2,4536.39999997616,35
227,locks,./Images/locks/e2_s2.jpg,1,2,8417.90000003576,35
227,locks,./Images/locks/e1_s1.jpg,1,2,8417.90000003576,35
228,menus,./Images/menus/e1_s1.jpg,1,1,5980,35
228,menus,./Images/menus/e2_s2.jpg,0,1,5980,35
229,file_box,./Images/file_box/e2_s2.jpg,1,2,10386,35
229,file_box,./Images/file_box/e1_s1.jpg,1,2,10386,35
230,phone_antique,./Images/phone_antique/e2_s1.jpg,1,1,12052.4000000358,35
230,phone_antique,./Images/phone_antique/e1_s1.jpg,0,1,12052.4000000358,35
231,garlic_press,./Images/garlic_press/e1_s1.jpg,1,2,13114.3999999762,35
231,garlic_press,./Images/garlic_press/e2_s1.jpg,1,2,13114.3999999762,35
232,cabbage,./Images/cabbage/e2_s2.jpg,1,2,11007.2000000477,35
232,cabbage,./Images/cabbage/e1_s2.jpg,1,2,11007.2000000477,35
233,notebook,./Images/notebook/e2_s1.jpg,0,1,14527,35
233,notebook,./Images/notebook/e1_s2.jpg,1,1,14527,35
234,plastic_bottle,./Images/plastic_bottle/e2_s1.jpg,1,1,19113,35
234,plastic_bottle,./Images/plastic_bottle/e1_s1.jpg,0,1,19113,35
235,cereal,./Images/cereal/e1_s1.jpg,1,2,3837.80000001192,35
235,cereal,./Images/cereal/e2_s1.jpg,1,2,3837.80000001192,35
236,cookie,./Images/cookie/e2_s1.jpg,1,2,5298.89999997616,35
236,cookie,./Images/cookie/e1_s1.jpg,1,2,5298.89999997616,35
237,tape_dispenser,./Images/tape_dispenser/e2_s2.jpg,0,1,5541.39999997616,35
237,tape_dispenser,./Images/tape_dispenser/e1_s2.jpg,1,1,5541.39999997616,35
238,small_box,./Images/small_box/e1_s1.jpg,1,1,7474.30000001192,35
238,small_box,./Images/small_box/e2_s1.jpg,0,1,7474.30000001192,35
239,bills,./Images/bills/e2_s2.jpg,1,2,2203,35
239,bills,./Images/bills/e1_s2.jpg,1,2,2203,35
240,aabacus,./Images/aabacus/e1_s2.jpg,1,2,5479.5,35
240,aabacus,./Images/aabacus/e2_s2.jpg,1,2,5479.5,35
241,glass_orange,./Images/glass_orange/e1_s2.jpg,1,1,8365.90000003576,35
241,glass_orange,./Images/glass_orange/e2_s2.jpg,0,1,8365.90000003576,35
242,hourglass,./Images/hourglass/e1_s1.jpg,0,1,7235.10000002384,35
242,hourglass,./Images/hourglass/e2_s1.jpg,1,1,7235.10000002384,35
243,hand_puppet,./Images/hand_puppet/e1_s1.jpg,1,1,4583.60000002384,35
243,hand_puppet,./Images/hand_puppet/e2_s1.jpg,0,1,4583.60000002384,35
244,cardbox,./Images/cardbox/e1_s1.jpg,0,0,7595.89999997616,35
244,cardbox,./Images/cardbox/e2_s1.jpg,0,0,7595.89999997616,35
245,tissues,./Images/tissues/e1_s1.jpg,1,2,2007.60000002384,35
245,tissues,./Images/tissues/e2_s1.jpg,1,2,2007.60000002384,35
246,tool_box,./Images/tool_box/e1_s1.jpg,1,2,3989.80000001192,35
246,tool_box,./Images/tool_box/e2_s2.jpg,1,2,3989.80000001192,35
247,yarn,./Images/yarn/e1_s1.jpg,1,1,3178.89999997616,35
247,yarn,./Images/yarn/e2_s2.jpg,0,1,3178.89999997616,35
248,reeses,./Images/reeses/e2_s1.jpg,1,2,3156.30000001192,35
248,reeses,./Images/reeses/e1_s1.jpg,1,2,3156.30000001192,35
249,paper_cup,./Images/paper_cup/e2_s1.jpg,1,2,2417.40000003576,35
249,paper_cup,./Images/paper_cup/e1_s1.jpg,1,2,2417.40000003576,35
250,soap,./Images/soap/e1_s2.jpg,1,2,4058.19999998808,35
250,soap,./Images/soap/e2_s2.jpg,1,2,4058.19999998808,35
251,sharpie_pens,./Images/sharpie_pens/e1_s1.jpg,0,1,11510.8000000119,35
251,sharpie_pens,./Images/sharpie_pens/e2_s1.jpg,1,1,11510.8000000119,35
252,coins,./Images/coins/e2_s1.jpg,1,2,16557.1999999881,35
252,coins,./Images/coins/e1_s2.jpg,1,2,16557.1999999881,35
253,laptop,./Images/laptop/e1_s1.jpg,0,1,8473.30000001192,35
253,laptop,./Images/laptop/e2_s1.jpg,1,1,8473.30000001192,35
254,flask,./Images/flask/e2_s2.jpg,1,2,7260.89999997616,35
254,flask,./Images/flask/e1_s2.jpg,1,2,7260.89999997616,35
255,container_open,./Images/container_open/e1_s1.jpg,1,2,6233.5,35
255,container_open,./Images/container_open/e2_s1.jpg,1,2,6233.5,35
256,toilet,./Images/toilet/e2_s1.jpg,0,0,12354.5,35
256,toilet,./Images/toilet/e1_s2.jpg,0,0,12354.5,35
257,chapstick,./Images/chapstick/e1_s1.jpg,1,2,20119.4000000358,35
257,chapstick,./Images/chapstick/e2_s2.jpg,1,2,20119.4000000358,35
258,cocktail_umbrella,./Images/cocktail_umbrella/e2_s2.jpg,0,1,7430.39999997616,35
258,cocktail_umbrella,./Images/cocktail_umbrella/e1_s2.jpg,1,1,7430.39999997616,35
259,lunchbox,./Images/lunchbox/e1_s1.jpg,1,2,10839.6000000238,35
259,lunchbox,./Images/lunchbox/e2_s1.jpg,1,2,10839.6000000238,35
260,sponge,./Images/sponge/e1_s1.jpg,0,0,5912.79999995232,35
260,sponge,./Images/sponge/e2_s1.jpg,0,0,5912.79999995232,35
261,tictac,./Images/tictac/e1_s1.jpg,1,1,4369.39999997616,35
261,tictac,./Images/tictac/e2_s1.jpg,0,1,4369.39999997616,35
262,shoe,./Images/shoe/e2_s1.jpg,0,0,9549.5,35
262,shoe,./Images/shoe/e1_s2.jpg,0,0,9549.5,35
263,menorah,./Images/menorah/e1_s1.jpg,1,2,9152.5,35
263,menorah,./Images/menorah/e2_s2.jpg,1,2,9152.5,35
264,kettle,./Images/kettle/e2_s1.jpg,1,2,24562.1999999881,35
264,kettle,./Images/kettle/e1_s1.jpg,1,2,24562.1999999881,35
265,keys,./Images/keys/e1_s1.jpg,0,1,3932.79999995232,35
265,keys,./Images/keys/e2_s1.jpg,1,1,3932.79999995232,35
266,clocks,./Images/clocks/e2_s2.jpg,1,1,7143,35
266,clocks,./Images/clocks/e1_s2.jpg,0,1,7143,35
267,cell,./Images/cell/e1_s2.jpg,1,2,3984.5,35
267,cell,./Images/cell/e2_s2.jpg,1,2,3984.5,35
268,gift_box,./Images/gift_box/e1_s1.jpg,1,2,3456.80000001192,35
268,gift_box,./Images/gift_box/e2_s1.jpg,1,2,3456.80000001192,35
269,scissors,./Images/scissors/e1_s1.jpg,1,2,4862.40000003576,35
269,scissors,./Images/scissors/e2_s1.jpg,1,2,4862.40000003576,35
270,backpack,./Images/backpack/e2_s1.jpg,1,1,4887.80000001192,35
270,backpack,./Images/backpack/e1_s1.jpg,0,1,4887.80000001192,35
271,cabinet,./Images/cabinet/e2_s1.jpg,1,1,4687.19999998808,35
271,cabinet,./Images/cabinet/e1_s1.jpg,0,1,4687.19999998808,35
272,pen,./Images/pen/e1_s2.jpg,1,2,6963,35
272,pen,./Images/pen/e2_s2.jpg,1,2,6963,35
273,pie,./Images/pie/e2_s2.jpg,1,2,7028,35
273,pie,./Images/pie/e1_s1.jpg,1,2,7028,35
274,headphone_small,./Images/headphone_small/e1_s1.jpg,1,2,12526.6000000238,35
274,headphone_small,./Images/headphone_small/e2_s2.jpg,1,2,12526.6000000238,35
275,microwave,./Images/microwave/e1_s1.jpg,0,0,5025.5,35
275,microwave,./Images/microwave/e2_s1.jpg,0,0,5025.5,35
276,chips,./Images/chips/e2_s1.jpg,1,2,3024,35
276,chips,./Images/chips/e1_s1.jpg,1,2,3024,35
277,sugar_bowl,./Images/sugar_bowl/e2_s1.jpg,0,1,8569.19999998808,35
277,sugar_bowl,./Images/sugar_bowl/e1_s1.jpg,1,1,8569.19999998808,35
278,cooking_pot,./Images/cooking_pot/e2_s1.jpg,1,2,4189.79999995232,35
278,cooking_pot,./Images/cooking_pot/e1_s1.jpg,1,2,4189.79999995232,35
279,mustard,./Images/mustard/e1_s2.jpg,1,2,5558.69999998808,35
279,mustard,./Images/mustard/e2_s2.jpg,1,2,5558.69999998808,35
280,chip,./Images/chip/e1_s1.jpg,1,2,2851.19999998808,35
280,chip,./Images/chip/e2_s1.jpg,1,2,2851.19999998808,35
281,pail,./Images/pail/e2_s2.jpg,0,0,14321.8000000119,35
281,pail,./Images/pail/e1_s1.jpg,0,0,14321.8000000119,35
282,usb_key,./Images/usb_key/e1_s2.jpg,1,2,6828,35
282,usb_key,./Images/usb_key/e2_s2.jpg,1,2,6828,35
283,mixer,./Images/mixer/e1_s2.jpg,0,0,7757.79999995232,35
283,mixer,./Images/mixer/e2_s1.jpg,0,0,7757.79999995232,35
284,theater_seats,./Images/theater_seats/e2_s2.jpg,0,1,4417.09999996424,35
284,theater_seats,./Images/theater_seats/e1_s2.jpg,1,1,4417.09999996424,35
285,baseball_glove,./Images/baseball_glove/e2_s2.jpg,1,2,6469.5,35
285,baseball_glove,./Images/baseball_glove/e1_s1.jpg,1,2,6469.5,35
286,book_object,./Images/book_object/e2_s2.jpg,1,2,3541.59999996424,35
286,book_object,./Images/book_object/e1_s2.jpg,1,2,3541.59999996424,35
287,apple,./Images/apple/e2_s1.jpg,1,2,2128.10000002384,35
287,apple,./Images/apple/e1_s1.jpg,1,2,2128.10000002384,35
288,mailbox,./Images/mailbox/e1_s2.jpg,1,2,3350.79999995232,35
288,mailbox,./Images/mailbox/e2_s2.jpg,1,2,3350.79999995232,35
289,peanut_butter,./Images/peanut_butter/e1_s2.jpg,1,2,28684,35
289,peanut_butter,./Images/peanut_butter/e2_s1.jpg,1,2,28684,35
290,gummy,./Images/gummy/e1_s1.jpg,1,1,2317.5,35
290,gummy,./Images/gummy/e2_s1.jpg,0,1,2317.5,35
291,typewriter,./Images/typewriter/e2_s1.jpg,0,1,16620.7999999523,35
291,typewriter,./Images/typewriter/e1_s2.jpg,1,1,16620.7999999523,35
292,dryer,./Images/dryer/e1_s1.jpg,0,1,20538,35
292,dryer,./Images/dryer/e2_s1.jpg,1,1,20538,35
293,coffeemug,./Images/coffeemug/e1_s2.jpg,1,2,7143.80000001192,35
293,coffeemug,./Images/coffeemug/e2_s2.jpg,1,2,7143.80000001192,35
294,tea_pot,./Images/tea_pot/e2_s1.jpg,0,0,32726.6000000238,35
294,tea_pot,./Images/tea_pot/e1_s1.jpg,0,0,32726.6000000238,35
295,canopener,./Images/canopener/e1_s1.jpg,0,1,10287.5,35
295,canopener,./Images/canopener/e2_s2.jpg,1,1,10287.5,35
296,oj,./Images/oj/e2_s1.jpg,1,2,24465.8999999762,35
296,oj,./Images/oj/e1_s2.jpg,1,2,24465.8999999762,35
297,dresser,./Images/dresser/e1_s1.jpg,1,1,4949.10000002384,35
297,dresser,./Images/dresser/e2_s1.jpg,0,1,4949.10000002384,35
298,donut,./Images/donut/e1_s2.jpg,1,2,3481.5,35
298,donut,./Images/donut/e2_s2.jpg,1,2,3481.5,35
299,bottle_liquid,./Images/bottle_liquid/e2_s2.jpg,1,2,3713.19999998808,35
299,bottle_liquid,./Images/bottle_liquid/e1_s2.jpg,1,2,3713.19999998808,35
300,toy_truck,./Images/toy_truck/e2_s1.jpg,1,2,8610.79999995232,35
300,toy_truck,./Images/toy_truck/e1_s1.jpg,1,2,8610.79999995232,35
301,chocolate_bar,./Images/chocolate_bar/e1_s1.jpg,1,2,3344.5,35
301,chocolate_bar,./Images/chocolate_bar/e2_s1.jpg,1,2,3344.5,35
302,sugar_paper,./Images/sugar_paper/e2_s1.jpg,1,1,5210.90000003576,35
302,sugar_paper,./Images/sugar_paper/e1_s1.jpg,0,1,5210.90000003576,35
303,breadbox,./Images/breadbox/e1_s1.jpg,1,2,2669.10000002384,35
303,breadbox,./Images/breadbox/e2_s1.jpg,1,2,2669.10000002384,35
304,poker_chips,./Images/poker_chips/e2_s2.jpg,0,1,7214.30000001192,35
304,poker_chips,./Images/poker_chips/e1_s2.jpg,1,1,7214.30000001192,35
305,car,./Images/car/e2_s1.jpg,1,2,2376,35
305,car,./Images/car/e1_s1.jpg,1,2,2376,35
206,baseball_glove,./Images/baseball_glove/e2_s2.jpg,1,1,3795.99999999994,6
206,baseball_glove,./Images/baseball_glove/e1_s1.jpg,0,1,3795.99999999994,6
207,container_open,./Images/container_open/e1_s1.jpg,1,2,3450,6
207,container_open,./Images/container_open/e2_s2.jpg,1,2,3450,6
208,coffeemug,./Images/coffeemug/e2_s1.jpg,1,1,4450,6
208,coffeemug,./Images/coffeemug/e1_s2.jpg,0,1,4450,6
209,theater_seats,./Images/theater_seats/e2_s1.jpg,1,2,4769.99999999994,6
209,theater_seats,./Images/theater_seats/e1_s2.jpg,1,2,4769.99999999994,6
210,file_box,./Images/file_box/e1_s1.jpg,1,2,2671,6
210,file_box,./Images/file_box/e2_s1.jpg,1,2,2671,6
211,glass_orange,./Images/glass_orange/e1_s2.jpg,1,2,5569,6
211,glass_orange,./Images/glass_orange/e2_s1.jpg,1,2,5569,6
212,gift_box,./Images/gift_box/e1_s2.jpg,1,2,6521,6
212,gift_box,./Images/gift_box/e2_s1.jpg,1,2,6521,6
213,gummy,./Images/gummy/e1_s2.jpg,1,1,2751,6
213,gummy,./Images/gummy/e2_s1.jpg,0,1,2751,6
214,toy_truck,./Images/toy_truck/e1_s1.jpg,0,1,2806,6
214,toy_truck,./Images/toy_truck/e2_s2.jpg,1,1,2806,6
215,lemon,./Images/lemon/e1_s2.jpg,1,2,3517,6
215,lemon,./Images/lemon/e2_s1.jpg,1,2,3517,6
216,sugar_paper,./Images/sugar_paper/e2_s1.jpg,1,1,2455.00000000006,6
216,sugar_paper,./Images/sugar_paper/e1_s2.jpg,0,1,2455.00000000006,6
217,reeses,./Images/reeses/e2_s2.jpg,0,1,4819.99999999994,6
217,reeses,./Images/reeses/e1_s2.jpg,1,1,4819.99999999994,6
218,phone,./Images/phone/e1_s2.jpg,1,2,2400,6
218,phone,./Images/phone/e2_s1.jpg,1,2,2400,6
219,notebook,./Images/notebook/e1_s1.jpg,1,2,2490.00000000006,6
219,notebook,./Images/notebook/e2_s2.jpg,1,2,2490.00000000006,6
220,book_object,./Images/book_object/e2_s2.jpg,1,2,4467.00000000006,6
220,book_object,./Images/book_object/e1_s1.jpg,1,2,4467.00000000006,6
221,cabinet,./Images/cabinet/e1_s2.jpg,1,2,2504,6
221,cabinet,./Images/cabinet/e2_s1.jpg,1,2,2504,6
222,apple,./Images/apple/e1_s1.jpg,1,2,2420,6
222,apple,./Images/apple/e2_s2.jpg,1,2,2420,6
223,menorah,./Images/menorah/e2_s2.jpg,1,2,3772,6
223,menorah,./Images/menorah/e1_s2.jpg,1,2,3772,6
224,laptop,./Images/laptop/e2_s1.jpg,0,0,2536,6
224,laptop,./Images/laptop/e1_s2.jpg,0,0,2536,6
225,tea_pot,./Images/tea_pot/e1_s1.jpg,1,2,2419.99999999994,6
225,tea_pot,./Images/tea_pot/e2_s1.jpg,1,2,2419.99999999994,6
226,flask,./Images/flask/e2_s2.jpg,1,2,2654,6
226,flask,./Images/flask/e1_s1.jpg,1,2,2654,6
227,watch,./Images/watch/e1_s2.jpg,0,0,3337,6
227,watch,./Images/watch/e2_s1.jpg,0,0,3337,6
228,dresser,./Images/dresser/e2_s1.jpg,0,1,2337,6
228,dresser,./Images/dresser/e1_s2.jpg,1,1,2337,6
229,bills,./Images/bills/e2_s2.jpg,1,2,1990,6
229,bills,./Images/bills/e1_s1.jpg,1,2,1990,6
230,cooking_pot,./Images/cooking_pot/e2_s1.jpg,0,1,3386.00000000006,6
230,cooking_pot,./Images/cooking_pot/e1_s2.jpg,1,1,3386.00000000006,6
231,cell,./Images/cell/e1_s2.jpg,1,2,2486,6
231,cell,./Images/cell/e2_s2.jpg,1,2,2486,6
232,scanner,./Images/scanner/e2_s2.jpg,1,2,3238,6
232,scanner,./Images/scanner/e1_s1.jpg,1,2,3238,6
233,metronome,./Images/metronome/e1_s1.jpg,1,2,2687.00000000012,6
233,metronome,./Images/metronome/e2_s2.jpg,1,2,2687.00000000012,6
234,chocolate_bar,./Images/chocolate_bar/e1_s1.jpg,0,1,3569,6
234,chocolate_bar,./Images/chocolate_bar/e2_s1.jpg,1,1,3569,6
235,umbrella,./Images/umbrella/e1_s2.jpg,1,1,2353,6
235,umbrella,./Images/umbrella/e2_s1.jpg,0,1,2353,6
236,chip,./Images/chip/e1_s1.jpg,1,2,1754,6
236,chip,./Images/chip/e2_s1.jpg,1,2,1754,6
237,oj,./Images/oj/e2_s2.jpg,0,0,2372.00000000012,6
237,oj,./Images/oj/e1_s1.jpg,0,0,2372.00000000012,6
238,backpack,./Images/backpack/e1_s1.jpg,1,2,3353.99999999988,6
238,backpack,./Images/backpack/e2_s2.jpg,1,2,3353.99999999988,6
239,leather_bag,./Images/leather_bag/e2_s1.jpg,0,0,3522.00000000012,6
239,leather_bag,./Images/leather_bag/e1_s2.jpg,0,0,3522.00000000012,6
240,small_box,./Images/small_box/e2_s1.jpg,0,1,2522,6
240,small_box,./Images/small_box/e1_s2.jpg,1,1,2522,6
241,shoe,./Images/shoe/e1_s2.jpg,0,1,2385,6
241,shoe,./Images/shoe/e2_s2.jpg,1,1,2385,6
242,sponge,./Images/sponge/e2_s2.jpg,0,0,2438,6
242,sponge,./Images/sponge/e1_s1.jpg,0,0,2438,6
243,wallet,./Images/wallet/e1_s1.jpg,1,2,2104,6
243,wallet,./Images/wallet/e2_s1.jpg,1,2,2104,6
244,chips,./Images/chips/e1_s2.jpg,1,2,2686,6
244,chips,./Images/chips/e2_s1.jpg,1,2,2686,6
245,tissues,./Images/tissues/e1_s2.jpg,0,0,2521,6
245,tissues,./Images/tissues/e2_s1.jpg,0,0,2521,6
246,drink,./Images/drink/e2_s2.jpg,0,0,1955.00000000012,6
246,drink,./Images/drink/e1_s1.jpg,0,0,1955.00000000012,6
247,locks,./Images/locks/e2_s1.jpg,1,2,1738,6
247,locks,./Images/locks/e1_s1.jpg,1,2,1738,6
248,pen,./Images/pen/e1_s2.jpg,1,2,1857,6
248,pen,./Images/pen/e2_s2.jpg,1,2,1857,6
249,kettle,./Images/kettle/e2_s2.jpg,0,0,1972,6
249,kettle,./Images/kettle/e1_s2.jpg,0,0,1972,6
250,poker_chips,./Images/poker_chips/e2_s2.jpg,1,2,1905,6
250,poker_chips,./Images/poker_chips/e1_s1.jpg,1,2,1905,6
251,aabacus,./Images/aabacus/e2_s1.jpg,1,2,2354,6
251,aabacus,./Images/aabacus/e1_s1.jpg,1,2,2354,6
252,coins,./Images/coins/e1_s2.jpg,1,2,1587,6
252,coins,./Images/coins/e2_s2.jpg,1,2,1587,6
253,soap,./Images/soap/e2_s2.jpg,0,1,2341,6
253,soap,./Images/soap/e1_s1.jpg,1,1,2341,6
254,fridge,./Images/fridge/e2_s1.jpg,1,2,1803.00000000012,6
254,fridge,./Images/fridge/e1_s1.jpg,1,2,1803.00000000012,6
255,cabbage,./Images/cabbage/e1_s1.jpg,1,2,1585.00000000012,6
255,cabbage,./Images/cabbage/e2_s1.jpg,1,2,1585.00000000012,6
256,hourglass,./Images/hourglass/e1_s2.jpg,1,2,2018,6
256,hourglass,./Images/hourglass/e2_s2.jpg,1,2,2018,6
257,cookie,./Images/cookie/e2_s1.jpg,1,2,1637,6
257,cookie,./Images/cookie/e1_s1.jpg,1,2,1637,6
258,chocolate,./Images/chocolate/e1_s2.jpg,1,2,3438,6
258,chocolate,./Images/chocolate/e2_s2.jpg,1,2,3438,6
259,clocks,./Images/clocks/e2_s2.jpg,1,2,2636,6
259,clocks,./Images/clocks/e1_s2.jpg,1,2,2636,6
260,plastic_bottle,./Images/plastic_bottle/e2_s1.jpg,0,0,3572,6
260,plastic_bottle,./Images/plastic_bottle/e1_s1.jpg,0,0,3572,6
261,dryer,./Images/dryer/e2_s2.jpg,1,1,3169,6
261,dryer,./Images/dryer/e1_s1.jpg,0,1,3169,6
262,tictac,./Images/tictac/e2_s1.jpg,1,1,1455,6
262,tictac,./Images/tictac/e1_s1.jpg,0,1,1455,6
263,car,./Images/car/e1_s1.jpg,0,1,2073,6
263,car,./Images/car/e2_s2.jpg,1,1,2073,6
264,pail,./Images/pail/e1_s2.jpg,0,0,2287,6
264,pail,./Images/pail/e2_s2.jpg,0,0,2287,6
265,chair_recliner,./Images/chair_recliner/e2_s2.jpg,1,1,1724,6
265,chair_recliner,./Images/chair_recliner/e1_s2.jpg,0,1,1724,6
266,peanut_butter,./Images/peanut_butter/e2_s1.jpg,1,1,1903,6
266,peanut_butter,./Images/peanut_butter/e1_s1.jpg,0,1,1903,6
267,cardbox,./Images/cardbox/e2_s1.jpg,1,1,1920,6
267,cardbox,./Images/cardbox/e1_s1.jpg,0,1,1920,6
268,breadbox,./Images/breadbox/e1_s1.jpg,1,2,2437,6
268,breadbox,./Images/breadbox/e2_s2.jpg,1,2,2437,6
269,paper_cup,./Images/paper_cup/e1_s1.jpg,1,2,1519.99999999988,6
269,paper_cup,./Images/paper_cup/e2_s1.jpg,1,2,1519.99999999988,6
270,cereal,./Images/cereal/e2_s2.jpg,1,2,1870,6
270,cereal,./Images/cereal/e1_s2.jpg,1,2,1870,6
271,usb_key,./Images/usb_key/e2_s2.jpg,1,1,1737.99999999988,6
271,usb_key,./Images/usb_key/e1_s1.jpg,0,1,1737.99999999988,6
272,hand_puppet,./Images/hand_puppet/e1_s1.jpg,0,1,2455,6
272,hand_puppet,./Images/hand_puppet/e2_s1.jpg,1,1,2455,6
273,mustard,./Images/mustard/e1_s1.jpg,0,0,2422,6
273,mustard,./Images/mustard/e2_s1.jpg,0,0,2422,6
274,toilet,./Images/toilet/e1_s2.jpg,0,0,2053,6
274,toilet,./Images/toilet/e2_s1.jpg,0,0,2053,6
275,keys,./Images/keys/e1_s2.jpg,0,1,1539,6
275,keys,./Images/keys/e2_s1.jpg,1,1,1539,6
276,lunchbox,./Images/lunchbox/e2_s2.jpg,1,2,2805,6
276,lunchbox,./Images/lunchbox/e1_s2.jpg,1,2,2805,6
277,file_folder,./Images/file_folder/e1_s1.jpg,1,1,2336,6
277,file_folder,./Images/file_folder/e2_s1.jpg,0,1,2336,6
278,tricycle,./Images/tricycle/e1_s2.jpg,1,2,3106,6
278,tricycle,./Images/tricycle/e2_s2.jpg,1,2,3106,6
279,cocktail_umbrella,./Images/cocktail_umbrella/e1_s1.jpg,0,1,1939,6
279,cocktail_umbrella,./Images/cocktail_umbrella/e2_s1.jpg,1,1,1939,6
280,book,./Images/book/e2_s1.jpg,1,2,2420,6
280,book,./Images/book/e1_s2.jpg,1,2,2420,6
281,altoid,./Images/altoid/e2_s1.jpg,1,2,1708,6
281,altoid,./Images/altoid/e1_s1.jpg,1,2,1708,6
282,phone_antique,./Images/phone_antique/e2_s1.jpg,1,1,1706,6
282,phone_antique,./Images/phone_antique/e1_s1.jpg,0,1,1706,6
283,menus,./Images/menus/e1_s2.jpg,1,2,3089,6
283,menus,./Images/menus/e2_s2.jpg,1,2,3089,6
284,corkscrew,./Images/corkscrew/e1_s2.jpg,1,2,2573.99999999988,6
284,corkscrew,./Images/corkscrew/e2_s1.jpg,1,2,2573.99999999988,6
285,typewriter,./Images/typewriter/e1_s1.jpg,0,1,1837,6
285,typewriter,./Images/typewriter/e2_s2.jpg,1,1,1837,6
286,headphone_small,./Images/headphone_small/e1_s1.jpg,1,2,1555.99999999988,6
286,headphone_small,./Images/headphone_small/e2_s1.jpg,1,2,1555.99999999988,6
287,accordion,./Images/accordion/e1_s2.jpg,1,2,1704,6
287,accordion,./Images/accordion/e2_s2.jpg,1,2,1704,6
288,yarn,./Images/yarn/e2_s1.jpg,1,2,2254.99999999988,6
288,yarn,./Images/yarn/e1_s1.jpg,1,2,2254.99999999988,6
289,scissors,./Images/scissors/e1_s1.jpg,1,2,2738,6
289,scissors,./Images/scissors/e2_s1.jpg,1,2,2738,6
290,sugar_bowl,./Images/sugar_bowl/e2_s2.jpg,0,0,4921,6
290,sugar_bowl,./Images/sugar_bowl/e1_s1.jpg,0,0,4921,6
291,chapstick,./Images/chapstick/e2_s2.jpg,1,1,2207,6
291,chapstick,./Images/chapstick/e1_s1.jpg,0,1,2207,6
292,canopener,./Images/canopener/e2_s1.jpg,0,1,2974,6
292,canopener,./Images/canopener/e1_s1.jpg,1,1,2974,6
293,bottle_liquid,./Images/bottle_liquid/e1_s1.jpg,0,1,1889,6
293,bottle_liquid,./Images/bottle_liquid/e2_s1.jpg,1,1,1889,6
294,donut,./Images/donut/e1_s1.jpg,0,1,2320,6
294,donut,./Images/donut/e2_s1.jpg,1,1,2320,6
295,lottery_ticket,./Images/lottery_ticket/e1_s1.jpg,1,1,2055,6
295,lottery_ticket,./Images/lottery_ticket/e2_s1.jpg,0,1,2055,6
296,lotion,./Images/lotion/e2_s1.jpg,1,2,1672,6
296,lotion,./Images/lotion/e1_s1.jpg,1,2,1672,6
297,tape_dispenser,./Images/tape_dispenser/e2_s2.jpg,0,1,2924,6
297,tape_dispenser,./Images/tape_dispenser/e1_s1.jpg,1,1,2924,6
298,pie,./Images/pie/e1_s1.jpg,1,2,1954,6
298,pie,./Images/pie/e2_s1.jpg,1,2,1954,6
299,mixer,./Images/mixer/e2_s1.jpg,0,0,1689,6
299,mixer,./Images/mixer/e1_s1.jpg,0,0,1689,6
300,bottle_perfume,./Images/bottle_perfume/e2_s2.jpg,0,1,2491,6
300,bottle_perfume,./Images/bottle_perfume/e1_s2.jpg,1,1,2491,6
301,microwave,./Images/microwave/e2_s1.jpg,0,1,1770,6
301,microwave,./Images/microwave/e1_s1.jpg,1,1,1770,6
302,garlic_press,./Images/garlic_press/e2_s1.jpg,0,0,2208.00000000012,6
302,garlic_press,./Images/garlic_press/e1_s2.jpg,0,0,2208.00000000012,6
303,sharpie_pens,./Images/sharpie_pens/e2_s1.jpg,0,1,3388,6
303,sharpie_pens,./Images/sharpie_pens/e1_s1.jpg,1,1,3388,6
304,tool_box,./Images/tool_box/e1_s2.jpg,1,2,2122.99999999988,6
304,tool_box,./Images/tool_box/e2_s1.jpg,1,2,2122.99999999988,6
305,mailbox,./Images/mailbox/e1_s1.jpg,1,2,2506,6
305,mailbox,./Images/mailbox/e2_s2.jpg,1,2,2506,6
206,book,./Images/book/e2_s2.jpg,1,2,13704,31
206,book,./Images/book/e1_s1.jpg,1,2,13704,31
207,laptop,./Images/laptop/e2_s2.jpg,0,0,12888,31
207,laptop,./Images/laptop/e1_s1.jpg,0,0,12888,31
208,toy_truck,./Images/toy_truck/e2_s2.jpg,1,2,4512,31
208,toy_truck,./Images/toy_truck/e1_s2.jpg,1,2,4512,31
209,lunchbox,./Images/lunchbox/e2_s1.jpg,1,2,4025.99999999994,31
209,lunchbox,./Images/lunchbox/e1_s1.jpg,1,2,4025.99999999994,31
210,accordion,./Images/accordion/e2_s2.jpg,1,2,2782,31
210,accordion,./Images/accordion/e1_s2.jpg,1,2,2782,31
211,reeses,./Images/reeses/e2_s2.jpg,1,2,3919.99999999994,31
211,reeses,./Images/reeses/e1_s1.jpg,1,2,3919.99999999994,31
212,metronome,./Images/metronome/e1_s2.jpg,1,2,3720.00000000006,31
212,metronome,./Images/metronome/e2_s1.jpg,1,2,3720.00000000006,31
213,chocolate,./Images/chocolate/e2_s2.jpg,1,2,5017,31
213,chocolate,./Images/chocolate/e1_s1.jpg,1,2,5017,31
214,bottle_perfume,./Images/bottle_perfume/e1_s2.jpg,1,2,2615,31
214,bottle_perfume,./Images/bottle_perfume/e2_s2.jpg,1,2,2615,31
215,clocks,./Images/clocks/e1_s2.jpg,1,2,3086,31
215,clocks,./Images/clocks/e2_s2.jpg,1,2,3086,31
216,cabbage,./Images/cabbage/e2_s1.jpg,1,2,2564.99999999988,31
216,cabbage,./Images/cabbage/e1_s2.jpg,1,2,2564.99999999988,31
217,tape_dispenser,./Images/tape_dispenser/e2_s1.jpg,1,2,3189,31
217,tape_dispenser,./Images/tape_dispenser/e1_s1.jpg,1,2,3189,31
218,cookie,./Images/cookie/e2_s1.jpg,1,2,2875,31
218,cookie,./Images/cookie/e1_s2.jpg,1,2,2875,31
219,cereal,./Images/cereal/e1_s1.jpg,1,2,3751.00000000012,31
219,cereal,./Images/cereal/e2_s1.jpg,1,2,3751.00000000012,31
220,tictac,./Images/tictac/e2_s1.jpg,0,0,4703,31
220,tictac,./Images/tictac/e1_s1.jpg,0,0,4703,31
221,chip,./Images/chip/e2_s2.jpg,1,2,2434,31
221,chip,./Images/chip/e1_s2.jpg,1,2,2434,31
222,dryer,./Images/dryer/e1_s2.jpg,1,2,2129,31
222,dryer,./Images/dryer/e2_s2.jpg,1,2,2129,31
223,lotion,./Images/lotion/e1_s1.jpg,1,2,2787,31
223,lotion,./Images/lotion/e2_s2.jpg,1,2,2787,31
224,umbrella,./Images/umbrella/e2_s2.jpg,1,2,2988.00000000012,31
224,umbrella,./Images/umbrella/e1_s1.jpg,1,2,2988.00000000012,31
225,coffeemug,./Images/coffeemug/e1_s1.jpg,1,2,5299,31
225,coffeemug,./Images/coffeemug/e2_s2.jpg,1,2,5299,31
226,usb_key,./Images/usb_key/e2_s1.jpg,0,0,5010,31
226,usb_key,./Images/usb_key/e1_s2.jpg,0,0,5010,31
227,menus,./Images/menus/e2_s2.jpg,1,2,4647,31
227,menus,./Images/menus/e1_s2.jpg,1,2,4647,31
228,file_folder,./Images/file_folder/e1_s2.jpg,0,0,5815,31
228,file_folder,./Images/file_folder/e2_s1.jpg,0,0,5815,31
229,headphone_small,./Images/headphone_small/e1_s1.jpg,1,2,1704,31
229,headphone_small,./Images/headphone_small/e2_s1.jpg,1,2,1704,31
230,gummy,./Images/gummy/e1_s1.jpg,1,2,4652,31
230,gummy,./Images/gummy/e2_s1.jpg,1,2,4652,31
231,container_open,./Images/container_open/e1_s2.jpg,1,2,7251,31
231,container_open,./Images/container_open/e2_s1.jpg,1,2,7251,31
232,tool_box,./Images/tool_box/e2_s1.jpg,0,1,5300,31
232,tool_box,./Images/tool_box/e1_s1.jpg,1,1,5300,31
233,sponge,./Images/sponge/e2_s1.jpg,1,1,2919,31
233,sponge,./Images/sponge/e1_s1.jpg,0,1,2919,31
234,cooking_pot,./Images/cooking_pot/e2_s1.jpg,1,2,5449,31
234,cooking_pot,./Images/cooking_pot/e1_s1.jpg,1,2,5449,31
235,cocktail_umbrella,./Images/cocktail_umbrella/e1_s1.jpg,0,1,5639.00000000012,31
235,cocktail_umbrella,./Images/cocktail_umbrella/e2_s1.jpg,1,1,5639.00000000012,31
236,poker_chips,./Images/poker_chips/e1_s1.jpg,1,2,3496,31
236,poker_chips,./Images/poker_chips/e2_s2.jpg,1,2,3496,31
237,theater_seats,./Images/theater_seats/e1_s2.jpg,1,2,2434,31
237,theater_seats,./Images/theater_seats/e2_s1.jpg,1,2,2434,31
238,scissors,./Images/scissors/e1_s2.jpg,1,1,4141,31
238,scissors,./Images/scissors/e2_s1.jpg,0,1,4141,31
239,gift_box,./Images/gift_box/e1_s1.jpg,1,2,2827,31
239,gift_box,./Images/gift_box/e2_s1.jpg,1,2,2827,31
240,altoid,./Images/altoid/e2_s1.jpg,1,2,6854,31
240,altoid,./Images/altoid/e1_s2.jpg,1,2,6854,31
241,sharpie_pens,./Images/sharpie_pens/e2_s2.jpg,1,2,3140,31
241,sharpie_pens,./Images/sharpie_pens/e1_s2.jpg,1,2,3140,31
242,hand_puppet,./Images/hand_puppet/e2_s2.jpg,1,2,2590,31
242,hand_puppet,./Images/hand_puppet/e1_s1.jpg,1,2,2590,31
243,pie,./Images/pie/e1_s2.jpg,1,2,3385,31
243,pie,./Images/pie/e2_s1.jpg,1,2,3385,31
244,keys,./Images/keys/e1_s2.jpg,1,2,5522,31
244,keys,./Images/keys/e2_s2.jpg,1,2,5522,31
245,pen,./Images/pen/e2_s2.jpg,1,2,4207,31
245,pen,./Images/pen/e1_s1.jpg,1,2,4207,31
246,tissues,./Images/tissues/e2_s1.jpg,1,2,1920,31
246,tissues,./Images/tissues/e1_s1.jpg,1,2,1920,31
247,bills,./Images/bills/e2_s1.jpg,1,2,1709,31
247,bills,./Images/bills/e1_s1.jpg,1,2,1709,31
248,breadbox,./Images/breadbox/e2_s1.jpg,0,1,2625,31
248,breadbox,./Images/breadbox/e1_s2.jpg,1,1,2625,31
249,leather_bag,./Images/leather_bag/e1_s1.jpg,0,1,5463,31
249,leather_bag,./Images/leather_bag/e2_s1.jpg,1,1,5463,31
250,shoe,./Images/shoe/e2_s1.jpg,1,1,3706.00000000012,31
250,shoe,./Images/shoe/e1_s1.jpg,0,1,3706.00000000012,31
251,menorah,./Images/menorah/e2_s2.jpg,1,2,2462,31
251,menorah,./Images/menorah/e1_s2.jpg,1,2,2462,31
252,canopener,./Images/canopener/e2_s1.jpg,1,2,4165,31
252,canopener,./Images/canopener/e1_s2.jpg,1,2,4165,31
253,wallet,./Images/wallet/e2_s2.jpg,1,2,1802,31
253,wallet,./Images/wallet/e1_s2.jpg,1,2,1802,31
254,glass_orange,./Images/glass_orange/e2_s1.jpg,1,1,2336,31
254,glass_orange,./Images/glass_orange/e1_s2.jpg,0,1,2336,31
255,chips,./Images/chips/e2_s1.jpg,1,2,2144,31
255,chips,./Images/chips/e1_s1.jpg,1,2,2144,31
256,notebook,./Images/notebook/e1_s2.jpg,0,0,5544,31
256,notebook,./Images/notebook/e2_s1.jpg,0,0,5544,31
257,book_object,./Images/book_object/e1_s1.jpg,1,2,2280,31
257,book_object,./Images/book_object/e2_s1.jpg,1,2,2280,31
258,watch,./Images/watch/e2_s1.jpg,1,1,1834,31
258,watch,./Images/watch/e1_s1.jpg,0,1,1834,31
259,toilet,./Images/toilet/e2_s1.jpg,1,1,2785,31
259,toilet,./Images/toilet/e1_s2.jpg,0,1,2785,31
260,chocolate_bar,./Images/chocolate_bar/e1_s1.jpg,1,2,3658,31
260,chocolate_bar,./Images/chocolate_bar/e2_s2.jpg,1,2,3658,31
261,backpack,./Images/backpack/e2_s2.jpg,1,2,1830.00000000012,31
261,backpack,./Images/backpack/e1_s1.jpg,1,2,1830.00000000012,31
262,small_box,./Images/small_box/e1_s2.jpg,1,2,2494,31
262,small_box,./Images/small_box/e2_s1.jpg,1,2,2494,31
263,coins,./Images/coins/e1_s2.jpg,0,1,4632,31
263,coins,./Images/coins/e2_s1.jpg,1,1,4632,31
264,drink,./Images/drink/e2_s1.jpg,1,2,3911,31
264,drink,./Images/drink/e1_s1.jpg,1,2,3911,31
265,hourglass,./Images/hourglass/e1_s1.jpg,1,2,4399,31
265,hourglass,./Images/hourglass/e2_s1.jpg,1,2,4399,31
266,tricycle,./Images/tricycle/e1_s2.jpg,1,1,2864,31
266,tricycle,./Images/tricycle/e2_s2.jpg,0,1,2864,31
267,chair_recliner,./Images/chair_recliner/e2_s2.jpg,1,2,2402,31
267,chair_recliner,./Images/chair_recliner/e1_s1.jpg,1,2,2402,31
268,cell,./Images/cell/e2_s1.jpg,1,2,1774,31
268,cell,./Images/cell/e1_s1.jpg,1,2,1774,31
269,yarn,./Images/yarn/e2_s1.jpg,1,2,2417.00000000012,31
269,yarn,./Images/yarn/e1_s1.jpg,1,2,2417.00000000012,31
270,microwave,./Images/microwave/e2_s2.jpg,1,1,2062,31
270,microwave,./Images/microwave/e1_s1.jpg,0,1,2062,31
271,baseball_glove,./Images/baseball_glove/e1_s1.jpg,0,1,4380,31
271,baseball_glove,./Images/baseball_glove/e2_s2.jpg,1,1,4380,31
272,lottery_ticket,./Images/lottery_ticket/e1_s1.jpg,1,2,2454.99999999988,31
272,lottery_ticket,./Images/lottery_ticket/e2_s1.jpg,1,2,2454.99999999988,31
273,phone,./Images/phone/e1_s1.jpg,1,1,4138,31
273,phone,./Images/phone/e2_s1.jpg,0,1,4138,31
274,bottle_liquid,./Images/bottle_liquid/e2_s2.jpg,1,2,3536.00000000012,31
274,bottle_liquid,./Images/bottle_liquid/e1_s1.jpg,1,2,3536.00000000012,31
275,garlic_press,./Images/garlic_press/e2_s2.jpg,1,2,3092,31
275,garlic_press,./Images/garlic_press/e1_s2.jpg,1,2,3092,31
276,fridge,./Images/fridge/e1_s1.jpg,1,2,2523,31
276,fridge,./Images/fridge/e2_s1.jpg,1,2,2523,31
277,donut,./Images/donut/e2_s2.jpg,1,2,4946,31
277,donut,./Images/donut/e1_s1.jpg,1,2,4946,31
278,tea_pot,./Images/tea_pot/e2_s1.jpg,1,2,7016,31
278,tea_pot,./Images/tea_pot/e1_s1.jpg,1,2,7016,31
279,flask,./Images/flask/e2_s1.jpg,1,2,2690,31
279,flask,./Images/flask/e1_s1.jpg,1,2,2690,31
280,phone_antique,./Images/phone_antique/e1_s1.jpg,1,2,7546.99999999988,31
280,phone_antique,./Images/phone_antique/e2_s1.jpg,1,2,7546.99999999988,31
281,soap,./Images/soap/e1_s2.jpg,0,1,5656,31
281,soap,./Images/soap/e2_s2.jpg,1,1,5656,31
282,aabacus,./Images/aabacus/e1_s2.jpg,0,1,2608,31
282,aabacus,./Images/aabacus/e2_s2.jpg,1,1,2608,31
283,sugar_bowl,./Images/sugar_bowl/e2_s2.jpg,1,2,4477.00000000012,31
283,sugar_bowl,./Images/sugar_bowl/e1_s1.jpg,1,2,4477.00000000012,31
284,paper_cup,./Images/paper_cup/e1_s2.jpg,1,2,1878.99999999988,31
284,paper_cup,./Images/paper_cup/e2_s1.jpg,1,2,1878.99999999988,31
285,typewriter,./Images/typewriter/e1_s1.jpg,1,2,3632,31
285,typewriter,./Images/typewriter/e2_s1.jpg,1,2,3632,31
286,corkscrew,./Images/corkscrew/e2_s1.jpg,1,2,3007,31
286,corkscrew,./Images/corkscrew/e1_s2.jpg,1,2,3007,31
287,oj,./Images/oj/e2_s1.jpg,1,2,4688.99999999988,31
287,oj,./Images/oj/e1_s2.jpg,1,2,4688.99999999988,31
288,locks,./Images/locks/e1_s2.jpg,1,2,1572,31
288,locks,./Images/locks/e2_s2.jpg,1,2,1572,31
289,mailbox,./Images/mailbox/e2_s2.jpg,0,1,3504,31
289,mailbox,./Images/mailbox/e1_s1.jpg,1,1,3504,31
290,car,./Images/car/e2_s1.jpg,1,2,3180,31
290,car,./Images/car/e1_s1.jpg,1,2,3180,31
291,lemon,./Images/lemon/e1_s1.jpg,1,2,2971,31
291,lemon,./Images/lemon/e2_s2.jpg,1,2,2971,31
292,scanner,./Images/scanner/e2_s1.jpg,1,2,3269,31
292,scanner,./Images/scanner/e1_s1.jpg,1,2,3269,31
293,cardbox,./Images/cardbox/e1_s2.jpg,1,2,1959.00000000012,31
293,cardbox,./Images/cardbox/e2_s2.jpg,1,2,1959.00000000012,31
294,peanut_butter,./Images/peanut_butter/e2_s1.jpg,0,1,5918,31
294,peanut_butter,./Images/peanut_butter/e1_s1.jpg,1,1,5918,31
295,pail,./Images/pail/e1_s1.jpg,0,0,3284,31
295,pail,./Images/pail/e2_s2.jpg,0,0,3284,31
296,sugar_paper,./Images/sugar_paper/e1_s2.jpg,1,1,3000,31
296,sugar_paper,./Images/sugar_paper/e2_s1.jpg,0,1,3000,31
297,mustard,./Images/mustard/e1_s1.jpg,1,2,3499,31
297,mustard,./Images/mustard/e2_s1.jpg,1,2,3499,31
298,kettle,./Images/kettle/e2_s1.jpg,1,2,3073,31
298,kettle,./Images/kettle/e1_s2.jpg,1,2,3073,31
299,cabinet,./Images/cabinet/e1_s1.jpg,1,2,3189,31
299,cabinet,./Images/cabinet/e2_s2.jpg,1,2,3189,31
300,dresser,./Images/dresser/e1_s2.jpg,1,1,2187,31
300,dresser,./Images/dresser/e2_s2.jpg,0,1,2187,31
301,plastic_bottle,./Images/plastic_bottle/e2_s1.jpg,0,1,4363,31
301,plastic_bottle,./Images/plastic_bottle/e1_s1.jpg,1,1,4363,31
302,mixer,./Images/mixer/e1_s2.jpg,0,1,3356,31
302,mixer,./Images/mixer/e2_s2.jpg,1,1,3356,31
303,apple,./Images/apple/e1_s2.jpg,1,2,5618.99999999988,31
303,apple,./Images/apple/e2_s1.jpg,1,2,5618.99999999988,31
304,file_box,./Images/file_box/e1_s1.jpg,1,2,4391.00000000012,31
304,file_box,./Images/file_box/e2_s1.jpg,1,2,4391.00000000012,31
305,chapstick,./Images/chapstick/e2_s1.jpg,1,2,2481.99999999988,31
305,chapstick,./Images/chapstick/e1_s1.jpg,1,2,2481.99999999988,31
206,lunchbox,./Images/lunchbox/e2_s2.jpg,1,1,7447,23
206,lunchbox,./Images/lunchbox/e1_s2.jpg,0,1,7447,23
207,yarn,./Images/yarn/e2_s1.jpg,0,1,5053.99999999988,23
207,yarn,./Images/yarn/e1_s2.jpg,1,1,5053.99999999988,23
208,glass_orange,./Images/glass_orange/e1_s1.jpg,1,2,3305.99999999988,23
208,glass_orange,./Images/glass_orange/e2_s1.jpg,1,2,3305.99999999988,23
209,pie,./Images/pie/e1_s2.jpg,1,2,2707,23
209,pie,./Images/pie/e2_s1.jpg,1,2,2707,23
210,locks,./Images/locks/e1_s2.jpg,0,1,4054,23
210,locks,./Images/locks/e2_s1.jpg,1,1,4054,23
211,wallet,./Images/wallet/e2_s2.jpg,1,2,2937,23
211,wallet,./Images/wallet/e1_s1.jpg,1,2,2937,23
212,chocolate,./Images/chocolate/e1_s1.jpg,0,1,2688,23
212,chocolate,./Images/chocolate/e2_s1.jpg,1,1,2688,23
213,metronome,./Images/metronome/e1_s2.jpg,0,1,2423,23
213,metronome,./Images/metronome/e2_s1.jpg,1,1,2423,23
214,bills,./Images/bills/e2_s2.jpg,1,2,2255,23
214,bills,./Images/bills/e1_s2.jpg,1,2,2255,23
215,donut,./Images/donut/e1_s1.jpg,1,1,1823.00000000012,23
215,donut,./Images/donut/e2_s1.jpg,0,1,1823.00000000012,23
216,lemon,./Images/lemon/e1_s1.jpg,1,2,1988.00000000012,23
216,lemon,./Images/lemon/e2_s2.jpg,1,2,1988.00000000012,23
217,tea_pot,./Images/tea_pot/e1_s1.jpg,0,1,2089,23
217,tea_pot,./Images/tea_pot/e2_s1.jpg,1,1,2089,23
218,backpack,./Images/backpack/e1_s2.jpg,1,1,2188,23
218,backpack,./Images/backpack/e2_s1.jpg,0,1,2188,23
219,menus,./Images/menus/e1_s1.jpg,0,0,4874,23
219,menus,./Images/menus/e2_s2.jpg,0,0,4874,23
220,tissues,./Images/tissues/e2_s2.jpg,1,1,2721,23
220,tissues,./Images/tissues/e1_s2.jpg,0,1,2721,23
221,chapstick,./Images/chapstick/e2_s1.jpg,0,1,5139.00000000012,23
221,chapstick,./Images/chapstick/e1_s2.jpg,1,1,5139.00000000012,23
222,sharpie_pens,./Images/sharpie_pens/e1_s1.jpg,1,2,2039,23
222,sharpie_pens,./Images/sharpie_pens/e2_s2.jpg,1,2,2039,23
223,headphone_small,./Images/headphone_small/e1_s2.jpg,0,1,4055,23
223,headphone_small,./Images/headphone_small/e2_s2.jpg,1,1,4055,23
224,cereal,./Images/cereal/e2_s1.jpg,0,0,4189,23
224,cereal,./Images/cereal/e1_s1.jpg,0,0,4189,23
225,soap,./Images/soap/e2_s1.jpg,1,2,3039,23
225,soap,./Images/soap/e1_s2.jpg,1,2,3039,23
226,file_folder,./Images/file_folder/e1_s1.jpg,0,1,2973,23
226,file_folder,./Images/file_folder/e2_s2.jpg,1,1,2973,23
227,mustard,./Images/mustard/e1_s2.jpg,1,2,5441,23
227,mustard,./Images/mustard/e2_s1.jpg,1,2,5441,23
228,chair_recliner,./Images/chair_recliner/e1_s1.jpg,0,1,2523,23
228,chair_recliner,./Images/chair_recliner/e2_s2.jpg,1,1,2523,23
229,reeses,./Images/reeses/e1_s1.jpg,1,2,2573,23
229,reeses,./Images/reeses/e2_s1.jpg,1,2,2573,23
230,garlic_press,./Images/garlic_press/e1_s2.jpg,1,2,2688,23
230,garlic_press,./Images/garlic_press/e2_s1.jpg,1,2,2688,23
231,flask,./Images/flask/e2_s1.jpg,1,1,1856,23
231,flask,./Images/flask/e1_s1.jpg,0,1,1856,23
232,breadbox,./Images/breadbox/e2_s2.jpg,1,2,2689,23
232,breadbox,./Images/breadbox/e1_s1.jpg,1,2,2689,23
233,cardbox,./Images/cardbox/e1_s2.jpg,1,1,3440,23
233,cardbox,./Images/cardbox/e2_s2.jpg,0,1,3440,23
234,small_box,./Images/small_box/e2_s2.jpg,1,2,1774,23
234,small_box,./Images/small_box/e1_s2.jpg,1,2,1774,23
235,canopener,./Images/canopener/e1_s1.jpg,1,1,2305.99999999988,23
235,canopener,./Images/canopener/e2_s1.jpg,0,1,2305.99999999988,23
236,watch,./Images/watch/e2_s1.jpg,1,1,2224,23
236,watch,./Images/watch/e1_s1.jpg,0,1,2224,23
237,tool_box,./Images/tool_box/e1_s2.jpg,1,1,3174,23
237,tool_box,./Images/tool_box/e2_s1.jpg,0,1,3174,23
238,mixer,./Images/mixer/e2_s2.jpg,1,2,3038,23
238,mixer,./Images/mixer/e1_s1.jpg,1,2,3038,23
239,car,./Images/car/e1_s1.jpg,1,1,2457,23
239,car,./Images/car/e2_s2.jpg,0,1,2457,23
240,container_open,./Images/container_open/e1_s2.jpg,0,1,2139,23
240,container_open,./Images/container_open/e2_s1.jpg,1,1,2139,23
241,corkscrew,./Images/corkscrew/e2_s2.jpg,1,2,5957,23
241,corkscrew,./Images/corkscrew/e1_s1.jpg,1,2,5957,23
242,book,./Images/book/e2_s1.jpg,1,2,1757,23
242,book,./Images/book/e1_s1.jpg,1,2,1757,23
243,pail,./Images/pail/e2_s1.jpg,0,1,1923,23
243,pail,./Images/pail/e1_s2.jpg,1,1,1923,23
244,hourglass,./Images/hourglass/e1_s2.jpg,1,1,4425,23
244,hourglass,./Images/hourglass/e2_s1.jpg,0,1,4425,23
245,shoe,./Images/shoe/e2_s2.jpg,1,2,2240,23
245,shoe,./Images/shoe/e1_s2.jpg,1,2,2240,23
246,book_object,./Images/book_object/e1_s1.jpg,1,2,2890,23
246,book_object,./Images/book_object/e2_s2.jpg,1,2,2890,23
247,mailbox,./Images/mailbox/e1_s1.jpg,1,2,2341,23
247,mailbox,./Images/mailbox/e2_s1.jpg,1,2,2341,23
248,dryer,./Images/dryer/e1_s2.jpg,1,2,3223,23
248,dryer,./Images/dryer/e2_s2.jpg,1,2,3223,23
249,plastic_bottle,./Images/plastic_bottle/e1_s2.jpg,0,1,2375,23
249,plastic_bottle,./Images/plastic_bottle/e2_s2.jpg,1,1,2375,23
250,accordion,./Images/accordion/e1_s2.jpg,0,0,2006,23
250,accordion,./Images/accordion/e2_s1.jpg,0,0,2006,23
251,scanner,./Images/scanner/e2_s2.jpg,0,1,2458,23
251,scanner,./Images/scanner/e1_s1.jpg,1,1,2458,23
252,tricycle,./Images/tricycle/e2_s1.jpg,0,1,3006.99999999988,23
252,tricycle,./Images/tricycle/e1_s1.jpg,1,1,3006.99999999988,23
253,chocolate_bar,./Images/chocolate_bar/e2_s1.jpg,1,2,3256,23
253,chocolate_bar,./Images/chocolate_bar/e1_s1.jpg,1,2,3256,23
254,clocks,./Images/clocks/e2_s2.jpg,0,1,1374,23
254,clocks,./Images/clocks/e1_s1.jpg,1,1,1374,23
255,umbrella,./Images/umbrella/e1_s2.jpg,1,2,4391,23
255,umbrella,./Images/umbrella/e2_s1.jpg,1,2,4391,23
256,drink,./Images/drink/e2_s1.jpg,0,1,1757,23
256,drink,./Images/drink/e1_s1.jpg,1,1,1757,23
257,toilet,./Images/toilet/e1_s1.jpg,1,2,1556,23
257,toilet,./Images/toilet/e2_s2.jpg,1,2,1556,23
258,leather_bag,./Images/leather_bag/e2_s2.jpg,0,0,2290,23
258,leather_bag,./Images/leather_bag/e1_s1.jpg,0,0,2290,23
259,scissors,./Images/scissors/e1_s2.jpg,1,1,1257,23
259,scissors,./Images/scissors/e2_s2.jpg,0,1,1257,23
260,microwave,./Images/microwave/e2_s1.jpg,0,1,2625,23
260,microwave,./Images/microwave/e1_s2.jpg,1,1,2625,23
261,gift_box,./Images/gift_box/e1_s1.jpg,1,1,1724,23
261,gift_box,./Images/gift_box/e2_s1.jpg,0,1,1724,23
262,typewriter,./Images/typewriter/e2_s1.jpg,0,1,4209,23
262,typewriter,./Images/typewriter/e1_s2.jpg,1,1,4209,23
263,cabbage,./Images/cabbage/e1_s2.jpg,1,2,2474.00000000012,23
263,cabbage,./Images/cabbage/e2_s1.jpg,1,2,2474.00000000012,23
264,toy_truck,./Images/toy_truck/e1_s2.jpg,0,0,2057,23
264,toy_truck,./Images/toy_truck/e2_s1.jpg,0,0,2057,23
265,theater_seats,./Images/theater_seats/e1_s2.jpg,0,1,1174.00000000012,23
265,theater_seats,./Images/theater_seats/e2_s2.jpg,1,1,1174.00000000012,23
266,usb_key,./Images/usb_key/e1_s1.jpg,0,1,3458,23
266,usb_key,./Images/usb_key/e2_s2.jpg,1,1,3458,23
267,poker_chips,./Images/poker_chips/e2_s2.jpg,1,1,1790,23
267,poker_chips,./Images/poker_chips/e1_s2.jpg,0,1,1790,23
268,cabinet,./Images/cabinet/e2_s2.jpg,1,1,1275,23
268,cabinet,./Images/cabinet/e1_s1.jpg,0,1,1275,23
269,chip,./Images/chip/e1_s1.jpg,0,1,3207,23
269,chip,./Images/chip/e2_s1.jpg,1,1,3207,23
270,bottle_liquid,./Images/bottle_liquid/e2_s2.jpg,0,0,1109,23
270,bottle_liquid,./Images/bottle_liquid/e1_s2.jpg,0,0,1109,23
271,chips,./Images/chips/e1_s1.jpg,1,2,1842,23
271,chips,./Images/chips/e2_s1.jpg,1,2,1842,23
272,lottery_ticket,./Images/lottery_ticket/e2_s1.jpg,0,1,2841,23
272,lottery_ticket,./Images/lottery_ticket/e1_s2.jpg,1,1,2841,23
273,tictac,./Images/tictac/e2_s1.jpg,0,0,3241,23
273,tictac,./Images/tictac/e1_s1.jpg,0,0,3241,23
274,fridge,./Images/fridge/e2_s1.jpg,0,1,1559,23
274,fridge,./Images/fridge/e1_s1.jpg,1,1,1559,23
275,lotion,./Images/lotion/e1_s1.jpg,1,2,2375,23
275,lotion,./Images/lotion/e2_s1.jpg,1,2,2375,23
276,phone,./Images/phone/e2_s2.jpg,0,0,1107.99999999988,23
276,phone,./Images/phone/e1_s2.jpg,0,0,1107.99999999988,23
277,cooking_pot,./Images/cooking_pot/e2_s1.jpg,0,1,3758.00000000012,23
277,cooking_pot,./Images/cooking_pot/e1_s1.jpg,1,1,3758.00000000012,23
278,oj,./Images/oj/e1_s1.jpg,1,1,5608,23
278,oj,./Images/oj/e2_s2.jpg,0,1,5608,23
279,tape_dispenser,./Images/tape_dispenser/e2_s1.jpg,1,2,1190.99999999988,23
279,tape_dispenser,./Images/tape_dispenser/e1_s1.jpg,1,2,1190.99999999988,23
280,paper_cup,./Images/paper_cup/e1_s2.jpg,1,2,2225,23
280,paper_cup,./Images/paper_cup/e2_s1.jpg,1,2,2225,23
281,sponge,./Images/sponge/e1_s1.jpg,1,2,2540,23
281,sponge,./Images/sponge/e2_s1.jpg,1,2,2540,23
282,peanut_butter,./Images/peanut_butter/e2_s1.jpg,0,0,3493,23
282,peanut_butter,./Images/peanut_butter/e1_s1.jpg,0,0,3493,23
283,laptop,./Images/laptop/e2_s1.jpg,1,1,2608,23
283,laptop,./Images/laptop/e1_s1.jpg,0,1,2608,23
284,cell,./Images/cell/e1_s2.jpg,0,0,2308,23
284,cell,./Images/cell/e2_s2.jpg,0,0,2308,23
285,apple,./Images/apple/e1_s1.jpg,0,1,1942,23
285,apple,./Images/apple/e2_s1.jpg,1,1,1942,23
286,cookie,./Images/cookie/e1_s2.jpg,1,2,3292.00000000012,23
286,cookie,./Images/cookie/e2_s2.jpg,1,2,3292.00000000012,23
287,coins,./Images/coins/e1_s1.jpg,0,0,1376,23
287,coins,./Images/coins/e2_s1.jpg,0,0,1376,23
288,menorah,./Images/menorah/e2_s1.jpg,1,2,2792,23
288,menorah,./Images/menorah/e1_s1.jpg,1,2,2792,23
289,aabacus,./Images/aabacus/e1_s2.jpg,1,2,4125,23
289,aabacus,./Images/aabacus/e2_s2.jpg,1,2,4125,23
290,hand_puppet,./Images/hand_puppet/e2_s1.jpg,0,0,2809,23
290,hand_puppet,./Images/hand_puppet/e1_s2.jpg,0,0,2809,23
291,keys,./Images/keys/e2_s1.jpg,1,1,4857.00000000012,23
291,keys,./Images/keys/e1_s1.jpg,0,1,4857.00000000012,23
292,cocktail_umbrella,./Images/cocktail_umbrella/e1_s2.jpg,0,1,3742.00000000012,23
292,cocktail_umbrella,./Images/cocktail_umbrella/e2_s2.jpg,1,1,3742.00000000012,23
293,pen,./Images/pen/e1_s2.jpg,1,1,1959,23
293,pen,./Images/pen/e2_s2.jpg,0,1,1959,23
294,coffeemug,./Images/coffeemug/e1_s1.jpg,1,2,4092.00000000012,23
294,coffeemug,./Images/coffeemug/e2_s2.jpg,1,2,4092.00000000012,23
295,sugar_paper,./Images/sugar_paper/e1_s1.jpg,1,2,5175.00000000012,23
295,sugar_paper,./Images/sugar_paper/e2_s2.jpg,1,2,5175.00000000012,23
296,dresser,./Images/dresser/e1_s1.jpg,1,2,2726,23
296,dresser,./Images/dresser/e2_s1.jpg,1,2,2726,23
297,phone_antique,./Images/phone_antique/e2_s1.jpg,1,2,3793,23
297,phone_antique,./Images/phone_antique/e1_s1.jpg,1,2,3793,23
298,sugar_bowl,./Images/sugar_bowl/e2_s1.jpg,1,1,2375,23
298,sugar_bowl,./Images/sugar_bowl/e1_s2.jpg,0,1,2375,23
299,baseball_glove,./Images/baseball_glove/e1_s1.jpg,1,1,2327,23
299,baseball_glove,./Images/baseball_glove/e2_s2.jpg,0,1,2327,23
300,gummy,./Images/gummy/e1_s2.jpg,1,2,2058.00000000012,23
300,gummy,./Images/gummy/e2_s2.jpg,1,2,2058.00000000012,23
301,bottle_perfume,./Images/bottle_perfume/e1_s1.jpg,0,1,4426,23
301,bottle_perfume,./Images/bottle_perfume/e2_s1.jpg,1,1,4426,23
302,notebook,./Images/notebook/e1_s1.jpg,1,2,2293,23
302,notebook,./Images/notebook/e2_s1.jpg,1,2,2293,23
303,kettle,./Images/kettle/e1_s1.jpg,1,2,1774,23
303,kettle,./Images/kettle/e2_s2.jpg,1,2,1774,23
304,altoid,./Images/altoid/e1_s1.jpg,1,2,5176,23
304,altoid,./Images/altoid/e2_s2.jpg,1,2,5176,23
305,file_box,./Images/file_box/e2_s1.jpg,0,0,2360,23
305,file_box,./Images/file_box/e1_s1.jpg,0,0,2360,23
206,chapstick,./Images/chapstick/e1_s2.jpg,1,2,12771.6999999881,14
206,chapstick,./Images/chapstick/e2_s1.jpg,1,2,12771.6999999881,14
207,menorah,./Images/menorah/e2_s1.jpg,1,2,14853.3999999762,14
207,menorah,./Images/menorah/e1_s1.jpg,1,2,14853.3999999762,14
208,fridge,./Images/fridge/e1_s1.jpg,1,2,6738.40000000596,14
208,fridge,./Images/fridge/e2_s2.jpg,1,2,6738.40000000596,14
209,toy_truck,./Images/toy_truck/e2_s1.jpg,1,2,5377.5,14
209,toy_truck,./Images/toy_truck/e1_s2.jpg,1,2,5377.5,14
210,laptop,./Images/laptop/e1_s2.jpg,1,2,2708.59999999404,14
210,laptop,./Images/laptop/e2_s1.jpg,1,2,2708.59999999404,14
211,reeses,./Images/reeses/e2_s2.jpg,1,2,5775.90000000596,14
211,reeses,./Images/reeses/e1_s1.jpg,1,2,5775.90000000596,14
212,mustard,./Images/mustard/e2_s2.jpg,1,2,2502.80000001192,14
212,mustard,./Images/mustard/e1_s2.jpg,1,2,2502.80000001192,14
213,yarn,./Images/yarn/e2_s1.jpg,0,1,6710.90000000596,14
213,yarn,./Images/yarn/e1_s2.jpg,1,1,6710.90000000596,14
214,phone,./Images/phone/e2_s1.jpg,0,1,9197.59999999404,14
214,phone,./Images/phone/e1_s2.jpg,1,1,9197.59999999404,14
215,metronome,./Images/metronome/e1_s2.jpg,1,2,12983.900000006,14
215,metronome,./Images/metronome/e2_s1.jpg,1,2,12983.900000006,14
216,cell,./Images/cell/e1_s1.jpg,1,2,3266.5,14
216,cell,./Images/cell/e2_s2.jpg,1,2,3266.5,14
217,tissues,./Images/tissues/e2_s1.jpg,1,2,5943.90000000596,14
217,tissues,./Images/tissues/e1_s2.jpg,1,2,5943.90000000596,14
218,drink,./Images/drink/e1_s2.jpg,0,1,10148.8000000119,14
218,drink,./Images/drink/e2_s1.jpg,1,1,10148.8000000119,14
219,baseball_glove,./Images/baseball_glove/e1_s1.jpg,1,2,3540.69999998808,14
219,baseball_glove,./Images/baseball_glove/e2_s2.jpg,1,2,3540.69999998808,14
220,umbrella,./Images/umbrella/e2_s1.jpg,1,2,3622.59999999404,14
220,umbrella,./Images/umbrella/e1_s2.jpg,1,2,3622.59999999404,14
221,chocolate_bar,./Images/chocolate_bar/e1_s2.jpg,1,2,6122.20000001788,14
221,chocolate_bar,./Images/chocolate_bar/e2_s1.jpg,1,2,6122.20000001788,14
222,paper_cup,./Images/paper_cup/e2_s2.jpg,1,2,3047.79999998212,14
222,paper_cup,./Images/paper_cup/e1_s1.jpg,1,2,3047.79999998212,14
223,hourglass,./Images/hourglass/e1_s1.jpg,1,2,4572.80000001192,14
223,hourglass,./Images/hourglass/e2_s1.jpg,1,2,4572.80000001192,14
224,altoid,./Images/altoid/e1_s1.jpg,1,2,3721.19999998808,14
224,altoid,./Images/altoid/e2_s2.jpg,1,2,3721.19999998808,14
225,book_object,./Images/book_object/e1_s1.jpg,1,2,2821.69999998808,14
225,book_object,./Images/book_object/e2_s2.jpg,1,2,2821.69999998808,14
226,notebook,./Images/notebook/e2_s1.jpg,1,2,4676.90000000596,14
226,notebook,./Images/notebook/e1_s1.jpg,1,2,4676.90000000596,14
227,menus,./Images/menus/e2_s2.jpg,1,2,2499,14
227,menus,./Images/menus/e1_s1.jpg,1,2,2499,14
228,pen,./Images/pen/e1_s2.jpg,1,2,4764.10000002384,14
228,pen,./Images/pen/e2_s1.jpg,1,2,4764.10000002384,14
229,lottery_ticket,./Images/lottery_ticket/e2_s1.jpg,0,1,5615.19999998808,14
229,lottery_ticket,./Images/lottery_ticket/e1_s2.jpg,1,1,5615.19999998808,14
230,small_box,./Images/small_box/e1_s1.jpg,1,1,7275.59999999404,14
230,small_box,./Images/small_box/e2_s2.jpg,0,1,7275.59999999404,14
231,cookie,./Images/cookie/e2_s1.jpg,1,2,2916.70000001788,14
231,cookie,./Images/cookie/e1_s1.jpg,1,2,2916.70000001788,14
232,dresser,./Images/dresser/e1_s1.jpg,1,2,6622.5,14
232,dresser,./Images/dresser/e2_s1.jpg,1,2,6622.5,14
233,chair_recliner,./Images/chair_recliner/e2_s1.jpg,1,2,3472,14
233,chair_recliner,./Images/chair_recliner/e1_s2.jpg,1,2,3472,14
234,gummy,./Images/gummy/e2_s2.jpg,1,2,9855.69999998808,14
234,gummy,./Images/gummy/e1_s2.jpg,1,2,9855.69999998808,14
235,tictac,./Images/tictac/e2_s1.jpg,1,2,25049.7000000179,14
235,tictac,./Images/tictac/e1_s2.jpg,1,2,25049.7000000179,14
236,usb_key,./Images/usb_key/e2_s1.jpg,1,2,7390.29999998212,14
236,usb_key,./Images/usb_key/e1_s2.jpg,1,2,7390.29999998212,14
237,aabacus,./Images/aabacus/e2_s1.jpg,1,2,2771.30000001192,14
237,aabacus,./Images/aabacus/e1_s2.jpg,1,2,2771.30000001192,14
238,keys,./Images/keys/e1_s2.jpg,1,2,5810.29999998212,14
238,keys,./Images/keys/e2_s1.jpg,1,2,5810.29999998212,14
239,leather_bag,./Images/leather_bag/e1_s1.jpg,1,2,4034.60000002384,14
239,leather_bag,./Images/leather_bag/e2_s2.jpg,1,2,4034.60000002384,14
240,sharpie_pens,./Images/sharpie_pens/e2_s2.jpg,1,2,10664,14
240,sharpie_pens,./Images/sharpie_pens/e1_s2.jpg,1,2,10664,14
241,tape_dispenser,./Images/tape_dispenser/e2_s2.jpg,1,2,3774.09999999404,14
241,tape_dispenser,./Images/tape_dispenser/e1_s2.jpg,1,2,3774.09999999404,14
242,accordion,./Images/accordion/e1_s1.jpg,1,2,11197.1999999881,14
242,accordion,./Images/accordion/e2_s1.jpg,1,2,11197.1999999881,14
243,apple,./Images/apple/e2_s1.jpg,1,2,2030.40000000596,14
243,apple,./Images/apple/e1_s1.jpg,1,2,2030.40000000596,14
244,scanner,./Images/scanner/e1_s1.jpg,1,2,2970.09999999404,14
244,scanner,./Images/scanner/e2_s1.jpg,1,2,2970.09999999404,14
245,corkscrew,./Images/corkscrew/e1_s2.jpg,1,2,8070.20000001788,14
245,corkscrew,./Images/corkscrew/e2_s2.jpg,1,2,8070.20000001788,14
246,theater_seats,./Images/theater_seats/e1_s2.jpg,1,2,4068.80000001192,14
246,theater_seats,./Images/theater_seats/e2_s1.jpg,1,2,4068.80000001192,14
247,garlic_press,./Images/garlic_press/e1_s1.jpg,1,2,2716.19999998808,14
247,garlic_press,./Images/garlic_press/e2_s1.jpg,1,2,2716.19999998808,14
248,wallet,./Images/wallet/e2_s1.jpg,1,2,2571.29999998212,14
248,wallet,./Images/wallet/e1_s1.jpg,1,2,2571.29999998212,14
249,cabbage,./Images/cabbage/e1_s1.jpg,1,2,2956.79999998212,14
249,cabbage,./Images/cabbage/e2_s1.jpg,1,2,2956.79999998212,14
250,sugar_paper,./Images/sugar_paper/e2_s1.jpg,1,2,2490.39999997616,14
250,sugar_paper,./Images/sugar_paper/e1_s1.jpg,1,2,2490.39999997616,14
251,chocolate,./Images/chocolate/e2_s2.jpg,1,2,3121.70000001788,14
251,chocolate,./Images/chocolate/e1_s1.jpg,1,2,3121.70000001788,14
252,container_open,./Images/container_open/e2_s1.jpg,1,2,4790,14
252,container_open,./Images/container_open/e1_s1.jpg,1,2,4790,14
253,file_folder,./Images/file_folder/e1_s1.jpg,1,2,2832.5,14
253,file_folder,./Images/file_folder/e2_s1.jpg,1,2,2832.5,14
254,cooking_pot,./Images/cooking_pot/e1_s1.jpg,1,2,2282.5,14
254,cooking_pot,./Images/cooking_pot/e2_s1.jpg,1,2,2282.5,14
255,file_box,./Images/file_box/e1_s1.jpg,1,2,3428.30000001192,14
255,file_box,./Images/file_box/e2_s1.jpg,1,2,3428.30000001192,14
256,chip,./Images/chip/e2_s1.jpg,1,2,2180.5,14
256,chip,./Images/chip/e1_s1.jpg,1,2,2180.5,14
257,bills,./Images/bills/e1_s1.jpg,1,2,2772.20000001788,14
257,bills,./Images/bills/e2_s1.jpg,1,2,2772.20000001788,14
258,mixer,./Images/mixer/e1_s2.jpg,1,2,6840.60000002384,14
258,mixer,./Images/mixer/e2_s1.jpg,1,2,6840.60000002384,14
259,canopener,./Images/canopener/e2_s2.jpg,1,2,4419.40000000596,14
259,canopener,./Images/canopener/e1_s1.jpg,1,2,4419.40000000596,14
