participant,trial_index,category,chosen_img,correct,tot_correct,rt_last,exemplar,chosen_state
33,206,soap,./Images/soap/e1_s2.jpg,1,2,11790,1,2
33,206,soap,./Images/soap/e2_s1.jpg,1,2,11790,2,1
33,207,cocktail_umbrella,./Images/cocktail_umbrella/e1_s2.jpg,1,2,3923,1,2
33,207,cocktail_umbrella,./Images/cocktail_umbrella/e2_s1.jpg,1,2,3923,2,1
33,208,toilet,./Images/toilet/e2_s1.jpg,0,1,6470.79999998212,2,1
33,208,toilet,./Images/toilet/e1_s1.jpg,1,1,6470.79999998212,1,1
33,209,bottle_perfume,./Images/bottle_perfume/e1_s1.jpg,1,2,4813,1,1
33,209,bottle_perfume,./Images/bottle_perfume/e2_s2.jpg,1,2,4813,2,2
33,210,watch,./Images/watch/e2_s1.jpg,1,2,11180.900000006,2,1
33,210,watch,./Images/watch/e1_s1.jpg,1,2,11180.900000006,1,1
33,211,cell,./Images/cell/e2_s2.jpg,1,2,14666.2000000179,2,2
33,211,cell,./Images/cell/e1_s1.jpg,1,2,14666.2000000179,1,1
33,212,theater_seats,./Images/theater_seats/e1_s2.jpg,1,2,10929.8999999762,1,2
33,212,theater_seats,./Images/theater_seats/e2_s1.jpg,1,2,10929.8999999762,2,1
33,213,dryer,./Images/dryer/e2_s2.jpg,0,1,14779.400000006,2,2
33,213,dryer,./Images/dryer/e1_s2.jpg,1,1,14779.400000006,1,2
33,214,chip,./Images/chip/e2_s2.jpg,1,2,2607.5,2,2
33,214,chip,./Images/chip/e1_s2.jpg,1,2,2607.5,1,2
33,215,kettle,./Images/kettle/e1_s1.jpg,0,0,4640.10000002384,1,1
33,215,kettle,./Images/kettle/e2_s1.jpg,0,0,4640.10000002384,2,1
33,216,laptop,./Images/laptop/e2_s1.jpg,1,2,5613.40000000596,2,1
33,216,laptop,./Images/laptop/e1_s2.jpg,1,2,5613.40000000596,1,2
33,217,chips,./Images/chips/e1_s1.jpg,1,2,10214.400000006,1,1
33,217,chips,./Images/chips/e2_s2.jpg,1,2,10214.400000006,2,2
33,218,lotion,./Images/lotion/e2_s1.jpg,1,1,7771.40000000596,2,1
33,218,lotion,./Images/lotion/e1_s2.jpg,0,1,7771.40000000596,1,2
33,219,chapstick,./Images/chapstick/e2_s1.jpg,1,1,4732.30000001192,2,1
33,219,chapstick,./Images/chapstick/e1_s2.jpg,0,1,4732.30000001192,1,2
33,220,tictac,./Images/tictac/e1_s2.jpg,0,0,6423.40000000596,1,2
33,220,tictac,./Images/tictac/e2_s1.jpg,0,0,6423.40000000596,2,1
33,221,microwave,./Images/microwave/e1_s1.jpg,0,0,5215.09999999404,1,1
33,221,microwave,./Images/microwave/e2_s2.jpg,0,0,5215.09999999404,2,2
33,222,cardbox,./Images/cardbox/e2_s1.jpg,0,1,4756.40000000596,2,1
33,222,cardbox,./Images/cardbox/e1_s1.jpg,1,1,4756.40000000596,1,1
33,223,sugar_bowl,./Images/sugar_bowl/e2_s2.jpg,1,2,7343.29999998212,2,2
33,223,sugar_bowl,./Images/sugar_bowl/e1_s1.jpg,1,2,7343.29999998212,1,1
33,224,donut,./Images/donut/e1_s1.jpg,1,2,4507,1,1
33,224,donut,./Images/donut/e2_s2.jpg,1,2,4507,2,2
33,225,accordion,./Images/accordion/e2_s1.jpg,1,2,10949.400000006,2,1
33,225,accordion,./Images/accordion/e1_s1.jpg,1,2,10949.400000006,1,1
33,226,sugar_paper,./Images/sugar_paper/e1_s1.jpg,0,1,3467.19999998808,1,1
33,226,sugar_paper,./Images/sugar_paper/e2_s2.jpg,1,1,3467.19999998808,2,2
33,227,chocolate,./Images/chocolate/e1_s1.jpg,1,1,4263.59999999404,1,1
33,227,chocolate,./Images/chocolate/e2_s1.jpg,0,1,4263.59999999404,2,1
33,228,tape_dispenser,./Images/tape_dispenser/e1_s2.jpg,1,2,9947.69999998808,1,2
33,228,tape_dispenser,./Images/tape_dispenser/e2_s1.jpg,1,2,9947.69999998808,2,1
33,229,phone,./Images/phone/e2_s1.jpg,0,1,6389.90000000596,2,1
33,229,phone,./Images/phone/e1_s1.jpg,1,1,6389.90000000596,1,1
33,230,tea_pot,./Images/tea_pot/e2_s2.jpg,1,1,5264.5,2,2
33,230,tea_pot,./Images/tea_pot/e1_s1.jpg,0,1,5264.5,1,1
33,231,pen,./Images/pen/e2_s2.jpg,0,1,4857.60000002384,2,2
33,231,pen,./Images/pen/e1_s2.jpg,1,1,4857.60000002384,1,2
33,232,garlic_press,./Images/garlic_press/e2_s1.jpg,0,1,6964,2,1
33,232,garlic_press,./Images/garlic_press/e1_s2.jpg,1,1,6964,1,2
33,233,corkscrew,./Images/corkscrew/e2_s1.jpg,1,2,2978.40000000596,2,1
33,233,corkscrew,./Images/corkscrew/e1_s1.jpg,1,2,2978.40000000596,1,1
33,234,scissors,./Images/scissors/e2_s1.jpg,1,2,1885.30000001192,2,1
33,234,scissors,./Images/scissors/e1_s2.jpg,1,2,1885.30000001192,1,2
33,235,mustard,./Images/mustard/e2_s1.jpg,0,0,5382.70000001788,2,1
33,235,mustard,./Images/mustard/e1_s2.jpg,0,0,5382.70000001788,1,2
33,236,toy_truck,./Images/toy_truck/e2_s2.jpg,0,1,4453.09999999404,2,2
33,236,toy_truck,./Images/toy_truck/e1_s1.jpg,1,1,4453.09999999404,1,1
33,237,cookie,./Images/cookie/e1_s1.jpg,0,1,6702.19999998808,1,1
33,237,cookie,./Images/cookie/e2_s2.jpg,1,1,6702.19999998808,2,2
33,238,typewriter,./Images/typewriter/e1_s2.jpg,1,1,5329,1,2
33,238,typewriter,./Images/typewriter/e2_s2.jpg,0,1,5329,2,2
33,239,bottle_liquid,./Images/bottle_liquid/e2_s2.jpg,1,1,4457.29999998212,2,2
33,239,bottle_liquid,./Images/bottle_liquid/e1_s2.jpg,0,1,4457.29999998212,1,2
33,240,lemon,./Images/lemon/e2_s1.jpg,1,2,2850.59999999404,2,1
33,240,lemon,./Images/lemon/e1_s2.jpg,1,2,2850.59999999404,1,2
33,241,mixer,./Images/mixer/e2_s1.jpg,0,1,4377.39999997616,2,1
33,241,mixer,./Images/mixer/e1_s2.jpg,1,1,4377.39999997616,1,2
33,242,reeses,./Images/reeses/e1_s1.jpg,0,0,2113.20000001788,1,1
33,242,reeses,./Images/reeses/e2_s2.jpg,0,0,2113.20000001788,2,2
33,243,baseball_glove,./Images/baseball_glove/e2_s1.jpg,1,2,2582.70000001788,2,1
33,243,baseball_glove,./Images/baseball_glove/e1_s1.jpg,1,2,2582.70000001788,1,1
33,244,menus,./Images/menus/e2_s2.jpg,0,1,5672.30000001192,2,2
33,244,menus,./Images/menus/e1_s1.jpg,1,1,5672.30000001192,1,1
33,245,sponge,./Images/sponge/e1_s1.jpg,1,2,2418.59999999404,1,1
33,245,sponge,./Images/sponge/e2_s2.jpg,1,2,2418.59999999404,2,2
33,246,phone_antique,./Images/phone_antique/e2_s2.jpg,1,2,2466,2,2
33,246,phone_antique,./Images/phone_antique/e1_s2.jpg,1,2,2466,1,2
33,247,car,./Images/car/e1_s2.jpg,1,2,6400.10000002384,1,2
33,247,car,./Images/car/e2_s1.jpg,1,2,6400.10000002384,2,1
33,248,usb_key,./Images/usb_key/e2_s2.jpg,0,1,1892.30000001192,2,2
33,248,usb_key,./Images/usb_key/e1_s1.jpg,1,1,1892.30000001192,1,1
33,249,poker_chips,./Images/poker_chips/e2_s2.jpg,1,2,4995.40000000596,2,2
33,249,poker_chips,./Images/poker_chips/e1_s2.jpg,1,2,4995.40000000596,1,2
33,250,plastic_bottle,./Images/plastic_bottle/e2_s2.jpg,1,2,3524.59999999404,2,2
33,250,plastic_bottle,./Images/plastic_bottle/e1_s1.jpg,1,2,3524.59999999404,1,1
33,251,cabbage,./Images/cabbage/e2_s2.jpg,1,2,3660.09999999404,2,2
33,251,cabbage,./Images/cabbage/e1_s1.jpg,1,2,3660.09999999404,1,1
33,252,leather_bag,./Images/leather_bag/e2_s1.jpg,1,2,1577.5,2,1
33,252,leather_bag,./Images/leather_bag/e1_s1.jpg,1,2,1577.5,1,1
33,253,locks,./Images/locks/e1_s1.jpg,1,1,2330.40000000596,1,1
33,253,locks,./Images/locks/e2_s2.jpg,0,1,2330.40000000596,2,2
33,254,cereal,./Images/cereal/e1_s1.jpg,1,1,2027,1,1
33,254,cereal,./Images/cereal/e2_s2.jpg,0,1,2027,2,2
33,255,clocks,./Images/clocks/e2_s2.jpg,0,0,1112.60000002384,2,2
33,255,clocks,./Images/clocks/e1_s2.jpg,0,0,1112.60000002384,1,2
33,256,canopener,./Images/canopener/e2_s2.jpg,0,1,926.700000017881,2,2
33,256,canopener,./Images/canopener/e1_s2.jpg,1,1,926.700000017881,1,2
33,257,chocolate_bar,./Images/chocolate_bar/e1_s2.jpg,1,1,715.400000005961,1,2
33,257,chocolate_bar,./Images/chocolate_bar/e2_s2.jpg,0,1,715.400000005961,2,2
33,258,menorah,./Images/menorah/e1_s1.jpg,0,0,661.299999982119,1,1
33,258,menorah,./Images/menorah/e2_s1.jpg,0,0,661.299999982119,2,1
33,259,shoe,./Images/shoe/e2_s2.jpg,0,0,1354.70000001788,2,2
33,259,shoe,./Images/shoe/e1_s2.jpg,0,0,1354.70000001788,1,2
33,260,chair_recliner,./Images/chair_recliner/e2_s2.jpg,1,2,543.400000005961,2,2
33,260,chair_recliner,./Images/chair_recliner/e1_s2.jpg,1,2,543.400000005961,1,2
33,261,metronome,./Images/metronome/e1_s2.jpg,1,2,613.699999988079,1,2
33,261,metronome,./Images/metronome/e2_s2.jpg,1,2,613.699999988079,2,2
33,262,hand_puppet,./Images/hand_puppet/e2_s1.jpg,0,0,1127,2,1
33,262,hand_puppet,./Images/hand_puppet/e1_s2.jpg,0,0,1127,1,2
33,263,cooking_pot,./Images/cooking_pot/e2_s2.jpg,1,2,2870.90000000596,2,2
33,263,cooking_pot,./Images/cooking_pot/e1_s2.jpg,1,2,2870.90000000596,1,2
33,264,notebook,./Images/notebook/e1_s1.jpg,1,2,1472.5,1,1
33,264,notebook,./Images/notebook/e2_s2.jpg,1,2,1472.5,2,2
33,265,scanner,./Images/scanner/e1_s1.jpg,0,1,2188.09999999404,1,1
33,265,scanner,./Images/scanner/e2_s1.jpg,1,1,2188.09999999404,2,1
33,266,paper_cup,./Images/paper_cup/e2_s1.jpg,0,0,1466,2,1
33,266,paper_cup,./Images/paper_cup/e1_s1.jpg,0,0,1466,1,1
33,267,cabinet,./Images/cabinet/e1_s2.jpg,0,1,1837.90000000596,1,2
33,267,cabinet,./Images/cabinet/e2_s2.jpg,1,1,1837.90000000596,2,2
33,268,tricycle,./Images/tricycle/e2_s2.jpg,0,0,3562.40000000596,2,2
33,268,tricycle,./Images/tricycle/e1_s2.jpg,0,0,3562.40000000596,1,2
33,269,book,./Images/book/e1_s1.jpg,1,1,3818.90000000596,1,1
33,269,book,./Images/book/e2_s1.jpg,0,1,3818.90000000596,2,1
33,270,keys,./Images/keys/e1_s1.jpg,1,1,2656.40000000596,1,1
33,270,keys,./Images/keys/e2_s2.jpg,0,1,2656.40000000596,2,2
33,271,altoid,./Images/altoid/e2_s1.jpg,0,1,2587.59999999404,2,1
33,271,altoid,./Images/altoid/e1_s1.jpg,1,1,2587.59999999404,1,1
33,272,coins,./Images/coins/e1_s2.jpg,0,0,3236,1,2
33,272,coins,./Images/coins/e2_s2.jpg,0,0,3236,2,2
33,273,wallet,./Images/wallet/e1_s1.jpg,1,1,4210.80000001192,1,1
33,273,wallet,./Images/wallet/e2_s1.jpg,0,1,4210.80000001192,2,1
33,274,tissues,./Images/tissues/e2_s1.jpg,1,1,1947.80000001192,2,1
33,274,tissues,./Images/tissues/e1_s1.jpg,0,1,1947.80000001192,1,1
33,275,peanut_butter,./Images/peanut_butter/e1_s1.jpg,0,1,2324,1,1
33,275,peanut_butter,./Images/peanut_butter/e2_s1.jpg,1,1,2324,2,1
33,276,sharpie_pens,./Images/sharpie_pens/e2_s1.jpg,1,2,2748,2,1
33,276,sharpie_pens,./Images/sharpie_pens/e1_s1.jpg,1,2,2748,1,1
33,277,apple,./Images/apple/e2_s1.jpg,1,2,2457.5,2,1
33,277,apple,./Images/apple/e1_s1.jpg,1,2,2457.5,1,1
33,278,pail,./Images/pail/e1_s1.jpg,0,1,1436.5,1,1
33,278,pail,./Images/pail/e2_s1.jpg,1,1,1436.5,2,1
33,279,headphone_small,./Images/headphone_small/e2_s2.jpg,1,2,2668.5,2,2
33,279,headphone_small,./Images/headphone_small/e1_s2.jpg,1,2,2668.5,1,2
33,280,flask,./Images/flask/e1_s1.jpg,0,1,1236.80000001192,1,1
33,280,flask,./Images/flask/e2_s1.jpg,1,1,1236.80000001192,2,1
33,281,book_object,./Images/book_object/e1_s1.jpg,0,0,980.799999982119,1,1
33,281,book_object,./Images/book_object/e2_s1.jpg,0,0,980.799999982119,2,1
33,282,dresser,./Images/dresser/e1_s1.jpg,0,1,989,1,1
33,282,dresser,./Images/dresser/e2_s2.jpg,1,1,989,2,2
33,283,fridge,./Images/fridge/e1_s2.jpg,0,1,1877.80000001192,1,2
33,283,fridge,./Images/fridge/e2_s1.jpg,1,1,1877.80000001192,2,1
33,284,container_open,./Images/container_open/e1_s1.jpg,1,2,1670.70000001788,1,1
33,284,container_open,./Images/container_open/e2_s1.jpg,1,2,1670.70000001788,2,1
33,285,file_folder,./Images/file_folder/e2_s2.jpg,1,1,4626.80000001192,2,2
33,285,file_folder,./Images/file_folder/e1_s1.jpg,0,1,4626.80000001192,1,1
33,286,lunchbox,./Images/lunchbox/e2_s2.jpg,0,1,2118.59999999404,2,2
33,286,lunchbox,./Images/lunchbox/e1_s1.jpg,1,1,2118.59999999404,1,1
33,287,drink,./Images/drink/e2_s2.jpg,0,0,1051.80000001192,2,2
33,287,drink,./Images/drink/e1_s2.jpg,0,0,1051.80000001192,1,2
33,288,lottery_ticket,./Images/lottery_ticket/e1_s2.jpg,1,1,1329.80000001192,1,2
33,288,lottery_ticket,./Images/lottery_ticket/e2_s2.jpg,0,1,1329.80000001192,2,2
33,289,glass_orange,./Images/glass_orange/e2_s2.jpg,1,1,1022.80000001192,2,2
33,289,glass_orange,./Images/glass_orange/e1_s1.jpg,0,1,1022.80000001192,1,1
33,290,umbrella,./Images/umbrella/e1_s1.jpg,1,2,916.90000000596,1,1
33,290,umbrella,./Images/umbrella/e2_s2.jpg,1,2,916.90000000596,2,2
33,291,oj,./Images/oj/e1_s2.jpg,1,1,935.699999988079,1,2
33,291,oj,./Images/oj/e2_s2.jpg,0,1,935.699999988079,2,2
33,292,coffeemug,./Images/coffeemug/e2_s1.jpg,0,0,780.199999988079,2,1
33,292,coffeemug,./Images/coffeemug/e1_s1.jpg,0,0,780.199999988079,1,1
33,293,gift_box,./Images/gift_box/e2_s1.jpg,1,2,819.800000011921,2,1
33,293,gift_box,./Images/gift_box/e1_s1.jpg,1,2,819.800000011921,1,1
33,294,gummy,./Images/gummy/e2_s2.jpg,0,0,2643.5,2,2
33,294,gummy,./Images/gummy/e1_s2.jpg,0,0,2643.5,1,2
33,295,mailbox,./Images/mailbox/e2_s2.jpg,0,0,946.800000011921,2,2
33,295,mailbox,./Images/mailbox/e1_s2.jpg,0,0,946.800000011921,1,2
33,296,small_box,./Images/small_box/e2_s1.jpg,1,2,1682,2,1
33,296,small_box,./Images/small_box/e1_s1.jpg,1,2,1682,1,1
33,297,yarn,./Images/yarn/e1_s2.jpg,1,2,1410.30000001192,1,2
33,297,yarn,./Images/yarn/e2_s1.jpg,1,2,1410.30000001192,2,1
33,298,file_box,./Images/file_box/e2_s2.jpg,1,1,1040.09999999404,2,2
33,298,file_box,./Images/file_box/e1_s2.jpg,0,1,1040.09999999404,1,2
33,299,pie,./Images/pie/e1_s1.jpg,1,1,1804,1,1
33,299,pie,./Images/pie/e2_s1.jpg,0,1,1804,2,1
33,300,breadbox,./Images/breadbox/e2_s1.jpg,0,0,770.300000011921,2,1
33,300,breadbox,./Images/breadbox/e1_s2.jpg,0,0,770.300000011921,1,2
33,301,bills,./Images/bills/e1_s2.jpg,1,2,1622,1,2
33,301,bills,./Images/bills/e2_s2.jpg,1,2,1622,2,2
33,302,tool_box,./Images/tool_box/e1_s1.jpg,0,1,907.299999982119,1,1
33,302,tool_box,./Images/tool_box/e2_s1.jpg,1,1,907.299999982119,2,1
33,303,aabacus,./Images/aabacus/e1_s2.jpg,0,1,2147.90000000596,1,2
33,303,aabacus,./Images/aabacus/e2_s2.jpg,1,1,2147.90000000596,2,2
33,304,hourglass,./Images/hourglass/e1_s1.jpg,1,2,3025.10000002384,1,1
33,304,hourglass,./Images/hourglass/e2_s1.jpg,1,2,3025.10000002384,2,1
33,305,backpack,./Images/backpack/e2_s1.jpg,1,2,1644.60000002384,2,1
33,305,backpack,./Images/backpack/e1_s1.jpg,1,2,1644.60000002384,1,1
31,206,baseball_glove,./Images/baseball_glove/e1_s2.jpg,1,1,14616.099999994,1,2
31,206,baseball_glove,./Images/baseball_glove/e2_s1.jpg,0,1,14616.099999994,2,1
31,207,phone,./Images/phone/e2_s1.jpg,0,1,8046.20000001788,2,1
31,207,phone,./Images/phone/e1_s1.jpg,1,1,8046.20000001788,1,1
31,208,plastic_bottle,./Images/plastic_bottle/e2_s2.jpg,1,1,4996.5,2,2
31,208,plastic_bottle,./Images/plastic_bottle/e1_s1.jpg,0,1,4996.5,1,1
31,209,poker_chips,./Images/poker_chips/e2_s1.jpg,1,2,2630.70000001788,2,1
31,209,poker_chips,./Images/poker_chips/e1_s2.jpg,1,2,2630.70000001788,1,2
31,210,breadbox,./Images/breadbox/e1_s1.jpg,0,0,6697.20000001788,1,1
31,210,breadbox,./Images/breadbox/e2_s2.jpg,0,0,6697.20000001788,2,2
31,211,sugar_paper,./Images/sugar_paper/e1_s1.jpg,0,1,3628.59999999404,1,1
31,211,sugar_paper,./Images/sugar_paper/e2_s2.jpg,1,1,3628.59999999404,2,2
31,212,metronome,./Images/metronome/e2_s2.jpg,1,1,3464.59999999404,2,2
31,212,metronome,./Images/metronome/e1_s2.jpg,0,1,3464.59999999404,1,2
31,213,chocolate,./Images/chocolate/e1_s1.jpg,1,2,3013.69999998808,1,1
31,213,chocolate,./Images/chocolate/e2_s2.jpg,1,2,3013.69999998808,2,2
31,214,notebook,./Images/notebook/e1_s1.jpg,1,2,2464.90000000596,1,1
31,214,notebook,./Images/notebook/e2_s1.jpg,1,2,2464.90000000596,2,1
31,215,clocks,./Images/clocks/e2_s2.jpg,0,0,11230.400000006,2,2
31,215,clocks,./Images/clocks/e1_s1.jpg,0,0,11230.400000006,1,1
31,216,bottle_liquid,./Images/bottle_liquid/e1_s2.jpg,0,1,3016,1,2
31,216,bottle_liquid,./Images/bottle_liquid/e2_s1.jpg,1,1,3016,2,1
31,217,cabinet,./Images/cabinet/e1_s1.jpg,1,2,3612.40000000596,1,1
31,217,cabinet,./Images/cabinet/e2_s1.jpg,1,2,3612.40000000596,2,1
31,218,headphone_small,./Images/headphone_small/e1_s2.jpg,1,2,3664,1,2
31,218,headphone_small,./Images/headphone_small/e2_s2.jpg,1,2,3664,2,2
31,219,mixer,./Images/mixer/e2_s1.jpg,0,1,4747.59999999404,2,1
31,219,mixer,./Images/mixer/e1_s2.jpg,1,1,4747.59999999404,1,2
31,220,theater_seats,./Images/theater_seats/e2_s2.jpg,1,2,4883.19999998808,2,2
31,220,theater_seats,./Images/theater_seats/e1_s2.jpg,1,2,4883.19999998808,1,2
31,221,pie,./Images/pie/e2_s2.jpg,1,1,2776.40000000596,2,2
31,221,pie,./Images/pie/e1_s1.jpg,0,1,2776.40000000596,1,1
31,222,microwave,./Images/microwave/e1_s2.jpg,1,2,4697.5,1,2
31,222,microwave,./Images/microwave/e2_s2.jpg,1,2,4697.5,2,2
31,223,cell,./Images/cell/e1_s1.jpg,1,2,7030,1,1
31,223,cell,./Images/cell/e2_s1.jpg,1,2,7030,2,1
31,224,corkscrew,./Images/corkscrew/e1_s1.jpg,1,2,5663.40000000596,1,1
31,224,corkscrew,./Images/corkscrew/e2_s2.jpg,1,2,5663.40000000596,2,2
31,225,tea_pot,./Images/tea_pot/e2_s1.jpg,0,1,4730.40000000596,2,1
31,225,tea_pot,./Images/tea_pot/e1_s2.jpg,1,1,4730.40000000596,1,2
31,226,file_folder,./Images/file_folder/e1_s1.jpg,1,1,3665.89999997616,1,1
31,226,file_folder,./Images/file_folder/e2_s1.jpg,0,1,3665.89999997616,2,1
31,227,dresser,./Images/dresser/e2_s1.jpg,1,2,3496,2,1
31,227,dresser,./Images/dresser/e1_s2.jpg,1,2,3496,1,2
31,228,pail,./Images/pail/e2_s2.jpg,1,2,2914.40000000596,2,2
31,228,pail,./Images/pail/e1_s1.jpg,1,2,2914.40000000596,1,1
31,229,scanner,./Images/scanner/e1_s1.jpg,1,2,5097.09999999404,1,1
31,229,scanner,./Images/scanner/e2_s2.jpg,1,2,5097.09999999404,2,2
31,230,typewriter,./Images/typewriter/e2_s1.jpg,1,2,3281.20000001788,2,1
31,230,typewriter,./Images/typewriter/e1_s1.jpg,1,2,3281.20000001788,1,1
31,231,accordion,./Images/accordion/e2_s2.jpg,1,1,2280.40000000596,2,2
31,231,accordion,./Images/accordion/e1_s1.jpg,0,1,2280.40000000596,1,1
31,232,pen,./Images/pen/e1_s1.jpg,1,2,2115.59999999404,1,1
31,232,pen,./Images/pen/e2_s1.jpg,1,2,2115.59999999404,2,1
31,233,flask,./Images/flask/e2_s2.jpg,1,2,3412.20000001788,2,2
31,233,flask,./Images/flask/e1_s2.jpg,1,2,3412.20000001788,1,2
31,234,toilet,./Images/toilet/e1_s1.jpg,0,1,4031,1,1
31,234,toilet,./Images/toilet/e2_s1.jpg,1,1,4031,2,1
31,235,mailbox,./Images/mailbox/e2_s2.jpg,1,2,2997.19999998808,2,2
31,235,mailbox,./Images/mailbox/e1_s1.jpg,1,2,2997.19999998808,1,1
31,236,cookie,./Images/cookie/e2_s1.jpg,1,2,3080.59999999404,2,1
31,236,cookie,./Images/cookie/e1_s1.jpg,1,2,3080.59999999404,1,1
31,237,umbrella,./Images/umbrella/e1_s2.jpg,0,1,9464.5,1,2
31,237,umbrella,./Images/umbrella/e2_s1.jpg,1,1,9464.5,2,1
31,238,canopener,./Images/canopener/e1_s1.jpg,0,1,2812.69999998808,1,1
31,238,canopener,./Images/canopener/e2_s1.jpg,1,1,2812.69999998808,2,1
31,239,container_open,./Images/container_open/e2_s1.jpg,1,2,4013.10000002384,2,1
31,239,container_open,./Images/container_open/e1_s1.jpg,1,2,4013.10000002384,1,1
31,240,aabacus,./Images/aabacus/e2_s1.jpg,0,0,2281,2,1
31,240,aabacus,./Images/aabacus/e1_s2.jpg,0,0,2281,1,2
31,241,peanut_butter,./Images/peanut_butter/e1_s1.jpg,1,2,4747.69999998808,1,1
31,241,peanut_butter,./Images/peanut_butter/e2_s1.jpg,1,2,4747.69999998808,2,1
31,242,tool_box,./Images/tool_box/e2_s1.jpg,1,2,2412.70000001788,2,1
31,242,tool_box,./Images/tool_box/e1_s1.jpg,1,2,2412.70000001788,1,1
31,243,yarn,./Images/yarn/e1_s1.jpg,1,2,3797.79999998212,1,1
31,243,yarn,./Images/yarn/e2_s1.jpg,1,2,3797.79999998212,2,1
31,244,tricycle,./Images/tricycle/e2_s1.jpg,1,2,6063.80000001192,2,1
31,244,tricycle,./Images/tricycle/e1_s2.jpg,1,2,6063.80000001192,1,2
31,245,small_box,./Images/small_box/e1_s1.jpg,1,2,2046.19999998808,1,1
31,245,small_box,./Images/small_box/e2_s2.jpg,1,2,2046.19999998808,2,2
31,246,menus,./Images/menus/e2_s1.jpg,1,2,2815.40000000596,2,1
31,246,menus,./Images/menus/e1_s1.jpg,1,2,2815.40000000596,1,1
31,247,shoe,./Images/shoe/e2_s1.jpg,1,2,1931.20000001788,2,1
31,247,shoe,./Images/shoe/e1_s1.jpg,1,2,1931.20000001788,1,1
31,248,coins,./Images/coins/e2_s2.jpg,0,1,5715.5,2,2
31,248,coins,./Images/coins/e1_s1.jpg,1,1,5715.5,1,1
31,249,sponge,./Images/sponge/e1_s1.jpg,0,1,4446.59999999404,1,1
31,249,sponge,./Images/sponge/e2_s2.jpg,1,1,4446.59999999404,2,2
31,250,laptop,./Images/laptop/e1_s1.jpg,0,0,4596.5,1,1
31,250,laptop,./Images/laptop/e2_s2.jpg,0,0,4596.5,2,2
31,251,locks,./Images/locks/e2_s1.jpg,1,1,2029.79999998212,2,1
31,251,locks,./Images/locks/e1_s1.jpg,0,1,2029.79999998212,1,1
31,252,paper_cup,./Images/paper_cup/e1_s1.jpg,1,2,2313.5,1,1
31,252,paper_cup,./Images/paper_cup/e2_s2.jpg,1,2,2313.5,2,2
31,253,cabbage,./Images/cabbage/e2_s2.jpg,0,1,3762.19999998808,2,2
31,253,cabbage,./Images/cabbage/e1_s2.jpg,1,1,3762.19999998808,1,2
31,254,reeses,./Images/reeses/e1_s1.jpg,0,1,2846.80000001192,1,1
31,254,reeses,./Images/reeses/e2_s2.jpg,1,1,2846.80000001192,2,2
31,255,gummy,./Images/gummy/e2_s1.jpg,1,1,2995.59999999404,2,1
31,255,gummy,./Images/gummy/e1_s2.jpg,0,1,2995.59999999404,1,2
31,256,coffeemug,./Images/coffeemug/e1_s2.jpg,1,1,3282.40000000596,1,2
31,256,coffeemug,./Images/coffeemug/e2_s1.jpg,0,1,3282.40000000596,2,1
31,257,glass_orange,./Images/glass_orange/e1_s2.jpg,1,1,1997,1,2
31,257,glass_orange,./Images/glass_orange/e2_s1.jpg,0,1,1997,2,1
31,258,gift_box,./Images/gift_box/e1_s1.jpg,0,0,2296.90000000596,1,1
31,258,gift_box,./Images/gift_box/e2_s1.jpg,0,0,2296.90000000596,2,1
31,259,soap,./Images/soap/e2_s2.jpg,1,2,2865.40000000596,2,2
31,259,soap,./Images/soap/e1_s1.jpg,1,2,2865.40000000596,1,1
31,260,cereal,./Images/cereal/e1_s2.jpg,1,2,2928.70000001788,1,2
31,260,cereal,./Images/cereal/e2_s1.jpg,1,2,2928.70000001788,2,1
31,261,fridge,./Images/fridge/e2_s2.jpg,1,2,3878.79999998212,2,2
31,261,fridge,./Images/fridge/e1_s1.jpg,1,2,3878.79999998212,1,1
31,262,lottery_ticket,./Images/lottery_ticket/e2_s1.jpg,0,1,4282.09999999404,2,1
31,262,lottery_ticket,./Images/lottery_ticket/e1_s2.jpg,1,1,4282.09999999404,1,2
31,263,scissors,./Images/scissors/e2_s2.jpg,1,2,3278.20000001788,2,2
31,263,scissors,./Images/scissors/e1_s1.jpg,1,2,3278.20000001788,1,1
31,264,hand_puppet,./Images/hand_puppet/e1_s1.jpg,1,2,3097.79999998212,1,1
31,264,hand_puppet,./Images/hand_puppet/e2_s2.jpg,1,2,3097.79999998212,2,2
31,265,chapstick,./Images/chapstick/e1_s1.jpg,1,2,2495.69999998808,1,1
31,265,chapstick,./Images/chapstick/e2_s2.jpg,1,2,2495.69999998808,2,2
31,266,drink,./Images/drink/e2_s1.jpg,1,2,2648.10000002384,2,1
31,266,drink,./Images/drink/e1_s2.jpg,1,2,2648.10000002384,1,2
31,267,bottle_perfume,./Images/bottle_perfume/e1_s2.jpg,0,0,1831.09999999404,1,2
31,267,bottle_perfume,./Images/bottle_perfume/e2_s1.jpg,0,0,1831.09999999404,2,1
31,268,mustard,./Images/mustard/e1_s1.jpg,1,1,2282.5,1,1
31,268,mustard,./Images/mustard/e2_s1.jpg,0,1,2282.5,2,1
31,269,file_box,./Images/file_box/e1_s1.jpg,1,2,3680.29999998212,1,1
31,269,file_box,./Images/file_box/e2_s1.jpg,1,2,3680.29999998212,2,1
31,270,phone_antique,./Images/phone_antique/e2_s2.jpg,0,1,4346.19999998808,2,2
31,270,phone_antique,./Images/phone_antique/e1_s1.jpg,1,1,4346.19999998808,1,1
31,271,toy_truck,./Images/toy_truck/e2_s1.jpg,0,0,3082.70000001788,2,1
31,271,toy_truck,./Images/toy_truck/e1_s1.jpg,0,0,3082.70000001788,1,1
31,272,lemon,./Images/lemon/e1_s2.jpg,1,2,4145,1,2
31,272,lemon,./Images/lemon/e2_s1.jpg,1,2,4145,2,1
31,273,garlic_press,./Images/garlic_press/e1_s1.jpg,0,0,1881.09999999404,1,1
31,273,garlic_press,./Images/garlic_press/e2_s2.jpg,0,0,1881.09999999404,2,2
31,274,cardbox,./Images/cardbox/e2_s2.jpg,1,1,2580.69999998808,2,2
31,274,cardbox,./Images/cardbox/e1_s1.jpg,0,1,2580.69999998808,1,1
31,275,oj,./Images/oj/e1_s1.jpg,0,0,2796.09999999404,1,1
31,275,oj,./Images/oj/e2_s2.jpg,0,0,2796.09999999404,2,2
31,276,book,./Images/book/e2_s1.jpg,0,1,3213.30000001192,2,1
31,276,book,./Images/book/e1_s1.jpg,1,1,3213.30000001192,1,1
31,277,tissues,./Images/tissues/e1_s1.jpg,1,2,2563.79999998212,1,1
31,277,tissues,./Images/tissues/e2_s2.jpg,1,2,2563.79999998212,2,2
31,278,chocolate_bar,./Images/chocolate_bar/e2_s1.jpg,0,1,1879.09999999404,2,1
31,278,chocolate_bar,./Images/chocolate_bar/e1_s2.jpg,1,1,1879.09999999404,1,2
31,279,leather_bag,./Images/leather_bag/e2_s1.jpg,1,2,1848.09999999404,2,1
31,279,leather_bag,./Images/leather_bag/e1_s2.jpg,1,2,1848.09999999404,1,2
31,280,hourglass,./Images/hourglass/e1_s1.jpg,1,2,3246.09999999404,1,1
31,280,hourglass,./Images/hourglass/e2_s1.jpg,1,2,3246.09999999404,2,1
31,281,usb_key,./Images/usb_key/e1_s1.jpg,0,0,2099.5,1,1
31,281,usb_key,./Images/usb_key/e2_s1.jpg,0,0,2099.5,2,1
31,282,dryer,./Images/dryer/e2_s2.jpg,1,1,2560.79999998212,2,2
31,282,dryer,./Images/dryer/e1_s1.jpg,0,1,2560.79999998212,1,1
31,283,chips,./Images/chips/e1_s2.jpg,0,0,3296,1,2
31,283,chips,./Images/chips/e2_s1.jpg,0,0,3296,2,1
31,284,backpack,./Images/backpack/e2_s2.jpg,0,1,5149.30000001192,2,2
31,284,backpack,./Images/backpack/e1_s2.jpg,1,1,5149.30000001192,1,2
31,285,cocktail_umbrella,./Images/cocktail_umbrella/e1_s2.jpg,0,1,2709.80000001192,1,2
31,285,cocktail_umbrella,./Images/cocktail_umbrella/e2_s1.jpg,1,1,2709.80000001192,2,1
31,286,tape_dispenser,./Images/tape_dispenser/e1_s1.jpg,1,2,3663.79999998212,1,1
31,286,tape_dispenser,./Images/tape_dispenser/e2_s2.jpg,1,2,3663.79999998212,2,2
31,287,cooking_pot,./Images/cooking_pot/e2_s2.jpg,1,1,4814.09999999404,2,2
31,287,cooking_pot,./Images/cooking_pot/e1_s1.jpg,0,1,4814.09999999404,1,1
31,288,donut,./Images/donut/e1_s1.jpg,1,2,2428.59999999404,1,1
31,288,donut,./Images/donut/e2_s2.jpg,1,2,2428.59999999404,2,2
31,289,book_object,./Images/book_object/e2_s1.jpg,1,2,2413.70000001788,2,1
31,289,book_object,./Images/book_object/e1_s2.jpg,1,2,2413.70000001788,1,2
31,290,kettle,./Images/kettle/e2_s2.jpg,1,2,2428.20000001788,2,2
31,290,kettle,./Images/kettle/e1_s2.jpg,1,2,2428.20000001788,1,2
31,291,bills,./Images/bills/e1_s2.jpg,1,2,2398.29999998212,1,2
31,291,bills,./Images/bills/e2_s1.jpg,1,2,2398.29999998212,2,1
31,292,sugar_bowl,./Images/sugar_bowl/e1_s1.jpg,0,0,2463,1,1
31,292,sugar_bowl,./Images/sugar_bowl/e2_s1.jpg,0,0,2463,2,1
31,293,chip,./Images/chip/e2_s1.jpg,0,1,3764.30000001192,2,1
31,293,chip,./Images/chip/e1_s2.jpg,1,1,3764.30000001192,1,2
31,294,car,./Images/car/e2_s2.jpg,0,0,7029.59999999404,2,2
31,294,car,./Images/car/e1_s1.jpg,0,0,7029.59999999404,1,1
31,295,altoid,./Images/altoid/e1_s1.jpg,0,1,2898.90000000596,1,1
31,295,altoid,./Images/altoid/e2_s1.jpg,1,1,2898.90000000596,2,1
31,296,apple,./Images/apple/e2_s2.jpg,1,2,3531.59999999404,2,2
31,296,apple,./Images/apple/e1_s1.jpg,1,2,3531.59999999404,1,1
31,297,wallet,./Images/wallet/e2_s1.jpg,0,0,2396.5,2,1
31,297,wallet,./Images/wallet/e1_s2.jpg,0,0,2396.5,1,2
31,298,keys,./Images/keys/e1_s2.jpg,1,2,1697.09999999404,1,2
31,298,keys,./Images/keys/e2_s1.jpg,1,2,1697.09999999404,2,1
31,299,menorah,./Images/menorah/e1_s2.jpg,1,2,5663.09999999404,1,2
31,299,menorah,./Images/menorah/e2_s2.jpg,1,2,5663.09999999404,2,2
31,300,tictac,./Images/tictac/e2_s1.jpg,1,1,2896.59999999404,2,1
31,300,tictac,./Images/tictac/e1_s1.jpg,0,1,2896.59999999404,1,1
31,301,sharpie_pens,./Images/sharpie_pens/e1_s2.jpg,1,1,2265,1,2
31,301,sharpie_pens,./Images/sharpie_pens/e2_s1.jpg,0,1,2265,2,1
31,302,lunchbox,./Images/lunchbox/e2_s2.jpg,1,2,3164.10000002384,2,2
31,302,lunchbox,./Images/lunchbox/e1_s1.jpg,1,2,3164.10000002384,1,1
31,303,chair_recliner,./Images/chair_recliner/e2_s2.jpg,1,1,2429.40000000596,2,2
31,303,chair_recliner,./Images/chair_recliner/e1_s1.jpg,0,1,2429.40000000596,1,1
31,304,lotion,./Images/lotion/e2_s1.jpg,1,2,1930.60000002384,2,1
31,304,lotion,./Images/lotion/e1_s2.jpg,1,2,1930.60000002384,1,2
31,305,watch,./Images/watch/e2_s1.jpg,0,1,2580.20000001788,2,1
31,305,watch,./Images/watch/e1_s2.jpg,1,1,2580.20000001788,1,2
26,206,file_folder,./Images/file_folder/e1_s1.jpg,0,1,5253.00000000006,1,1
26,206,file_folder,./Images/file_folder/e2_s1.jpg,1,1,5253.00000000006,2,1
26,207,tea_pot,./Images/tea_pot/e1_s1.jpg,0,1,2943,1,1
26,207,tea_pot,./Images/tea_pot/e2_s2.jpg,1,1,2943,2,2
26,208,poker_chips,./Images/poker_chips/e1_s2.jpg,0,0,2445,1,2
26,208,poker_chips,./Images/poker_chips/e2_s1.jpg,0,0,2445,2,1
26,209,flask,./Images/flask/e2_s1.jpg,1,2,1809.99999999994,2,1
26,209,flask,./Images/flask/e1_s2.jpg,1,2,1809.99999999994,1,2
26,210,bottle_perfume,./Images/bottle_perfume/e2_s2.jpg,1,1,2210.99999999994,2,2
26,210,bottle_perfume,./Images/bottle_perfume/e1_s1.jpg,0,1,2210.99999999994,1,1
26,211,cabinet,./Images/cabinet/e2_s1.jpg,1,1,1261,2,1
26,211,cabinet,./Images/cabinet/e1_s1.jpg,0,1,1261,1,1
26,212,small_box,./Images/small_box/e2_s1.jpg,1,2,1193.00000000006,2,1
26,212,small_box,./Images/small_box/e1_s1.jpg,1,2,1193.00000000006,1,1
26,213,watch,./Images/watch/e1_s2.jpg,0,1,1143,1,2
26,213,watch,./Images/watch/e2_s2.jpg,1,1,1143,2,2
26,214,chocolate_bar,./Images/chocolate_bar/e1_s1.jpg,0,0,1278,1,1
26,214,chocolate_bar,./Images/chocolate_bar/e2_s1.jpg,0,0,1278,2,1
26,215,chips,./Images/chips/e1_s2.jpg,0,1,2626,1,2
26,215,chips,./Images/chips/e2_s1.jpg,1,1,2626,2,1
26,216,lunchbox,./Images/lunchbox/e2_s2.jpg,1,2,2110,2,2
26,216,lunchbox,./Images/lunchbox/e1_s1.jpg,1,2,2110,1,1
26,217,lotion,./Images/lotion/e1_s1.jpg,1,2,1074,1,1
26,217,lotion,./Images/lotion/e2_s2.jpg,1,2,1074,2,2
26,218,tool_box,./Images/tool_box/e2_s2.jpg,0,1,1428,2,2
26,218,tool_box,./Images/tool_box/e1_s2.jpg,1,1,1428,1,2
26,219,notebook,./Images/notebook/e2_s1.jpg,1,2,1010,2,1
26,219,notebook,./Images/notebook/e1_s1.jpg,1,2,1010,1,1
26,220,container_open,./Images/container_open/e2_s1.jpg,1,1,1145,2,1
26,220,container_open,./Images/container_open/e1_s2.jpg,0,1,1145,1,2
26,221,fridge,./Images/fridge/e1_s1.jpg,0,1,3461,1,1
26,221,fridge,./Images/fridge/e2_s1.jpg,1,1,3461,2,1
26,222,reeses,./Images/reeses/e1_s1.jpg,1,2,4561.00000000006,1,1
26,222,reeses,./Images/reeses/e2_s2.jpg,1,2,4561.00000000006,2,2
26,223,yarn,./Images/yarn/e2_s1.jpg,1,2,3261,2,1
26,223,yarn,./Images/yarn/e1_s2.jpg,1,2,3261,1,2
26,224,shoe,./Images/shoe/e1_s1.jpg,1,2,2908,1,1
26,224,shoe,./Images/shoe/e2_s2.jpg,1,2,2908,2,2
26,225,bills,./Images/bills/e1_s1.jpg,1,2,1992.99999999994,1,1
26,225,bills,./Images/bills/e2_s2.jpg,1,2,1992.99999999994,2,2
26,226,lottery_ticket,./Images/lottery_ticket/e2_s2.jpg,1,2,1710.00000000006,2,2
26,226,lottery_ticket,./Images/lottery_ticket/e1_s1.jpg,1,2,1710.00000000006,1,1
26,227,drink,./Images/drink/e2_s2.jpg,1,1,1161.99999999988,2,2
26,227,drink,./Images/drink/e1_s2.jpg,0,1,1161.99999999988,1,2
26,228,kettle,./Images/kettle/e1_s2.jpg,0,1,960,1,2
26,228,kettle,./Images/kettle/e2_s2.jpg,1,1,960,2,2
26,229,menorah,./Images/menorah/e2_s2.jpg,1,2,7476.99999999994,2,2
26,229,menorah,./Images/menorah/e1_s2.jpg,1,2,7476.99999999994,1,2
26,230,hand_puppet,./Images/hand_puppet/e1_s2.jpg,0,1,1825,1,2
26,230,hand_puppet,./Images/hand_puppet/e2_s1.jpg,1,1,1825,2,1
26,231,book,./Images/book/e2_s2.jpg,1,1,1127,2,2
26,231,book,./Images/book/e1_s2.jpg,0,1,1127,1,2
26,232,keys,./Images/keys/e2_s1.jpg,1,2,1228,2,1
26,232,keys,./Images/keys/e1_s1.jpg,1,2,1228,1,1
26,233,dryer,./Images/dryer/e1_s2.jpg,0,0,1244,1,2
26,233,dryer,./Images/dryer/e2_s2.jpg,0,0,1244,2,2
26,234,sharpie_pens,./Images/sharpie_pens/e2_s1.jpg,1,1,1329,2,1
26,234,sharpie_pens,./Images/sharpie_pens/e1_s2.jpg,0,1,1329,1,2
26,235,corkscrew,./Images/corkscrew/e2_s1.jpg,1,2,3610.00000000012,2,1
26,235,corkscrew,./Images/corkscrew/e1_s1.jpg,1,2,3610.00000000012,1,1
26,236,mustard,./Images/mustard/e1_s1.jpg,0,0,3511,1,1
26,236,mustard,./Images/mustard/e2_s1.jpg,0,0,3511,2,1
26,237,gift_box,./Images/gift_box/e2_s2.jpg,1,1,1794,2,2
26,237,gift_box,./Images/gift_box/e1_s2.jpg,0,1,1794,1,2
26,238,microwave,./Images/microwave/e1_s1.jpg,0,0,3279,1,1
26,238,microwave,./Images/microwave/e2_s2.jpg,0,0,3279,2,2
26,239,tissues,./Images/tissues/e2_s2.jpg,1,2,1593,2,2
26,239,tissues,./Images/tissues/e1_s1.jpg,1,2,1593,1,1
26,240,cabbage,./Images/cabbage/e2_s1.jpg,1,2,1978,2,1
26,240,cabbage,./Images/cabbage/e1_s2.jpg,1,2,1978,1,2
26,241,car,./Images/car/e1_s2.jpg,0,1,2411,1,2
26,241,car,./Images/car/e2_s2.jpg,1,1,2411,2,2
26,242,chapstick,./Images/chapstick/e1_s1.jpg,1,1,4327.99999999988,1,1
26,242,chapstick,./Images/chapstick/e2_s1.jpg,0,1,4327.99999999988,2,1
26,243,garlic_press,./Images/garlic_press/e2_s2.jpg,1,2,2495,2,2
26,243,garlic_press,./Images/garlic_press/e1_s2.jpg,1,2,2495,1,2
26,244,phone_antique,./Images/phone_antique/e1_s1.jpg,0,0,1778,1,1
26,244,phone_antique,./Images/phone_antique/e2_s1.jpg,0,0,1778,2,1
26,245,backpack,./Images/backpack/e2_s2.jpg,0,1,1446,2,2
26,245,backpack,./Images/backpack/e1_s2.jpg,1,1,1446,1,2
26,246,gummy,./Images/gummy/e1_s2.jpg,1,2,1195,1,2
26,246,gummy,./Images/gummy/e2_s2.jpg,1,2,1195,2,2
26,247,sugar_paper,./Images/sugar_paper/e1_s1.jpg,1,1,5962,1,1
26,247,sugar_paper,./Images/sugar_paper/e2_s2.jpg,0,1,5962,2,2
26,248,paper_cup,./Images/paper_cup/e2_s2.jpg,0,1,1228,2,2
26,248,paper_cup,./Images/paper_cup/e1_s2.jpg,1,1,1228,1,2
26,249,plastic_bottle,./Images/plastic_bottle/e2_s1.jpg,1,1,1561,2,1
26,249,plastic_bottle,./Images/plastic_bottle/e1_s2.jpg,0,1,1561,1,2
26,250,cocktail_umbrella,./Images/cocktail_umbrella/e2_s1.jpg,1,2,1763,2,1
26,250,cocktail_umbrella,./Images/cocktail_umbrella/e1_s1.jpg,1,2,1763,1,1
26,251,metronome,./Images/metronome/e1_s2.jpg,1,1,1493.99999999988,1,2
26,251,metronome,./Images/metronome/e2_s1.jpg,0,1,1493.99999999988,2,1
26,252,file_box,./Images/file_box/e1_s2.jpg,0,1,1696,1,2
26,252,file_box,./Images/file_box/e2_s1.jpg,1,1,1696,2,1
26,253,tape_dispenser,./Images/tape_dispenser/e2_s1.jpg,0,0,2211,2,1
26,253,tape_dispenser,./Images/tape_dispenser/e1_s2.jpg,0,0,2211,1,2
26,254,scissors,./Images/scissors/e2_s1.jpg,1,2,1943,2,1
26,254,scissors,./Images/scissors/e1_s1.jpg,1,2,1943,1,1
26,255,pen,./Images/pen/e1_s1.jpg,1,2,1428,1,1
26,255,pen,./Images/pen/e2_s2.jpg,1,2,1428,2,2
26,256,toy_truck,./Images/toy_truck/e1_s2.jpg,1,2,1163,1,2
26,256,toy_truck,./Images/toy_truck/e2_s1.jpg,1,2,1163,2,1
26,257,sugar_bowl,./Images/sugar_bowl/e1_s1.jpg,1,2,1145,1,1
26,257,sugar_bowl,./Images/sugar_bowl/e2_s2.jpg,1,2,1145,2,2
26,258,soap,./Images/soap/e2_s1.jpg,1,2,1262,2,1
26,258,soap,./Images/soap/e1_s1.jpg,1,2,1262,1,1
26,259,lemon,./Images/lemon/e2_s1.jpg,1,2,1577,2,1
26,259,lemon,./Images/lemon/e1_s2.jpg,1,2,1577,1,2
26,260,tictac,./Images/tictac/e1_s2.jpg,1,2,1160.00000000012,1,2
26,260,tictac,./Images/tictac/e2_s1.jpg,1,2,1160.00000000012,2,1
26,261,pail,./Images/pail/e1_s2.jpg,0,1,1145,1,2
26,261,pail,./Images/pail/e2_s1.jpg,1,1,1145,2,1
26,262,headphone_small,./Images/headphone_small/e2_s2.jpg,1,2,1628,2,2
26,262,headphone_small,./Images/headphone_small/e1_s1.jpg,1,2,1628,1,1
26,263,phone,./Images/phone/e2_s2.jpg,1,2,1645,2,2
26,263,phone,./Images/phone/e1_s1.jpg,1,2,1645,1,1
26,264,pie,./Images/pie/e1_s2.jpg,0,1,1160,1,2
26,264,pie,./Images/pie/e2_s2.jpg,1,1,1160,2,2
26,265,canopener,./Images/canopener/e2_s2.jpg,0,1,1080,2,2
26,265,canopener,./Images/canopener/e1_s2.jpg,1,1,1080,1,2
26,266,coins,./Images/coins/e2_s2.jpg,1,1,912,2,2
26,266,coins,./Images/coins/e1_s1.jpg,0,1,912,1,1
26,267,tricycle,./Images/tricycle/e2_s2.jpg,1,1,897,2,2
26,267,tricycle,./Images/tricycle/e1_s1.jpg,0,1,897,1,1
26,268,altoid,./Images/altoid/e2_s1.jpg,1,2,862,2,1
26,268,altoid,./Images/altoid/e1_s2.jpg,1,2,862,1,2
26,269,aabacus,./Images/aabacus/e2_s1.jpg,0,1,1545,2,1
26,269,aabacus,./Images/aabacus/e1_s2.jpg,1,1,1545,1,2
26,270,cardbox,./Images/cardbox/e1_s2.jpg,1,1,778,1,2
26,270,cardbox,./Images/cardbox/e2_s1.jpg,0,1,778,2,1
26,271,cooking_pot,./Images/cooking_pot/e1_s1.jpg,0,1,927,1,1
26,271,cooking_pot,./Images/cooking_pot/e2_s1.jpg,1,1,927,2,1
26,272,mailbox,./Images/mailbox/e1_s2.jpg,0,1,863,1,2
26,272,mailbox,./Images/mailbox/e2_s2.jpg,1,1,863,2,2
26,273,bottle_liquid,./Images/bottle_liquid/e2_s1.jpg,1,2,1029,2,1
26,273,bottle_liquid,./Images/bottle_liquid/e1_s2.jpg,1,2,1029,1,2
26,274,cell,./Images/cell/e1_s1.jpg,0,1,863,1,1
26,274,cell,./Images/cell/e2_s2.jpg,1,1,863,2,2
26,275,hourglass,./Images/hourglass/e1_s1.jpg,0,0,862.999999999884,1,1
26,275,hourglass,./Images/hourglass/e2_s2.jpg,0,0,862.999999999884,2,2
26,276,breadbox,./Images/breadbox/e2_s1.jpg,0,1,895,2,1
26,276,breadbox,./Images/breadbox/e1_s1.jpg,1,1,895,1,1
26,277,mixer,./Images/mixer/e1_s1.jpg,1,2,846.999999999884,1,1
26,277,mixer,./Images/mixer/e2_s1.jpg,1,2,846.999999999884,2,1
26,278,donut,./Images/donut/e1_s2.jpg,0,0,1530,1,2
26,278,donut,./Images/donut/e2_s2.jpg,0,0,1530,2,2
26,279,umbrella,./Images/umbrella/e1_s1.jpg,0,1,2162,1,1
26,279,umbrella,./Images/umbrella/e2_s2.jpg,1,1,2162,2,2
26,280,menus,./Images/menus/e1_s2.jpg,0,1,746,1,2
26,280,menus,./Images/menus/e2_s1.jpg,1,1,746,2,1
26,281,accordion,./Images/accordion/e2_s1.jpg,0,0,710,2,1
26,281,accordion,./Images/accordion/e1_s2.jpg,0,0,710,1,2
26,282,oj,./Images/oj/e1_s1.jpg,1,2,712,1,1
26,282,oj,./Images/oj/e2_s2.jpg,1,2,712,2,2
26,283,leather_bag,./Images/leather_bag/e2_s1.jpg,1,1,1413,2,1
26,283,leather_bag,./Images/leather_bag/e1_s2.jpg,0,1,1413,1,2
26,284,coffeemug,./Images/coffeemug/e2_s2.jpg,1,2,908.999999999884,2,2
26,284,coffeemug,./Images/coffeemug/e1_s1.jpg,1,2,908.999999999884,1,1
26,285,chair_recliner,./Images/chair_recliner/e2_s2.jpg,1,2,1129.99999999988,2,2
26,285,chair_recliner,./Images/chair_recliner/e1_s2.jpg,1,2,1129.99999999988,1,2
26,286,wallet,./Images/wallet/e2_s1.jpg,1,1,1245,2,1
26,286,wallet,./Images/wallet/e1_s1.jpg,0,1,1245,1,1
26,287,chip,./Images/chip/e1_s2.jpg,1,2,929,1,2
26,287,chip,./Images/chip/e2_s1.jpg,1,2,929,2,1
26,288,clocks,./Images/clocks/e1_s2.jpg,0,1,1161.99999999988,1,2
26,288,clocks,./Images/clocks/e2_s1.jpg,1,1,1161.99999999988,2,1
26,289,theater_seats,./Images/theater_seats/e1_s2.jpg,0,1,1029,1,2
26,289,theater_seats,./Images/theater_seats/e2_s1.jpg,1,1,1029,2,1
26,290,peanut_butter,./Images/peanut_butter/e1_s2.jpg,0,0,895,1,2
26,290,peanut_butter,./Images/peanut_butter/e2_s2.jpg,0,0,895,2,2
26,291,usb_key,./Images/usb_key/e2_s2.jpg,0,0,929,2,2
26,291,usb_key,./Images/usb_key/e1_s2.jpg,0,0,929,1,2
26,292,locks,./Images/locks/e1_s1.jpg,1,2,1178,1,1
26,292,locks,./Images/locks/e2_s1.jpg,1,2,1178,2,1
26,293,toilet,./Images/toilet/e2_s1.jpg,0,1,1095,2,1
26,293,toilet,./Images/toilet/e1_s1.jpg,1,1,1095,1,1
26,294,cereal,./Images/cereal/e1_s1.jpg,0,0,1862,1,1
26,294,cereal,./Images/cereal/e2_s1.jpg,0,0,1862,2,1
26,295,scanner,./Images/scanner/e2_s2.jpg,0,1,880,2,2
26,295,scanner,./Images/scanner/e1_s1.jpg,1,1,880,1,1
26,296,glass_orange,./Images/glass_orange/e2_s1.jpg,0,0,1045.99999999988,2,1
26,296,glass_orange,./Images/glass_orange/e1_s2.jpg,0,0,1045.99999999988,1,2
26,297,book_object,./Images/book_object/e1_s2.jpg,0,1,894,1,2
26,297,book_object,./Images/book_object/e2_s1.jpg,1,1,894,2,1
26,298,dresser,./Images/dresser/e1_s2.jpg,0,1,795,1,2
26,298,dresser,./Images/dresser/e2_s1.jpg,1,1,795,2,1
26,299,baseball_glove,./Images/baseball_glove/e1_s1.jpg,0,0,880,1,1
26,299,baseball_glove,./Images/baseball_glove/e2_s2.jpg,0,0,880,2,2
26,300,laptop,./Images/laptop/e1_s1.jpg,0,1,1146,1,1
26,300,laptop,./Images/laptop/e2_s2.jpg,1,1,1146,2,2
26,301,typewriter,./Images/typewriter/e1_s2.jpg,1,2,1512,1,2
26,301,typewriter,./Images/typewriter/e2_s2.jpg,1,2,1512,2,2
26,302,chocolate,./Images/chocolate/e2_s2.jpg,1,2,964,2,2
26,302,chocolate,./Images/chocolate/e1_s2.jpg,1,2,964,1,2
26,303,sponge,./Images/sponge/e2_s1.jpg,1,2,980.999999999884,2,1
26,303,sponge,./Images/sponge/e1_s2.jpg,1,2,980.999999999884,1,2
26,304,cookie,./Images/cookie/e1_s2.jpg,1,2,1812,1,2
26,304,cookie,./Images/cookie/e2_s2.jpg,1,2,1812,2,2
26,305,apple,./Images/apple/e2_s2.jpg,0,1,1111,2,2
26,305,apple,./Images/apple/e1_s1.jpg,1,1,1111,1,1
22,206,tape_dispenser,./Images/tape_dispenser/e2_s2.jpg,1,2,9638,2,2
22,206,tape_dispenser,./Images/tape_dispenser/e1_s2.jpg,1,2,9638,1,2
22,207,toy_truck,./Images/toy_truck/e1_s1.jpg,1,1,3530,1,1
22,207,toy_truck,./Images/toy_truck/e2_s1.jpg,0,1,3530,2,1
22,208,typewriter,./Images/typewriter/e2_s1.jpg,0,1,7345,2,1
22,208,typewriter,./Images/typewriter/e1_s2.jpg,1,1,7345,1,2
22,209,breadbox,./Images/breadbox/e1_s2.jpg,1,1,3914.00000000006,1,2
22,209,breadbox,./Images/breadbox/e2_s1.jpg,0,1,3914.00000000006,2,1
22,210,sharpie_pens,./Images/sharpie_pens/e1_s2.jpg,1,1,4312.99999999994,1,2
22,210,sharpie_pens,./Images/sharpie_pens/e2_s1.jpg,0,1,4312.99999999994,2,1
22,211,cell,./Images/cell/e1_s1.jpg,0,0,5597,1,1
22,211,cell,./Images/cell/e2_s2.jpg,0,0,5597,2,2
22,212,locks,./Images/locks/e2_s2.jpg,1,1,3295.00000000006,2,2
22,212,locks,./Images/locks/e1_s1.jpg,0,1,3295.00000000006,1,1
22,213,watch,./Images/watch/e2_s1.jpg,1,1,3495.99999999994,2,1
22,213,watch,./Images/watch/e1_s2.jpg,0,1,3495.99999999994,1,2
22,214,metronome,./Images/metronome/e2_s2.jpg,0,0,2463.00000000006,2,2
22,214,metronome,./Images/metronome/e1_s2.jpg,0,0,2463.00000000006,1,2
22,215,mustard,./Images/mustard/e2_s1.jpg,1,2,3012,2,1
22,215,mustard,./Images/mustard/e1_s1.jpg,1,2,3012,1,1
22,216,laptop,./Images/laptop/e2_s2.jpg,1,1,4896,2,2
22,216,laptop,./Images/laptop/e1_s2.jpg,0,1,4896,1,2
22,217,theater_seats,./Images/theater_seats/e2_s2.jpg,1,1,3047.00000000006,2,2
22,217,theater_seats,./Images/theater_seats/e1_s2.jpg,0,1,3047.00000000006,1,2
22,218,kettle,./Images/kettle/e2_s2.jpg,0,1,2165,2,2
22,218,kettle,./Images/kettle/e1_s1.jpg,1,1,2165,1,1
22,219,flask,./Images/flask/e2_s1.jpg,0,0,3144.00000000006,2,1
22,219,flask,./Images/flask/e1_s2.jpg,0,0,3144.00000000006,1,2
22,220,book_object,./Images/book_object/e1_s1.jpg,0,0,3298,1,1
22,220,book_object,./Images/book_object/e2_s1.jpg,0,0,3298,2,1
22,221,cabinet,./Images/cabinet/e1_s1.jpg,1,1,1810.99999999988,1,1
22,221,cabinet,./Images/cabinet/e2_s2.jpg,0,1,1810.99999999988,2,2
22,222,drink,./Images/drink/e2_s1.jpg,1,1,4414.99999999994,2,1
22,222,drink,./Images/drink/e1_s2.jpg,0,1,4414.99999999994,1,2
22,223,backpack,./Images/backpack/e2_s1.jpg,1,2,2247.00000000006,2,1
22,223,backpack,./Images/backpack/e1_s2.jpg,1,2,2247.00000000006,1,2
22,224,poker_chips,./Images/poker_chips/e1_s2.jpg,1,2,3431.99999999994,1,2
22,224,poker_chips,./Images/poker_chips/e2_s1.jpg,1,2,3431.99999999994,2,1
22,225,notebook,./Images/notebook/e2_s1.jpg,0,0,2313,2,1
22,225,notebook,./Images/notebook/e1_s2.jpg,0,0,2313,1,2
22,226,cocktail_umbrella,./Images/cocktail_umbrella/e1_s2.jpg,1,2,2296.99999999988,1,2
22,226,cocktail_umbrella,./Images/cocktail_umbrella/e2_s1.jpg,1,2,2296.99999999988,2,1
22,227,container_open,./Images/container_open/e1_s1.jpg,0,0,2479,1,1
22,227,container_open,./Images/container_open/e2_s2.jpg,0,0,2479,2,2
22,228,mailbox,./Images/mailbox/e2_s1.jpg,0,0,2046,2,1
22,228,mailbox,./Images/mailbox/e1_s1.jpg,0,0,2046,1,1
22,229,aabacus,./Images/aabacus/e2_s2.jpg,0,0,2711.00000000012,2,2
22,229,aabacus,./Images/aabacus/e1_s2.jpg,0,0,2711.00000000012,1,2
22,230,sugar_bowl,./Images/sugar_bowl/e1_s2.jpg,1,2,1981,1,2
22,230,sugar_bowl,./Images/sugar_bowl/e2_s2.jpg,1,2,1981,2,2
22,231,phone_antique,./Images/phone_antique/e1_s2.jpg,1,2,2214,1,2
22,231,phone_antique,./Images/phone_antique/e2_s2.jpg,1,2,2214,2,2
22,232,fridge,./Images/fridge/e1_s1.jpg,0,0,2980,1,1
22,232,fridge,./Images/fridge/e2_s1.jpg,0,0,2980,2,1
22,233,clocks,./Images/clocks/e2_s2.jpg,1,2,2797,2,2
22,233,clocks,./Images/clocks/e1_s1.jpg,1,2,2797,1,1
22,234,menorah,./Images/menorah/e2_s1.jpg,1,2,2312.99999999988,2,1
22,234,menorah,./Images/menorah/e1_s1.jpg,1,2,2312.99999999988,1,1
22,235,pie,./Images/pie/e2_s2.jpg,1,1,4080,2,2
22,235,pie,./Images/pie/e1_s1.jpg,0,1,4080,1,1
22,236,oj,./Images/oj/e1_s2.jpg,0,1,3031.00000000012,1,2
22,236,oj,./Images/oj/e2_s1.jpg,1,1,3031.00000000012,2,1
22,237,cookie,./Images/cookie/e2_s1.jpg,0,1,2633,2,1
22,237,cookie,./Images/cookie/e1_s2.jpg,1,1,2633,1,2
22,238,soap,./Images/soap/e1_s1.jpg,0,1,3514,1,1
22,238,soap,./Images/soap/e2_s1.jpg,1,1,3514,2,1
22,239,glass_orange,./Images/glass_orange/e2_s1.jpg,0,1,2583,2,1
22,239,glass_orange,./Images/glass_orange/e1_s1.jpg,1,1,2583,1,1
22,240,small_box,./Images/small_box/e2_s2.jpg,0,0,2513,2,2
22,240,small_box,./Images/small_box/e1_s2.jpg,0,0,2513,1,2
22,241,cardbox,./Images/cardbox/e2_s1.jpg,1,1,2198,2,1
22,241,cardbox,./Images/cardbox/e1_s2.jpg,0,1,2198,1,2
22,242,dresser,./Images/dresser/e1_s1.jpg,0,0,2198,1,1
22,242,dresser,./Images/dresser/e2_s1.jpg,0,0,2198,2,1
22,243,tissues,./Images/tissues/e1_s1.jpg,1,1,2083,1,1
22,243,tissues,./Images/tissues/e2_s2.jpg,0,1,2083,2,2
22,244,tea_pot,./Images/tea_pot/e2_s1.jpg,0,0,2330,2,1
22,244,tea_pot,./Images/tea_pot/e1_s1.jpg,0,0,2330,1,1
22,245,wallet,./Images/wallet/e2_s1.jpg,0,0,1682,2,1
22,245,wallet,./Images/wallet/e1_s2.jpg,0,0,1682,1,2
22,246,sponge,./Images/sponge/e2_s2.jpg,1,2,2000,2,2
22,246,sponge,./Images/sponge/e1_s1.jpg,1,2,2000,1,1
22,247,file_folder,./Images/file_folder/e1_s2.jpg,1,1,2948,1,2
22,247,file_folder,./Images/file_folder/e2_s1.jpg,0,1,2948,2,1
22,248,menus,./Images/menus/e2_s2.jpg,1,2,2533,2,2
22,248,menus,./Images/menus/e1_s1.jpg,1,2,2533,1,1
22,249,coffeemug,./Images/coffeemug/e1_s2.jpg,0,1,1683,1,2
22,249,coffeemug,./Images/coffeemug/e2_s2.jpg,1,1,1683,2,2
22,250,pail,./Images/pail/e1_s1.jpg,1,2,1865,1,1
22,250,pail,./Images/pail/e2_s2.jpg,1,2,1865,2,2
22,251,cabbage,./Images/cabbage/e1_s2.jpg,0,1,1767,1,2
22,251,cabbage,./Images/cabbage/e2_s2.jpg,1,1,1767,2,2
22,252,altoid,./Images/altoid/e1_s1.jpg,1,2,1865,1,1
22,252,altoid,./Images/altoid/e2_s1.jpg,1,2,1865,2,1
22,253,plastic_bottle,./Images/plastic_bottle/e2_s2.jpg,1,2,3017.00000000012,2,2
22,253,plastic_bottle,./Images/plastic_bottle/e1_s1.jpg,1,2,3017.00000000012,1,1
22,254,canopener,./Images/canopener/e2_s2.jpg,1,1,1714,2,2
22,254,canopener,./Images/canopener/e1_s2.jpg,0,1,1714,1,2
22,255,book,./Images/book/e2_s1.jpg,0,0,1699,2,1
22,255,book,./Images/book/e1_s1.jpg,0,0,1699,1,1
22,256,dryer,./Images/dryer/e2_s1.jpg,1,2,1965,2,1
22,256,dryer,./Images/dryer/e1_s1.jpg,1,2,1965,1,1
22,257,accordion,./Images/accordion/e2_s2.jpg,1,1,2565.99999999988,2,2
22,257,accordion,./Images/accordion/e1_s2.jpg,0,1,2565.99999999988,1,2
22,258,garlic_press,./Images/garlic_press/e1_s1.jpg,1,2,1913,1,1
22,258,garlic_press,./Images/garlic_press/e2_s1.jpg,1,2,1913,2,1
22,259,gift_box,./Images/gift_box/e1_s1.jpg,0,1,2367,1,1
22,259,gift_box,./Images/gift_box/e2_s1.jpg,1,1,2367,2,1
22,260,gummy,./Images/gummy/e2_s2.jpg,0,1,4084,2,2
22,260,gummy,./Images/gummy/e1_s2.jpg,1,1,4084,1,2
22,261,bills,./Images/bills/e2_s1.jpg,1,1,2014,2,1
22,261,bills,./Images/bills/e1_s1.jpg,0,1,2014,1,1
22,262,sugar_paper,./Images/sugar_paper/e2_s1.jpg,1,1,2148,2,1
22,262,sugar_paper,./Images/sugar_paper/e1_s1.jpg,0,1,2148,1,1
22,263,tictac,./Images/tictac/e1_s2.jpg,0,0,2282.00000000012,1,2
22,263,tictac,./Images/tictac/e2_s2.jpg,0,0,2282.00000000012,2,2
22,264,keys,./Images/keys/e1_s1.jpg,0,1,2566,1,1
22,264,keys,./Images/keys/e2_s1.jpg,1,1,2566,2,1
22,265,coins,./Images/coins/e1_s2.jpg,0,1,2448,1,2
22,265,coins,./Images/coins/e2_s2.jpg,1,1,2448,2,2
22,266,reeses,./Images/reeses/e1_s2.jpg,1,1,2335,1,2
22,266,reeses,./Images/reeses/e2_s2.jpg,0,1,2335,2,2
22,267,usb_key,./Images/usb_key/e1_s1.jpg,1,1,1918,1,1
22,267,usb_key,./Images/usb_key/e2_s2.jpg,0,1,1918,2,2
22,268,chapstick,./Images/chapstick/e1_s1.jpg,0,1,2481.00000000012,1,1
22,268,chapstick,./Images/chapstick/e2_s1.jpg,1,1,2481.00000000012,2,1
22,269,scissors,./Images/scissors/e2_s1.jpg,0,0,1765,2,1
22,269,scissors,./Images/scissors/e1_s2.jpg,0,0,1765,1,2
22,270,chip,./Images/chip/e1_s2.jpg,1,1,1800,1,2
22,270,chip,./Images/chip/e2_s2.jpg,0,1,1800,2,2
22,271,paper_cup,./Images/paper_cup/e2_s2.jpg,0,1,1568,2,2
22,271,paper_cup,./Images/paper_cup/e1_s2.jpg,1,1,1568,1,2
22,272,mixer,./Images/mixer/e1_s2.jpg,0,1,1749,1,2
22,272,mixer,./Images/mixer/e2_s2.jpg,1,1,1749,2,2
22,273,umbrella,./Images/umbrella/e2_s2.jpg,1,2,1967,2,2
22,273,umbrella,./Images/umbrella/e1_s2.jpg,1,2,1967,1,2
22,274,car,./Images/car/e1_s2.jpg,1,2,1800,1,2
22,274,car,./Images/car/e2_s2.jpg,1,2,1800,2,2
22,275,cereal,./Images/cereal/e2_s2.jpg,1,1,2467,2,2
22,275,cereal,./Images/cereal/e1_s2.jpg,0,1,2467,1,2
22,276,peanut_butter,./Images/peanut_butter/e1_s1.jpg,1,2,2216,1,1
22,276,peanut_butter,./Images/peanut_butter/e2_s1.jpg,1,2,2216,2,1
22,277,apple,./Images/apple/e2_s1.jpg,1,1,1932.99999999988,2,1
22,277,apple,./Images/apple/e1_s1.jpg,0,1,1932.99999999988,1,1
22,278,lemon,./Images/lemon/e1_s2.jpg,1,2,4048.99999999988,1,2
22,278,lemon,./Images/lemon/e2_s2.jpg,1,2,4048.99999999988,2,2
22,279,chocolate_bar,./Images/chocolate_bar/e1_s1.jpg,0,1,2548,1,1
22,279,chocolate_bar,./Images/chocolate_bar/e2_s1.jpg,1,1,2548,2,1
22,280,yarn,./Images/yarn/e2_s2.jpg,1,2,3433,2,2
22,280,yarn,./Images/yarn/e1_s2.jpg,1,2,3433,1,2
22,281,chocolate,./Images/chocolate/e1_s1.jpg,0,1,2415,1,1
22,281,chocolate,./Images/chocolate/e2_s1.jpg,1,1,2415,2,1
22,282,leather_bag,./Images/leather_bag/e1_s2.jpg,1,2,1435,1,2
22,282,leather_bag,./Images/leather_bag/e2_s2.jpg,1,2,1435,2,2
22,283,hourglass,./Images/hourglass/e2_s2.jpg,0,0,1434.99999999988,2,2
22,283,hourglass,./Images/hourglass/e1_s1.jpg,0,0,1434.99999999988,1,1
22,284,chips,./Images/chips/e2_s2.jpg,1,2,2985,2,2
22,284,chips,./Images/chips/e1_s1.jpg,1,2,2985,1,1
22,285,tricycle,./Images/tricycle/e1_s2.jpg,0,1,2001,1,2
22,285,tricycle,./Images/tricycle/e2_s1.jpg,1,1,2001,2,1
22,286,corkscrew,./Images/corkscrew/e2_s2.jpg,1,2,1734,2,2
22,286,corkscrew,./Images/corkscrew/e1_s1.jpg,1,2,1734,1,1
22,287,bottle_perfume,./Images/bottle_perfume/e1_s2.jpg,1,1,1281,1,2
22,287,bottle_perfume,./Images/bottle_perfume/e2_s2.jpg,0,1,1281,2,2
22,288,scanner,./Images/scanner/e1_s2.jpg,1,2,1151.99999999988,1,2
22,288,scanner,./Images/scanner/e2_s1.jpg,1,2,1151.99999999988,2,1
22,289,cooking_pot,./Images/cooking_pot/e2_s2.jpg,0,0,1200.99999999988,2,2
22,289,cooking_pot,./Images/cooking_pot/e1_s2.jpg,0,0,1200.99999999988,1,2
22,290,lunchbox,./Images/lunchbox/e1_s1.jpg,0,0,1316,1,1
22,290,lunchbox,./Images/lunchbox/e2_s1.jpg,0,0,1316,2,1
22,291,hand_puppet,./Images/hand_puppet/e2_s1.jpg,0,0,1866,2,1
22,291,hand_puppet,./Images/hand_puppet/e1_s2.jpg,0,0,1866,1,2
22,292,donut,./Images/donut/e2_s1.jpg,1,2,1969,2,1
22,292,donut,./Images/donut/e1_s2.jpg,1,2,1969,1,2
22,293,chair_recliner,./Images/chair_recliner/e2_s2.jpg,1,1,1502,2,2
22,293,chair_recliner,./Images/chair_recliner/e1_s2.jpg,0,1,1502,1,2
22,294,bottle_liquid,./Images/bottle_liquid/e2_s2.jpg,0,0,1168,2,2
22,294,bottle_liquid,./Images/bottle_liquid/e1_s2.jpg,0,0,1168,1,2
22,295,tool_box,./Images/tool_box/e2_s1.jpg,0,1,1185,2,1
22,295,tool_box,./Images/tool_box/e1_s2.jpg,1,1,1185,1,2
22,296,microwave,./Images/microwave/e2_s2.jpg,0,0,1767,2,2
22,296,microwave,./Images/microwave/e1_s2.jpg,0,0,1767,1,2
22,297,toilet,./Images/toilet/e2_s1.jpg,1,2,1853,2,1
22,297,toilet,./Images/toilet/e1_s1.jpg,1,2,1853,1,1
22,298,headphone_small,./Images/headphone_small/e2_s2.jpg,1,2,2002,2,2
22,298,headphone_small,./Images/headphone_small/e1_s2.jpg,1,2,2002,1,2
22,299,file_box,./Images/file_box/e2_s1.jpg,0,1,1519,2,1
22,299,file_box,./Images/file_box/e1_s1.jpg,1,1,1519,1,1
22,300,phone,./Images/phone/e1_s1.jpg,0,1,1836,1,1
22,300,phone,./Images/phone/e2_s1.jpg,1,1,1836,2,1
22,301,pen,./Images/pen/e1_s1.jpg,1,2,1618,1,1
22,301,pen,./Images/pen/e2_s1.jpg,1,2,1618,2,1
22,302,baseball_glove,./Images/baseball_glove/e1_s2.jpg,1,2,1636,1,2
22,302,baseball_glove,./Images/baseball_glove/e2_s1.jpg,1,2,1636,2,1
22,303,lotion,./Images/lotion/e1_s1.jpg,0,0,2386,1,1
22,303,lotion,./Images/lotion/e2_s1.jpg,0,0,2386,2,1
22,304,lottery_ticket,./Images/lottery_ticket/e1_s2.jpg,0,1,2202,1,2
22,304,lottery_ticket,./Images/lottery_ticket/e2_s2.jpg,1,1,2202,2,2
22,305,shoe,./Images/shoe/e2_s2.jpg,1,2,1933,2,2
22,305,shoe,./Images/shoe/e1_s2.jpg,1,2,1933,1,2
20,206,chocolate,./Images/chocolate/e1_s2.jpg,1,2,8671.5,1,2
20,206,chocolate,./Images/chocolate/e2_s2.jpg,1,2,8671.5,2,2
20,207,accordion,./Images/accordion/e2_s1.jpg,1,2,7951.10000000149,2,1
20,207,accordion,./Images/accordion/e1_s2.jpg,1,2,7951.10000000149,1,2
20,208,dresser,./Images/dresser/e2_s1.jpg,1,2,6326.60000000149,2,1
20,208,dresser,./Images/dresser/e1_s1.jpg,1,2,6326.60000000149,1,1
20,209,peanut_butter,./Images/peanut_butter/e1_s2.jpg,0,0,6472.19999999553,1,2
20,209,peanut_butter,./Images/peanut_butter/e2_s1.jpg,0,0,6472.19999999553,2,1
20,210,corkscrew,./Images/corkscrew/e2_s2.jpg,0,0,5759.79999999702,2,2
20,210,corkscrew,./Images/corkscrew/e1_s1.jpg,0,0,5759.79999999702,1,1
20,211,yarn,./Images/yarn/e1_s2.jpg,1,1,7229.19999999553,1,2
20,211,yarn,./Images/yarn/e2_s2.jpg,0,1,7229.19999999553,2,2
20,212,cardbox,./Images/cardbox/e2_s1.jpg,1,1,4000.10000000149,2,1
20,212,cardbox,./Images/cardbox/e1_s2.jpg,0,1,4000.10000000149,1,2
20,213,poker_chips,./Images/poker_chips/e1_s2.jpg,1,2,3064.10000000149,1,2
20,213,poker_chips,./Images/poker_chips/e2_s1.jpg,1,2,3064.10000000149,2,1
20,214,file_box,./Images/file_box/e2_s2.jpg,1,1,7518.60000000149,2,2
20,214,file_box,./Images/file_box/e1_s1.jpg,0,1,7518.60000000149,1,1
20,215,menorah,./Images/menorah/e1_s1.jpg,1,2,9647.40000000596,1,1
20,215,menorah,./Images/menorah/e2_s1.jpg,1,2,9647.40000000596,2,1
20,216,fridge,./Images/fridge/e2_s1.jpg,1,1,5891.89999999851,2,1
20,216,fridge,./Images/fridge/e1_s2.jpg,0,1,5891.89999999851,1,2
20,217,dryer,./Images/dryer/e1_s1.jpg,1,2,4488.69999999553,1,1
20,217,dryer,./Images/dryer/e2_s2.jpg,1,2,4488.69999999553,2,2
20,218,baseball_glove,./Images/baseball_glove/e2_s1.jpg,0,0,4827.10000000149,2,1
20,218,baseball_glove,./Images/baseball_glove/e1_s2.jpg,0,0,4827.10000000149,1,2
20,219,pen,./Images/pen/e1_s2.jpg,1,2,7604.29999999702,1,2
20,219,pen,./Images/pen/e2_s1.jpg,1,2,7604.29999999702,2,1
20,220,apple,./Images/apple/e2_s2.jpg,1,1,7379.29999999702,2,2
20,220,apple,./Images/apple/e1_s1.jpg,0,1,7379.29999999702,1,1
20,221,wallet,./Images/wallet/e1_s2.jpg,0,1,3328.5,1,2
20,221,wallet,./Images/wallet/e2_s1.jpg,1,1,3328.5,2,1
20,222,toilet,./Images/toilet/e2_s1.jpg,1,2,6848,2,1
20,222,toilet,./Images/toilet/e1_s1.jpg,1,2,6848,1,1
20,223,chips,./Images/chips/e2_s2.jpg,1,1,4736.10000000149,2,2
20,223,chips,./Images/chips/e1_s1.jpg,0,1,4736.10000000149,1,1
20,224,scissors,./Images/scissors/e1_s1.jpg,0,1,2571.60000000149,1,1
20,224,scissors,./Images/scissors/e2_s2.jpg,1,1,2571.60000000149,2,2
20,225,book,./Images/book/e2_s1.jpg,0,1,6587.59999999404,2,1
20,225,book,./Images/book/e1_s1.jpg,1,1,6587.59999999404,1,1
20,226,notebook,./Images/notebook/e2_s1.jpg,1,2,5114.89999999851,2,1
20,226,notebook,./Images/notebook/e1_s2.jpg,1,2,5114.89999999851,1,2
20,227,kettle,./Images/kettle/e1_s1.jpg,0,0,8748.39999999851,1,1
20,227,kettle,./Images/kettle/e2_s1.jpg,0,0,8748.39999999851,2,1
20,228,scanner,./Images/scanner/e2_s2.jpg,1,2,2482.39999999851,2,2
20,228,scanner,./Images/scanner/e1_s1.jpg,1,2,2482.39999999851,1,1
20,229,chair_recliner,./Images/chair_recliner/e1_s2.jpg,1,1,3334.20000000298,1,2
20,229,chair_recliner,./Images/chair_recliner/e2_s1.jpg,0,1,3334.20000000298,2,1
20,230,cooking_pot,./Images/cooking_pot/e1_s2.jpg,1,1,4456.5,1,2
20,230,cooking_pot,./Images/cooking_pot/e2_s1.jpg,0,1,4456.5,2,1
20,231,theater_seats,./Images/theater_seats/e1_s2.jpg,1,2,4104.29999999702,1,2
20,231,theater_seats,./Images/theater_seats/e2_s1.jpg,1,2,4104.29999999702,2,1
20,232,backpack,./Images/backpack/e2_s1.jpg,1,2,4116,2,1
20,232,backpack,./Images/backpack/e1_s2.jpg,1,2,4116,1,2
20,233,typewriter,./Images/typewriter/e2_s2.jpg,0,0,3447.70000000298,2,2
20,233,typewriter,./Images/typewriter/e1_s1.jpg,0,0,3447.70000000298,1,1
20,234,aabacus,./Images/aabacus/e1_s2.jpg,0,1,10381.5,1,2
20,234,aabacus,./Images/aabacus/e2_s1.jpg,1,1,10381.5,2,1
20,235,menus,./Images/menus/e2_s1.jpg,1,2,2559,2,1
20,235,menus,./Images/menus/e1_s1.jpg,1,2,2559,1,1
20,236,small_box,./Images/small_box/e1_s1.jpg,1,1,3382.39999999851,1,1
20,236,small_box,./Images/small_box/e2_s2.jpg,0,1,3382.39999999851,2,2
20,237,soap,./Images/soap/e1_s2.jpg,1,2,3060.60000000149,1,2
20,237,soap,./Images/soap/e2_s2.jpg,1,2,3060.60000000149,2,2
20,238,bottle_liquid,./Images/bottle_liquid/e1_s1.jpg,1,1,3636.89999999851,1,1
20,238,bottle_liquid,./Images/bottle_liquid/e2_s1.jpg,0,1,3636.89999999851,2,1
20,239,sharpie_pens,./Images/sharpie_pens/e1_s1.jpg,1,1,2742.70000000298,1,1
20,239,sharpie_pens,./Images/sharpie_pens/e2_s2.jpg,0,1,2742.70000000298,2,2
20,240,keys,./Images/keys/e2_s2.jpg,1,1,4648.10000000149,2,2
20,240,keys,./Images/keys/e1_s1.jpg,0,1,4648.10000000149,1,1
20,241,garlic_press,./Images/garlic_press/e2_s1.jpg,1,2,9679.39999999851,2,1
20,241,garlic_press,./Images/garlic_press/e1_s1.jpg,1,2,9679.39999999851,1,1
20,242,gummy,./Images/gummy/e1_s1.jpg,1,2,2902,1,1
20,242,gummy,./Images/gummy/e2_s1.jpg,1,2,2902,2,1
20,243,mixer,./Images/mixer/e2_s2.jpg,0,1,5095.90000000596,2,2
20,243,mixer,./Images/mixer/e1_s1.jpg,1,1,5095.90000000596,1,1
20,244,plastic_bottle,./Images/plastic_bottle/e2_s2.jpg,1,2,4933,2,2
20,244,plastic_bottle,./Images/plastic_bottle/e1_s1.jpg,1,2,4933,1,1
20,245,usb_key,./Images/usb_key/e1_s2.jpg,1,1,3287.29999999702,1,2
20,245,usb_key,./Images/usb_key/e2_s2.jpg,0,1,3287.29999999702,2,2
20,246,chip,./Images/chip/e2_s2.jpg,0,0,11600.8000000045,2,2
20,246,chip,./Images/chip/e1_s1.jpg,0,0,11600.8000000045,1,1
20,247,phone_antique,./Images/phone_antique/e2_s2.jpg,1,1,5160.29999999702,2,2
20,247,phone_antique,./Images/phone_antique/e1_s2.jpg,0,1,5160.29999999702,1,2
20,248,cocktail_umbrella,./Images/cocktail_umbrella/e2_s1.jpg,0,0,6561.79999999702,2,1
20,248,cocktail_umbrella,./Images/cocktail_umbrella/e1_s2.jpg,0,0,6561.79999999702,1,2
20,249,bottle_perfume,./Images/bottle_perfume/e1_s1.jpg,1,1,3127.60000000149,1,1
20,249,bottle_perfume,./Images/bottle_perfume/e2_s2.jpg,0,1,3127.60000000149,2,2
20,250,cookie,./Images/cookie/e2_s2.jpg,1,2,3138.29999999702,2,2
20,250,cookie,./Images/cookie/e1_s2.jpg,1,2,3138.29999999702,1,2
20,251,locks,./Images/locks/e1_s1.jpg,1,2,4298,1,1
20,251,locks,./Images/locks/e2_s1.jpg,1,2,4298,2,1
20,252,bills,./Images/bills/e1_s2.jpg,1,2,5937.10000000149,1,2
20,252,bills,./Images/bills/e2_s1.jpg,1,2,5937.10000000149,2,1
20,253,tricycle,./Images/tricycle/e2_s2.jpg,1,2,6245.80000000447,2,2
20,253,tricycle,./Images/tricycle/e1_s2.jpg,1,2,6245.80000000447,1,2
20,254,watch,./Images/watch/e2_s1.jpg,0,1,4161.79999999702,2,1
20,254,watch,./Images/watch/e1_s2.jpg,1,1,4161.79999999702,1,2
20,255,drink,./Images/drink/e1_s1.jpg,1,1,4526.79999999702,1,1
20,255,drink,./Images/drink/e2_s1.jpg,0,1,4526.79999999702,2,1
20,256,tictac,./Images/tictac/e2_s1.jpg,0,1,2335.79999999702,2,1
20,256,tictac,./Images/tictac/e1_s1.jpg,1,1,2335.79999999702,1,1
20,257,oj,./Images/oj/e1_s2.jpg,1,1,11216.3999999985,1,2
20,257,oj,./Images/oj/e2_s2.jpg,0,1,11216.3999999985,2,2
20,258,chocolate_bar,./Images/chocolate_bar/e1_s1.jpg,0,1,2978.19999999553,1,1
20,258,chocolate_bar,./Images/chocolate_bar/e2_s2.jpg,1,1,2978.19999999553,2,2
20,259,coffeemug,./Images/coffeemug/e2_s1.jpg,1,2,3630.60000000149,2,1
20,259,coffeemug,./Images/coffeemug/e1_s1.jpg,1,2,3630.60000000149,1,1
20,260,sponge,./Images/sponge/e2_s1.jpg,1,2,4338.80000000447,2,1
20,260,sponge,./Images/sponge/e1_s2.jpg,1,2,4338.80000000447,1,2
20,261,tape_dispenser,./Images/tape_dispenser/e2_s2.jpg,1,1,3603.70000000298,2,2
20,261,tape_dispenser,./Images/tape_dispenser/e1_s2.jpg,0,1,3603.70000000298,1,2
20,262,sugar_paper,./Images/sugar_paper/e2_s2.jpg,1,2,3666,2,2
20,262,sugar_paper,./Images/sugar_paper/e1_s1.jpg,1,2,3666,1,1
20,263,hand_puppet,./Images/hand_puppet/e1_s1.jpg,1,2,4118.10000000149,1,1
20,263,hand_puppet,./Images/hand_puppet/e2_s2.jpg,1,2,4118.10000000149,2,2
20,264,microwave,./Images/microwave/e2_s2.jpg,1,1,5641.60000000149,2,2
20,264,microwave,./Images/microwave/e1_s1.jpg,0,1,5641.60000000149,1,1
20,265,pie,./Images/pie/e1_s1.jpg,1,2,2837.89999999851,1,1
20,265,pie,./Images/pie/e2_s1.jpg,1,2,2837.89999999851,2,1
20,266,phone,./Images/phone/e1_s1.jpg,1,1,5689.19999999553,1,1
20,266,phone,./Images/phone/e2_s1.jpg,0,1,5689.19999999553,2,1
20,267,book_object,./Images/book_object/e2_s2.jpg,1,2,11253.3999999985,2,2
20,267,book_object,./Images/book_object/e1_s2.jpg,1,2,11253.3999999985,1,2
20,268,clocks,./Images/clocks/e1_s2.jpg,0,0,4860.89999999851,1,2
20,268,clocks,./Images/clocks/e2_s1.jpg,0,0,4860.89999999851,2,1
20,269,leather_bag,./Images/leather_bag/e1_s1.jpg,1,1,5703.30000000447,1,1
20,269,leather_bag,./Images/leather_bag/e2_s1.jpg,0,1,5703.30000000447,2,1
20,270,gift_box,./Images/gift_box/e2_s2.jpg,1,2,8789.70000000298,2,2
20,270,gift_box,./Images/gift_box/e1_s1.jpg,1,2,8789.70000000298,1,1
20,271,cell,./Images/cell/e1_s1.jpg,0,1,3638.80000000447,1,1
20,271,cell,./Images/cell/e2_s1.jpg,1,1,3638.80000000447,2,1
20,272,tissues,./Images/tissues/e1_s1.jpg,1,2,2948.60000000149,1,1
20,272,tissues,./Images/tissues/e2_s1.jpg,1,2,2948.60000000149,2,1
20,273,sugar_bowl,./Images/sugar_bowl/e2_s1.jpg,1,1,3367.90000000596,2,1
20,273,sugar_bowl,./Images/sugar_bowl/e1_s2.jpg,0,1,3367.90000000596,1,2
20,274,tea_pot,./Images/tea_pot/e2_s1.jpg,0,0,4223.5,2,1
20,274,tea_pot,./Images/tea_pot/e1_s1.jpg,0,0,4223.5,1,1
20,275,pail,./Images/pail/e2_s1.jpg,0,1,2530.89999999851,2,1
20,275,pail,./Images/pail/e1_s2.jpg,1,1,2530.89999999851,1,2
20,276,donut,./Images/donut/e2_s1.jpg,1,2,2619.5,2,1
20,276,donut,./Images/donut/e1_s1.jpg,1,2,2619.5,1,1
20,277,flask,./Images/flask/e2_s1.jpg,1,2,9044.5,2,1
20,277,flask,./Images/flask/e1_s1.jpg,1,2,9044.5,1,1
20,278,tool_box,./Images/tool_box/e1_s1.jpg,1,1,4029.10000000149,1,1
20,278,tool_box,./Images/tool_box/e2_s2.jpg,0,1,4029.10000000149,2,2
20,279,glass_orange,./Images/glass_orange/e1_s2.jpg,0,1,4566,1,2
20,279,glass_orange,./Images/glass_orange/e2_s1.jpg,1,1,4566,2,1
20,280,toy_truck,./Images/toy_truck/e2_s1.jpg,1,2,2818.80000000447,2,1
20,280,toy_truck,./Images/toy_truck/e1_s1.jpg,1,2,2818.80000000447,1,1
20,281,container_open,./Images/container_open/e1_s1.jpg,0,0,2833.5,1,1
20,281,container_open,./Images/container_open/e2_s1.jpg,0,0,2833.5,2,1
20,282,lemon,./Images/lemon/e2_s2.jpg,0,1,6883.10000000149,2,2
20,282,lemon,./Images/lemon/e1_s2.jpg,1,1,6883.10000000149,1,2
20,283,car,./Images/car/e2_s1.jpg,1,2,5749.70000000298,2,1
20,283,car,./Images/car/e1_s1.jpg,1,2,5749.70000000298,1,1
20,284,chapstick,./Images/chapstick/e1_s1.jpg,1,2,5007.10000000149,1,1
20,284,chapstick,./Images/chapstick/e2_s2.jpg,1,2,5007.10000000149,2,2
20,285,paper_cup,./Images/paper_cup/e2_s2.jpg,0,1,4070.70000000298,2,2
20,285,paper_cup,./Images/paper_cup/e1_s2.jpg,1,1,4070.70000000298,1,2
20,286,cereal,./Images/cereal/e1_s1.jpg,1,2,2345.80000000447,1,1
20,286,cereal,./Images/cereal/e2_s1.jpg,1,2,2345.80000000447,2,1
20,287,reeses,./Images/reeses/e2_s1.jpg,0,1,4001.60000000149,2,1
20,287,reeses,./Images/reeses/e1_s2.jpg,1,1,4001.60000000149,1,2
20,288,headphone_small,./Images/headphone_small/e2_s2.jpg,1,1,4121,2,2
20,288,headphone_small,./Images/headphone_small/e1_s2.jpg,0,1,4121,1,2
20,289,hourglass,./Images/hourglass/e2_s2.jpg,1,2,3774.10000000149,2,2
20,289,hourglass,./Images/hourglass/e1_s2.jpg,1,2,3774.10000000149,1,2
20,290,lotion,./Images/lotion/e1_s1.jpg,1,1,4066.29999999702,1,1
20,290,lotion,./Images/lotion/e2_s1.jpg,0,1,4066.29999999702,2,1
20,291,laptop,./Images/laptop/e2_s2.jpg,1,2,5117.79999999702,2,2
20,291,laptop,./Images/laptop/e1_s1.jpg,1,2,5117.79999999702,1,1
20,292,metronome,./Images/metronome/e1_s1.jpg,0,1,6110.10000000149,1,1
20,292,metronome,./Images/metronome/e2_s2.jpg,1,1,6110.10000000149,2,2
20,293,cabbage,./Images/cabbage/e2_s2.jpg,1,2,3308,2,2
20,293,cabbage,./Images/cabbage/e1_s1.jpg,1,2,3308,1,1
20,294,mustard,./Images/mustard/e1_s1.jpg,1,2,4442.40000000596,1,1
20,294,mustard,./Images/mustard/e2_s2.jpg,1,2,4442.40000000596,2,2
20,295,lottery_ticket,./Images/lottery_ticket/e2_s1.jpg,1,1,27095.8000000045,2,1
20,295,lottery_ticket,./Images/lottery_ticket/e1_s1.jpg,0,1,27095.8000000045,1,1
20,296,cabinet,./Images/cabinet/e1_s2.jpg,0,0,2895.5,1,2
20,296,cabinet,./Images/cabinet/e2_s1.jpg,0,0,2895.5,2,1
20,297,mailbox,./Images/mailbox/e1_s1.jpg,1,1,4098.59999999404,1,1
20,297,mailbox,./Images/mailbox/e2_s1.jpg,0,1,4098.59999999404,2,1
20,298,coins,./Images/coins/e1_s1.jpg,1,2,3721.80000000447,1,1
20,298,coins,./Images/coins/e2_s2.jpg,1,2,3721.80000000447,2,2
20,299,file_folder,./Images/file_folder/e2_s1.jpg,0,0,5204.69999999553,2,1
20,299,file_folder,./Images/file_folder/e1_s1.jpg,0,0,5204.69999999553,1,1
20,300,canopener,./Images/canopener/e1_s1.jpg,0,1,7015.79999999702,1,1
20,300,canopener,./Images/canopener/e2_s1.jpg,1,1,7015.79999999702,2,1
20,301,breadbox,./Images/breadbox/e2_s1.jpg,0,0,8660.29999999702,2,1
20,301,breadbox,./Images/breadbox/e1_s2.jpg,0,0,8660.29999999702,1,2
20,302,altoid,./Images/altoid/e2_s1.jpg,1,2,4772.89999999851,2,1
20,302,altoid,./Images/altoid/e1_s1.jpg,1,2,4772.89999999851,1,1
20,303,lunchbox,./Images/lunchbox/e1_s2.jpg,0,0,6713.60000000149,1,2
20,303,lunchbox,./Images/lunchbox/e2_s1.jpg,0,0,6713.60000000149,2,1
20,304,shoe,./Images/shoe/e2_s2.jpg,0,0,3026.29999999702,2,2
20,304,shoe,./Images/shoe/e1_s1.jpg,0,0,3026.29999999702,1,1
20,305,umbrella,./Images/umbrella/e1_s2.jpg,1,1,5194.40000000596,1,2
20,305,umbrella,./Images/umbrella/e2_s2.jpg,0,1,5194.40000000596,2,2
39,206,pie,./Images/pie/e2_s1.jpg,1,2,7116.09999990463,2,1
39,206,pie,./Images/pie/e1_s2.jpg,1,2,7116.09999990463,1,2
39,207,pail,./Images/pail/e2_s1.jpg,1,2,5037.10000002384,2,1
39,207,pail,./Images/pail/e1_s1.jpg,1,2,5037.10000002384,1,1
39,208,canopener,./Images/canopener/e1_s2.jpg,0,1,6213.90000009537,1,2
39,208,canopener,./Images/canopener/e2_s2.jpg,1,1,6213.90000009537,2,2
39,209,pen,./Images/pen/e2_s1.jpg,1,2,3938.60000002384,2,1
39,209,pen,./Images/pen/e1_s1.jpg,1,2,3938.60000002384,1,1
39,210,menus,./Images/menus/e2_s2.jpg,1,2,7089,2,2
39,210,menus,./Images/menus/e1_s1.jpg,1,2,7089,1,1
39,211,cabinet,./Images/cabinet/e1_s2.jpg,0,0,6298.40000009537,1,2
39,211,cabinet,./Images/cabinet/e2_s2.jpg,0,0,6298.40000009537,2,2
39,212,cocktail_umbrella,./Images/cocktail_umbrella/e2_s2.jpg,1,2,5093.89999997616,2,2
39,212,cocktail_umbrella,./Images/cocktail_umbrella/e1_s1.jpg,1,2,5093.89999997616,1,1
39,213,leather_bag,./Images/leather_bag/e2_s1.jpg,1,2,7335.89999997616,2,1
39,213,leather_bag,./Images/leather_bag/e1_s2.jpg,1,2,7335.89999997616,1,2
39,214,aabacus,./Images/aabacus/e2_s2.jpg,1,2,7253.29999995232,2,2
39,214,aabacus,./Images/aabacus/e1_s2.jpg,1,2,7253.29999995232,1,2
39,215,hourglass,./Images/hourglass/e2_s2.jpg,1,1,5699.59999990463,2,2
39,215,hourglass,./Images/hourglass/e1_s2.jpg,0,1,5699.59999990463,1,2
39,216,lemon,./Images/lemon/e1_s1.jpg,1,2,3624.69999992847,1,1
39,216,lemon,./Images/lemon/e2_s1.jpg,1,2,3624.69999992847,2,1
39,217,chocolate_bar,./Images/chocolate_bar/e1_s1.jpg,1,2,5794.60000002384,1,1
39,217,chocolate_bar,./Images/chocolate_bar/e2_s2.jpg,1,2,5794.60000002384,2,2
39,218,lottery_ticket,./Images/lottery_ticket/e2_s1.jpg,1,1,9179.70000004768,2,1
39,218,lottery_ticket,./Images/lottery_ticket/e1_s1.jpg,0,1,9179.70000004768,1,1
39,219,chip,./Images/chip/e1_s2.jpg,0,1,6263.20000004768,1,2
39,219,chip,./Images/chip/e2_s2.jpg,1,1,6263.20000004768,2,2
39,220,mailbox,./Images/mailbox/e2_s2.jpg,1,2,4078,2,2
39,220,mailbox,./Images/mailbox/e1_s1.jpg,1,2,4078,1,1
39,221,dryer,./Images/dryer/e1_s1.jpg,1,2,7782.5,1,1
39,221,dryer,./Images/dryer/e2_s1.jpg,1,2,7782.5,2,1
39,222,backpack,./Images/backpack/e1_s1.jpg,1,1,4383,1,1
39,222,backpack,./Images/backpack/e2_s1.jpg,0,1,4383,2,1
39,223,phone,./Images/phone/e1_s1.jpg,0,0,5771.5,1,1
39,223,phone,./Images/phone/e2_s2.jpg,0,0,5771.5,2,2
39,224,yarn,./Images/yarn/e2_s1.jpg,0,1,3421.10000002384,2,1
39,224,yarn,./Images/yarn/e1_s1.jpg,1,1,3421.10000002384,1,1
39,225,chapstick,./Images/chapstick/e2_s1.jpg,0,0,4866.10000002384,2,1
39,225,chapstick,./Images/chapstick/e1_s1.jpg,0,0,4866.10000002384,1,1
39,226,lotion,./Images/lotion/e2_s1.jpg,0,0,4425,2,1
39,226,lotion,./Images/lotion/e1_s2.jpg,0,0,4425,1,2
39,227,kettle,./Images/kettle/e2_s1.jpg,0,1,3097.79999995232,2,1
39,227,kettle,./Images/kettle/e1_s2.jpg,1,1,3097.79999995232,1,2
39,228,file_folder,./Images/file_folder/e1_s1.jpg,0,0,3710.30000007153,1,1
39,228,file_folder,./Images/file_folder/e2_s1.jpg,0,0,3710.30000007153,2,1
39,229,accordion,./Images/accordion/e2_s2.jpg,0,1,5021.79999995232,2,2
39,229,accordion,./Images/accordion/e1_s2.jpg,1,1,5021.79999995232,1,2
39,230,watch,./Images/watch/e2_s1.jpg,1,2,3078.20000004768,2,1
39,230,watch,./Images/watch/e1_s2.jpg,1,2,3078.20000004768,1,2
39,231,headphone_small,./Images/headphone_small/e2_s2.jpg,0,0,4997.10000002384,2,2
39,231,headphone_small,./Images/headphone_small/e1_s1.jpg,0,0,4997.10000002384,1,1
39,232,tissues,./Images/tissues/e1_s1.jpg,0,0,7970.70000004768,1,1
39,232,tissues,./Images/tissues/e2_s2.jpg,0,0,7970.70000004768,2,2
39,233,small_box,./Images/small_box/e2_s2.jpg,0,0,3325.80000007153,2,2
39,233,small_box,./Images/small_box/e1_s2.jpg,0,0,3325.80000007153,1,2
39,234,mixer,./Images/mixer/e2_s1.jpg,1,2,5701,2,1
39,234,mixer,./Images/mixer/e1_s1.jpg,1,2,5701,1,1
39,235,tictac,./Images/tictac/e1_s1.jpg,0,1,3674.90000009537,1,1
39,235,tictac,./Images/tictac/e2_s1.jpg,1,1,3674.90000009537,2,1
39,236,scissors,./Images/scissors/e2_s2.jpg,0,1,5480.39999997616,2,2
39,236,scissors,./Images/scissors/e1_s2.jpg,1,1,5480.39999997616,1,2
39,237,menorah,./Images/menorah/e2_s1.jpg,0,1,5147.5,2,1
39,237,menorah,./Images/menorah/e1_s1.jpg,1,1,5147.5,1,1
39,238,theater_seats,./Images/theater_seats/e2_s1.jpg,1,2,6020.69999992848,2,1
39,238,theater_seats,./Images/theater_seats/e1_s2.jpg,1,2,6020.69999992848,1,2
39,239,cabbage,./Images/cabbage/e2_s1.jpg,1,2,2790.60000002384,2,1
39,239,cabbage,./Images/cabbage/e1_s1.jpg,1,2,2790.60000002384,1,1
39,240,chocolate,./Images/chocolate/e1_s1.jpg,1,2,4107,1,1
39,240,chocolate,./Images/chocolate/e2_s1.jpg,1,2,4107,2,1
39,241,plastic_bottle,./Images/plastic_bottle/e1_s2.jpg,1,1,4397.10000002384,1,2
39,241,plastic_bottle,./Images/plastic_bottle/e2_s2.jpg,0,1,4397.10000002384,2,2
39,242,book_object,./Images/book_object/e2_s2.jpg,1,2,4156.20000004768,2,2
39,242,book_object,./Images/book_object/e1_s2.jpg,1,2,4156.20000004768,1,2
39,243,sponge,./Images/sponge/e2_s2.jpg,1,2,2691.19999992847,2,2
39,243,sponge,./Images/sponge/e1_s2.jpg,1,2,2691.19999992847,1,2
39,244,toy_truck,./Images/toy_truck/e1_s1.jpg,1,2,3042.10000002384,1,1
39,244,toy_truck,./Images/toy_truck/e2_s2.jpg,1,2,3042.10000002384,2,2
39,245,gummy,./Images/gummy/e1_s1.jpg,0,1,4611.89999997616,1,1
39,245,gummy,./Images/gummy/e2_s1.jpg,1,1,4611.89999997616,2,1
39,246,wallet,./Images/wallet/e1_s2.jpg,0,0,5453,1,2
39,246,wallet,./Images/wallet/e2_s1.jpg,0,0,5453,2,1
39,247,poker_chips,./Images/poker_chips/e2_s1.jpg,1,2,3112.40000009537,2,1
39,247,poker_chips,./Images/poker_chips/e1_s1.jpg,1,2,3112.40000009537,1,1
39,248,donut,./Images/donut/e2_s1.jpg,1,2,2720.89999997616,2,1
39,248,donut,./Images/donut/e1_s1.jpg,1,2,2720.89999997616,1,1
39,249,sugar_bowl,./Images/sugar_bowl/e2_s2.jpg,1,2,3718.89999997616,2,2
39,249,sugar_bowl,./Images/sugar_bowl/e1_s2.jpg,1,2,3718.89999997616,1,2
39,250,fridge,./Images/fridge/e2_s1.jpg,1,2,2705.5,2,1
39,250,fridge,./Images/fridge/e1_s1.jpg,1,2,2705.5,1,1
39,251,book,./Images/book/e2_s1.jpg,0,0,3083.89999997616,2,1
39,251,book,./Images/book/e1_s1.jpg,0,0,3083.89999997616,1,1
39,252,garlic_press,./Images/garlic_press/e1_s1.jpg,0,1,4103.70000004768,1,1
39,252,garlic_press,./Images/garlic_press/e2_s1.jpg,1,1,4103.70000004768,2,1
39,253,tape_dispenser,./Images/tape_dispenser/e1_s2.jpg,1,2,3814.59999990463,1,2
39,253,tape_dispenser,./Images/tape_dispenser/e2_s2.jpg,1,2,3814.59999990463,2,2
39,254,umbrella,./Images/umbrella/e1_s1.jpg,1,2,3340.19999992847,1,1
39,254,umbrella,./Images/umbrella/e2_s1.jpg,1,2,3340.19999992847,2,1
39,255,chips,./Images/chips/e2_s1.jpg,1,2,2811.70000004768,2,1
39,255,chips,./Images/chips/e1_s1.jpg,1,2,2811.70000004768,1,1
39,256,cereal,./Images/cereal/e2_s1.jpg,1,2,2420.20000004768,2,1
39,256,cereal,./Images/cereal/e1_s1.jpg,1,2,2420.20000004768,1,1
39,257,notebook,./Images/notebook/e2_s1.jpg,1,1,2954.90000009537,2,1
39,257,notebook,./Images/notebook/e1_s1.jpg,0,1,2954.90000009537,1,1
39,258,peanut_butter,./Images/peanut_butter/e2_s1.jpg,1,1,2962.20000004768,2,1
39,258,peanut_butter,./Images/peanut_butter/e1_s1.jpg,0,1,2962.20000004768,1,1
39,259,hand_puppet,./Images/hand_puppet/e1_s2.jpg,1,1,3531.70000004768,1,2
39,259,hand_puppet,./Images/hand_puppet/e2_s2.jpg,0,1,3531.70000004768,2,2
39,260,keys,./Images/keys/e2_s2.jpg,1,2,4013.60000002384,2,2
39,260,keys,./Images/keys/e1_s1.jpg,1,2,4013.60000002384,1,1
39,261,locks,./Images/locks/e1_s2.jpg,1,2,2762.29999995232,1,2
39,261,locks,./Images/locks/e2_s2.jpg,1,2,2762.29999995232,2,2
39,262,sharpie_pens,./Images/sharpie_pens/e2_s2.jpg,1,2,2480.09999990463,2,2
39,262,sharpie_pens,./Images/sharpie_pens/e1_s2.jpg,1,2,2480.09999990463,1,2
39,263,bottle_liquid,./Images/bottle_liquid/e1_s2.jpg,1,1,3183,1,2
39,263,bottle_liquid,./Images/bottle_liquid/e2_s2.jpg,0,1,3183,2,2
39,264,chair_recliner,./Images/chair_recliner/e2_s2.jpg,1,1,4151.19999992847,2,2
39,264,chair_recliner,./Images/chair_recliner/e1_s2.jpg,0,1,4151.19999992847,1,2
39,265,laptop,./Images/laptop/e2_s1.jpg,1,1,4481.40000009537,2,1
39,265,laptop,./Images/laptop/e1_s1.jpg,0,1,4481.40000009537,1,1
39,266,cell,./Images/cell/e2_s1.jpg,1,2,2796.09999990463,2,1
39,266,cell,./Images/cell/e1_s1.jpg,1,2,2796.09999990463,1,1
39,267,dresser,./Images/dresser/e2_s1.jpg,0,1,4886.69999992847,2,1
39,267,dresser,./Images/dresser/e1_s1.jpg,1,1,4886.69999992847,1,1
39,268,coffeemug,./Images/coffeemug/e1_s1.jpg,1,2,2437.5,1,1
39,268,coffeemug,./Images/coffeemug/e2_s1.jpg,1,2,2437.5,2,1
39,269,bills,./Images/bills/e2_s2.jpg,1,2,2422.39999997616,2,2
39,269,bills,./Images/bills/e1_s2.jpg,1,2,2422.39999997616,1,2
39,270,gift_box,./Images/gift_box/e2_s1.jpg,0,1,2347.89999997616,2,1
39,270,gift_box,./Images/gift_box/e1_s1.jpg,1,1,2347.89999997616,1,1
39,271,cooking_pot,./Images/cooking_pot/e1_s2.jpg,1,2,4459.60000002384,1,2
39,271,cooking_pot,./Images/cooking_pot/e2_s2.jpg,1,2,4459.60000002384,2,2
39,272,usb_key,./Images/usb_key/e2_s1.jpg,1,1,4038.09999990463,2,1
39,272,usb_key,./Images/usb_key/e1_s1.jpg,0,1,4038.09999990463,1,1
39,273,car,./Images/car/e1_s1.jpg,0,1,3633.40000009537,1,1
39,273,car,./Images/car/e2_s1.jpg,1,1,3633.40000009537,2,1
39,274,bottle_perfume,./Images/bottle_perfume/e2_s2.jpg,1,2,5406.90000009537,2,2
39,274,bottle_perfume,./Images/bottle_perfume/e1_s2.jpg,1,2,5406.90000009537,1,2
39,275,typewriter,./Images/typewriter/e2_s2.jpg,1,2,3008.40000009537,2,2
39,275,typewriter,./Images/typewriter/e1_s2.jpg,1,2,3008.40000009537,1,2
39,276,cookie,./Images/cookie/e2_s1.jpg,1,2,3647.39999997616,2,1
39,276,cookie,./Images/cookie/e1_s1.jpg,1,2,3647.39999997616,1,1
39,277,tricycle,./Images/tricycle/e2_s2.jpg,0,0,6780.90000009537,2,2
39,277,tricycle,./Images/tricycle/e1_s2.jpg,0,0,6780.90000009537,1,2
39,278,soap,./Images/soap/e1_s1.jpg,0,1,4925.69999992848,1,1
39,278,soap,./Images/soap/e2_s1.jpg,1,1,4925.69999992848,2,1
39,279,cardbox,./Images/cardbox/e2_s2.jpg,1,2,2459.39999997616,2,2
39,279,cardbox,./Images/cardbox/e1_s2.jpg,1,2,2459.39999997616,1,2
39,280,scanner,./Images/scanner/e2_s1.jpg,1,2,5068.79999995232,2,1
39,280,scanner,./Images/scanner/e1_s1.jpg,1,2,5068.79999995232,1,1
39,281,reeses,./Images/reeses/e1_s1.jpg,1,1,3584.70000004768,1,1
39,281,reeses,./Images/reeses/e2_s1.jpg,0,1,3584.70000004768,2,1
39,282,glass_orange,./Images/glass_orange/e1_s2.jpg,1,2,5287.10000002384,1,2
39,282,glass_orange,./Images/glass_orange/e2_s2.jpg,1,2,5287.10000002384,2,2
39,283,corkscrew,./Images/corkscrew/e1_s1.jpg,1,2,4391,1,1
39,283,corkscrew,./Images/corkscrew/e2_s1.jpg,1,2,4391,2,1
39,284,toilet,./Images/toilet/e1_s2.jpg,1,2,3775.30000007153,1,2
39,284,toilet,./Images/toilet/e2_s2.jpg,1,2,3775.30000007153,2,2
39,285,altoid,./Images/altoid/e2_s1.jpg,0,0,3882.39999997616,2,1
39,285,altoid,./Images/altoid/e1_s1.jpg,0,0,3882.39999997616,1,1
39,286,phone_antique,./Images/phone_antique/e2_s1.jpg,1,1,5852.29999995232,2,1
39,286,phone_antique,./Images/phone_antique/e1_s1.jpg,0,1,5852.29999995232,1,1
39,287,lunchbox,./Images/lunchbox/e1_s2.jpg,1,2,5502.79999995232,1,2
39,287,lunchbox,./Images/lunchbox/e2_s1.jpg,1,2,5502.79999995232,2,1
39,288,breadbox,./Images/breadbox/e1_s1.jpg,1,1,3290.79999995232,1,1
39,288,breadbox,./Images/breadbox/e2_s1.jpg,0,1,3290.79999995232,2,1
39,289,oj,./Images/oj/e2_s2.jpg,1,2,4647.39999997616,2,2
39,289,oj,./Images/oj/e1_s2.jpg,1,2,4647.39999997616,1,2
39,290,coins,./Images/coins/e2_s2.jpg,1,2,4947.70000004768,2,2
39,290,coins,./Images/coins/e1_s2.jpg,1,2,4947.70000004768,1,2
39,291,paper_cup,./Images/paper_cup/e2_s1.jpg,1,2,2605.80000007153,2,1
39,291,paper_cup,./Images/paper_cup/e1_s1.jpg,1,2,2605.80000007153,1,1
39,292,shoe,./Images/shoe/e2_s1.jpg,0,1,4348.60000002384,2,1
39,292,shoe,./Images/shoe/e1_s1.jpg,1,1,4348.60000002384,1,1
39,293,drink,./Images/drink/e2_s1.jpg,0,0,3050.10000002384,2,1
39,293,drink,./Images/drink/e1_s1.jpg,0,0,3050.10000002384,1,1
39,294,mustard,./Images/mustard/e2_s1.jpg,1,1,4248.60000002384,2,1
39,294,mustard,./Images/mustard/e1_s1.jpg,0,1,4248.60000002384,1,1
39,295,metronome,./Images/metronome/e1_s2.jpg,1,2,3566.79999995232,1,2
39,295,metronome,./Images/metronome/e2_s2.jpg,1,2,3566.79999995232,2,2
39,296,baseball_glove,./Images/baseball_glove/e2_s1.jpg,1,2,3724.79999995232,2,1
39,296,baseball_glove,./Images/baseball_glove/e1_s1.jpg,1,2,3724.79999995232,1,1
39,297,tool_box,./Images/tool_box/e1_s1.jpg,0,1,3923.60000002384,1,1
39,297,tool_box,./Images/tool_box/e2_s1.jpg,1,1,3923.60000002384,2,1
39,298,file_box,./Images/file_box/e1_s2.jpg,1,2,5172.90000009537,1,2
39,298,file_box,./Images/file_box/e2_s2.jpg,1,2,5172.90000009537,2,2
39,299,container_open,./Images/container_open/e2_s1.jpg,0,0,5251.30000007153,2,1
39,299,container_open,./Images/container_open/e1_s1.jpg,0,0,5251.30000007153,1,1
39,300,apple,./Images/apple/e2_s1.jpg,1,1,2974.89999997616,2,1
39,300,apple,./Images/apple/e1_s1.jpg,0,1,2974.89999997616,1,1
39,301,tea_pot,./Images/tea_pot/e1_s1.jpg,1,2,2918.80000007153,1,1
39,301,tea_pot,./Images/tea_pot/e2_s1.jpg,1,2,2918.80000007153,2,1
39,302,flask,./Images/flask/e1_s2.jpg,1,1,3518.60000002384,1,2
39,302,flask,./Images/flask/e2_s2.jpg,0,1,3518.60000002384,2,2
39,303,sugar_paper,./Images/sugar_paper/e1_s1.jpg,0,1,3670.10000002384,1,1
39,303,sugar_paper,./Images/sugar_paper/e2_s1.jpg,1,1,3670.10000002384,2,1
39,304,clocks,./Images/clocks/e1_s2.jpg,1,2,4838.60000002384,1,2
39,304,clocks,./Images/clocks/e2_s2.jpg,1,2,4838.60000002384,2,2
39,305,microwave,./Images/microwave/e2_s1.jpg,1,1,3215.79999995232,2,1
39,305,microwave,./Images/microwave/e1_s1.jpg,0,1,3215.79999995232,1,1
23,206,cell,./Images/cell/e1_s1.jpg,1,2,10329.5,1,1
23,206,cell,./Images/cell/e2_s2.jpg,1,2,10329.5,2,2
23,207,shoe,./Images/shoe/e2_s1.jpg,1,2,9971,2,1
23,207,shoe,./Images/shoe/e1_s1.jpg,1,2,9971,1,1
23,208,microwave,./Images/microwave/e2_s1.jpg,1,1,5787.10000002384,2,1
23,208,microwave,./Images/microwave/e1_s1.jpg,0,1,5787.10000002384,1,1
23,209,kettle,./Images/kettle/e2_s1.jpg,1,2,3575.10000002384,2,1
23,209,kettle,./Images/kettle/e1_s1.jpg,1,2,3575.10000002384,1,1
23,210,apple,./Images/apple/e2_s1.jpg,1,2,2442.30000001192,2,1
23,210,apple,./Images/apple/e1_s1.jpg,1,2,2442.30000001192,1,1
23,211,tricycle,./Images/tricycle/e1_s2.jpg,0,0,4406.60000002384,1,2
23,211,tricycle,./Images/tricycle/e2_s2.jpg,0,0,4406.60000002384,2,2
23,212,chapstick,./Images/chapstick/e1_s1.jpg,1,2,7383.59999996424,1,1
23,212,chapstick,./Images/chapstick/e2_s2.jpg,1,2,7383.59999996424,2,2
23,213,lemon,./Images/lemon/e2_s1.jpg,0,1,6990.39999997616,2,1
23,213,lemon,./Images/lemon/e1_s2.jpg,1,1,6990.39999997616,1,2
23,214,typewriter,./Images/typewriter/e2_s2.jpg,1,1,4852.70000004768,2,2
23,214,typewriter,./Images/typewriter/e1_s2.jpg,0,1,4852.70000004768,1,2
23,215,locks,./Images/locks/e1_s2.jpg,1,2,3420.5,1,2
23,215,locks,./Images/locks/e2_s2.jpg,1,2,3420.5,2,2
23,216,tictac,./Images/tictac/e1_s1.jpg,1,2,2829.40000003576,1,1
23,216,tictac,./Images/tictac/e2_s1.jpg,1,2,2829.40000003576,2,1
23,217,sugar_bowl,./Images/sugar_bowl/e2_s1.jpg,1,2,3441.79999995232,2,1
23,217,sugar_bowl,./Images/sugar_bowl/e1_s1.jpg,1,2,3441.79999995232,1,1
23,218,menus,./Images/menus/e1_s1.jpg,1,2,4481.69999998808,1,1
23,218,menus,./Images/menus/e2_s1.jpg,1,2,4481.69999998808,2,1
23,219,keys,./Images/keys/e1_s1.jpg,1,2,3613.5,1,1
23,219,keys,./Images/keys/e2_s2.jpg,1,2,3613.5,2,2
23,220,sharpie_pens,./Images/sharpie_pens/e2_s1.jpg,1,2,3607.40000003576,2,1
23,220,sharpie_pens,./Images/sharpie_pens/e1_s1.jpg,1,2,3607.40000003576,1,1
23,221,phone_antique,./Images/phone_antique/e2_s1.jpg,1,2,4554.39999997616,2,1
23,221,phone_antique,./Images/phone_antique/e1_s1.jpg,1,2,4554.39999997616,1,1
23,222,book_object,./Images/book_object/e2_s1.jpg,1,2,16901.8000000119,2,1
23,222,book_object,./Images/book_object/e1_s2.jpg,1,2,16901.8000000119,1,2
23,223,cardbox,./Images/cardbox/e2_s1.jpg,1,1,2816.10000002384,2,1
23,223,cardbox,./Images/cardbox/e1_s1.jpg,0,1,2816.10000002384,1,1
23,224,pen,./Images/pen/e2_s2.jpg,0,1,6662.80000001192,2,2
23,224,pen,./Images/pen/e1_s2.jpg,1,1,6662.80000001192,1,2
23,225,glass_orange,./Images/glass_orange/e2_s1.jpg,1,2,4280.89999997616,2,1
23,225,glass_orange,./Images/glass_orange/e1_s2.jpg,1,2,4280.89999997616,1,2
23,226,garlic_press,./Images/garlic_press/e1_s1.jpg,1,2,3635.80000001192,1,1
23,226,garlic_press,./Images/garlic_press/e2_s1.jpg,1,2,3635.80000001192,2,1
23,227,leather_bag,./Images/leather_bag/e1_s1.jpg,1,2,4461.19999998808,1,1
23,227,leather_bag,./Images/leather_bag/e2_s1.jpg,1,2,4461.19999998808,2,1
23,228,hand_puppet,./Images/hand_puppet/e1_s1.jpg,1,2,3285.89999997616,1,1
23,228,hand_puppet,./Images/hand_puppet/e2_s1.jpg,1,2,3285.89999997616,2,1
23,229,dryer,./Images/dryer/e2_s2.jpg,1,2,12359.8999999762,2,2
23,229,dryer,./Images/dryer/e1_s2.jpg,1,2,12359.8999999762,1,2
23,230,usb_key,./Images/usb_key/e2_s2.jpg,1,2,3006,2,2
23,230,usb_key,./Images/usb_key/e1_s2.jpg,1,2,3006,1,2
23,231,cooking_pot,./Images/cooking_pot/e2_s2.jpg,1,2,6995.5,2,2
23,231,cooking_pot,./Images/cooking_pot/e1_s2.jpg,1,2,6995.5,1,2
23,232,dresser,./Images/dresser/e1_s1.jpg,1,2,3257.80000001192,1,1
23,232,dresser,./Images/dresser/e2_s1.jpg,1,2,3257.80000001192,2,1
23,233,mixer,./Images/mixer/e1_s1.jpg,1,2,4925.5,1,1
23,233,mixer,./Images/mixer/e2_s1.jpg,1,2,4925.5,2,1
23,234,mailbox,./Images/mailbox/e2_s1.jpg,1,2,8232.30000001192,2,1
23,234,mailbox,./Images/mailbox/e1_s2.jpg,1,2,8232.30000001192,1,2
23,235,yarn,./Images/yarn/e2_s1.jpg,0,1,10134.5,2,1
23,235,yarn,./Images/yarn/e1_s2.jpg,1,1,10134.5,1,2
23,236,hourglass,./Images/hourglass/e1_s1.jpg,0,1,11457.0999999642,1,1
23,236,hourglass,./Images/hourglass/e2_s1.jpg,1,1,11457.0999999642,2,1
23,237,menorah,./Images/menorah/e2_s2.jpg,1,2,3766.40000003576,2,2
23,237,menorah,./Images/menorah/e1_s2.jpg,1,2,3766.40000003576,1,2
23,238,chocolate,./Images/chocolate/e2_s1.jpg,1,2,3081.79999995232,2,1
23,238,chocolate,./Images/chocolate/e1_s2.jpg,1,2,3081.79999995232,1,2
23,239,cabinet,./Images/cabinet/e2_s1.jpg,1,1,3803.40000003576,2,1
23,239,cabinet,./Images/cabinet/e1_s1.jpg,0,1,3803.40000003576,1,1
23,240,metronome,./Images/metronome/e2_s2.jpg,0,1,4722.5,2,2
23,240,metronome,./Images/metronome/e1_s2.jpg,1,1,4722.5,1,2
23,241,notebook,./Images/notebook/e2_s2.jpg,1,2,3172.80000001192,2,2
23,241,notebook,./Images/notebook/e1_s2.jpg,1,2,3172.80000001192,1,2
23,242,donut,./Images/donut/e1_s2.jpg,1,2,2225.40000003576,1,2
23,242,donut,./Images/donut/e2_s2.jpg,1,2,2225.40000003576,2,2
23,243,car,./Images/car/e1_s1.jpg,0,1,7175.5,1,1
23,243,car,./Images/car/e2_s2.jpg,1,1,7175.5,2,2
23,244,sponge,./Images/sponge/e2_s1.jpg,1,2,3125.5,2,1
23,244,sponge,./Images/sponge/e1_s2.jpg,1,2,3125.5,1,2
23,245,accordion,./Images/accordion/e2_s1.jpg,1,1,3416.09999996424,2,1
23,245,accordion,./Images/accordion/e1_s2.jpg,0,1,3416.09999996424,1,2
23,246,chip,./Images/chip/e1_s1.jpg,1,2,4300.60000002384,1,1
23,246,chip,./Images/chip/e2_s2.jpg,1,2,4300.60000002384,2,2
23,247,chair_recliner,./Images/chair_recliner/e1_s1.jpg,1,2,2882.5,1,1
23,247,chair_recliner,./Images/chair_recliner/e2_s2.jpg,1,2,2882.5,2,2
23,248,chips,./Images/chips/e2_s1.jpg,1,2,2682,2,1
23,248,chips,./Images/chips/e1_s1.jpg,1,2,2682,1,1
23,249,coins,./Images/coins/e2_s1.jpg,1,2,9272,2,1
23,249,coins,./Images/coins/e1_s2.jpg,1,2,9272,1,2
23,250,corkscrew,./Images/corkscrew/e1_s1.jpg,0,0,3367.5,1,1
23,250,corkscrew,./Images/corkscrew/e2_s2.jpg,0,0,3367.5,2,2
23,251,mustard,./Images/mustard/e2_s1.jpg,1,2,3481.20000004768,2,1
23,251,mustard,./Images/mustard/e1_s1.jpg,1,2,3481.20000004768,1,1
23,252,book,./Images/book/e2_s2.jpg,1,1,4999.80000001192,2,2
23,252,book,./Images/book/e1_s1.jpg,0,1,4999.80000001192,1,1
23,253,tape_dispenser,./Images/tape_dispenser/e2_s2.jpg,0,0,4112,2,2
23,253,tape_dispenser,./Images/tape_dispenser/e1_s1.jpg,0,0,4112,1,1
23,254,reeses,./Images/reeses/e1_s2.jpg,1,2,4935.90000003576,1,2
23,254,reeses,./Images/reeses/e2_s1.jpg,1,2,4935.90000003576,2,1
23,255,sugar_paper,./Images/sugar_paper/e2_s1.jpg,1,2,2699.89999997616,2,1
23,255,sugar_paper,./Images/sugar_paper/e1_s1.jpg,1,2,2699.89999997616,1,1
23,256,headphone_small,./Images/headphone_small/e1_s1.jpg,1,2,10210,1,1
23,256,headphone_small,./Images/headphone_small/e2_s2.jpg,1,2,10210,2,2
23,257,poker_chips,./Images/poker_chips/e1_s2.jpg,1,2,2648.09999996424,1,2
23,257,poker_chips,./Images/poker_chips/e2_s1.jpg,1,2,2648.09999996424,2,1
23,258,lottery_ticket,./Images/lottery_ticket/e1_s1.jpg,1,1,7458.80000001192,1,1
23,258,lottery_ticket,./Images/lottery_ticket/e2_s2.jpg,0,1,7458.80000001192,2,2
23,259,pie,./Images/pie/e1_s2.jpg,1,2,2226,1,2
23,259,pie,./Images/pie/e2_s2.jpg,1,2,2226,2,2
23,260,tissues,./Images/tissues/e1_s2.jpg,1,2,3276.19999998808,1,2
23,260,tissues,./Images/tissues/e2_s1.jpg,1,2,3276.19999998808,2,1
23,261,plastic_bottle,./Images/plastic_bottle/e1_s1.jpg,1,2,3054.79999995232,1,1
23,261,plastic_bottle,./Images/plastic_bottle/e2_s1.jpg,1,2,3054.79999995232,2,1
23,262,phone,./Images/phone/e1_s1.jpg,1,1,4559.60000002384,1,1
23,262,phone,./Images/phone/e2_s1.jpg,0,1,4559.60000002384,2,1
23,263,peanut_butter,./Images/peanut_butter/e1_s1.jpg,1,2,2291.19999998808,1,1
23,263,peanut_butter,./Images/peanut_butter/e2_s1.jpg,1,2,2291.19999998808,2,1
23,264,oj,./Images/oj/e1_s1.jpg,1,2,6346.40000003576,1,1
23,264,oj,./Images/oj/e2_s2.jpg,1,2,6346.40000003576,2,2
23,265,small_box,./Images/small_box/e1_s1.jpg,1,2,3870.5,1,1
23,265,small_box,./Images/small_box/e2_s1.jpg,1,2,3870.5,2,1
23,266,baseball_glove,./Images/baseball_glove/e2_s1.jpg,0,0,3212.39999997616,2,1
23,266,baseball_glove,./Images/baseball_glove/e1_s2.jpg,0,0,3212.39999997616,1,2
23,267,cocktail_umbrella,./Images/cocktail_umbrella/e1_s2.jpg,1,2,4579.80000001192,1,2
23,267,cocktail_umbrella,./Images/cocktail_umbrella/e2_s1.jpg,1,2,4579.80000001192,2,1
23,268,tea_pot,./Images/tea_pot/e1_s1.jpg,1,2,3257.69999998808,1,1
23,268,tea_pot,./Images/tea_pot/e2_s1.jpg,1,2,3257.69999998808,2,1
23,269,paper_cup,./Images/paper_cup/e2_s2.jpg,1,2,2600.40000003576,2,2
23,269,paper_cup,./Images/paper_cup/e1_s1.jpg,1,2,2600.40000003576,1,1
23,270,cookie,./Images/cookie/e2_s1.jpg,1,2,4400,2,1
23,270,cookie,./Images/cookie/e1_s1.jpg,1,2,4400,1,1
23,271,clocks,./Images/clocks/e1_s2.jpg,1,2,5059.90000003576,1,2
23,271,clocks,./Images/clocks/e2_s1.jpg,1,2,5059.90000003576,2,1
23,272,toilet,./Images/toilet/e1_s1.jpg,0,1,6488.5,1,1
23,272,toilet,./Images/toilet/e2_s1.jpg,1,1,6488.5,2,1
23,273,lotion,./Images/lotion/e2_s2.jpg,1,2,3417,2,2
23,273,lotion,./Images/lotion/e1_s2.jpg,1,2,3417,1,2
23,274,pail,./Images/pail/e2_s1.jpg,1,1,5274.10000002384,2,1
23,274,pail,./Images/pail/e1_s2.jpg,0,1,5274.10000002384,1,2
23,275,file_box,./Images/file_box/e1_s1.jpg,1,1,2976,1,1
23,275,file_box,./Images/file_box/e2_s1.jpg,0,1,2976,2,1
23,276,altoid,./Images/altoid/e2_s2.jpg,1,2,2941.30000001192,2,2
23,276,altoid,./Images/altoid/e1_s1.jpg,1,2,2941.30000001192,1,1
23,277,backpack,./Images/backpack/e1_s2.jpg,1,2,3610.10000002384,1,2
23,277,backpack,./Images/backpack/e2_s1.jpg,1,2,3610.10000002384,2,1
23,278,canopener,./Images/canopener/e1_s2.jpg,1,1,6606.09999996424,1,2
23,278,canopener,./Images/canopener/e2_s2.jpg,0,1,6606.09999996424,2,2
23,279,bottle_perfume,./Images/bottle_perfume/e1_s1.jpg,1,1,3726,1,1
23,279,bottle_perfume,./Images/bottle_perfume/e2_s1.jpg,0,1,3726,2,1
23,280,umbrella,./Images/umbrella/e2_s1.jpg,1,2,4239.60000002384,2,1
23,280,umbrella,./Images/umbrella/e1_s2.jpg,1,2,4239.60000002384,1,2
23,281,scanner,./Images/scanner/e1_s2.jpg,1,2,6811.19999998808,1,2
23,281,scanner,./Images/scanner/e2_s2.jpg,1,2,6811.19999998808,2,2
23,282,chocolate_bar,./Images/chocolate_bar/e2_s2.jpg,1,2,7046.89999997616,2,2
23,282,chocolate_bar,./Images/chocolate_bar/e1_s2.jpg,1,2,7046.89999997616,1,2
23,283,container_open,./Images/container_open/e2_s1.jpg,0,1,3782.10000002384,2,1
23,283,container_open,./Images/container_open/e1_s1.jpg,1,1,3782.10000002384,1,1
23,284,cereal,./Images/cereal/e1_s1.jpg,1,2,4487.5,1,1
23,284,cereal,./Images/cereal/e2_s2.jpg,1,2,4487.5,2,2
23,285,drink,./Images/drink/e1_s2.jpg,1,2,4831.5,1,2
23,285,drink,./Images/drink/e2_s2.jpg,1,2,4831.5,2,2
23,286,file_folder,./Images/file_folder/e1_s1.jpg,0,0,7607.5,1,1
23,286,file_folder,./Images/file_folder/e2_s2.jpg,0,0,7607.5,2,2
23,287,tool_box,./Images/tool_box/e2_s1.jpg,1,2,2375,2,1
23,287,tool_box,./Images/tool_box/e1_s1.jpg,1,2,2375,1,1
23,288,bills,./Images/bills/e1_s1.jpg,1,2,3097.39999997616,1,1
23,288,bills,./Images/bills/e2_s1.jpg,1,2,3097.39999997616,2,1
23,289,soap,./Images/soap/e1_s2.jpg,1,2,3556.10000002384,1,2
23,289,soap,./Images/soap/e2_s2.jpg,1,2,3556.10000002384,2,2
23,290,fridge,./Images/fridge/e2_s1.jpg,0,1,2803.40000003576,2,1
23,290,fridge,./Images/fridge/e1_s1.jpg,1,1,2803.40000003576,1,1
23,291,aabacus,./Images/aabacus/e1_s2.jpg,1,2,4709.69999998808,1,2
23,291,aabacus,./Images/aabacus/e2_s2.jpg,1,2,4709.69999998808,2,2
23,292,flask,./Images/flask/e1_s2.jpg,1,2,2946.80000001192,1,2
23,292,flask,./Images/flask/e2_s2.jpg,1,2,2946.80000001192,2,2
23,293,bottle_liquid,./Images/bottle_liquid/e2_s1.jpg,1,2,2511.80000001192,2,1
23,293,bottle_liquid,./Images/bottle_liquid/e1_s2.jpg,1,2,2511.80000001192,1,2
23,294,theater_seats,./Images/theater_seats/e2_s2.jpg,1,1,7707.70000004768,2,2
23,294,theater_seats,./Images/theater_seats/e1_s1.jpg,0,1,7707.70000004768,1,1
23,295,wallet,./Images/wallet/e2_s1.jpg,1,2,4195.69999998808,2,1
23,295,wallet,./Images/wallet/e1_s2.jpg,1,2,4195.69999998808,1,2
23,296,scissors,./Images/scissors/e2_s1.jpg,1,2,2710.89999997616,2,1
23,296,scissors,./Images/scissors/e1_s1.jpg,1,2,2710.89999997616,1,1
23,297,laptop,./Images/laptop/e2_s1.jpg,0,1,6401.80000001192,2,1
23,297,laptop,./Images/laptop/e1_s1.jpg,1,1,6401.80000001192,1,1
23,298,cabbage,./Images/cabbage/e1_s1.jpg,1,2,2032.5,1,1
23,298,cabbage,./Images/cabbage/e2_s2.jpg,1,2,2032.5,2,2
23,299,coffeemug,./Images/coffeemug/e1_s1.jpg,1,1,3433.5,1,1
23,299,coffeemug,./Images/coffeemug/e2_s1.jpg,0,1,3433.5,2,1
23,300,gift_box,./Images/gift_box/e1_s2.jpg,1,2,6892.69999998808,1,2
23,300,gift_box,./Images/gift_box/e2_s1.jpg,1,2,6892.69999998808,2,1
23,301,lunchbox,./Images/lunchbox/e1_s1.jpg,1,1,2774.39999997616,1,1
23,301,lunchbox,./Images/lunchbox/e2_s1.jpg,0,1,2774.39999997616,2,1
23,302,toy_truck,./Images/toy_truck/e1_s2.jpg,1,2,7716.80000001192,1,2
23,302,toy_truck,./Images/toy_truck/e2_s1.jpg,1,2,7716.80000001192,2,1
23,303,breadbox,./Images/breadbox/e1_s2.jpg,0,1,9505.69999998808,1,2
23,303,breadbox,./Images/breadbox/e2_s1.jpg,1,1,9505.69999998808,2,1
23,304,gummy,./Images/gummy/e2_s2.jpg,1,2,4815.5,2,2
23,304,gummy,./Images/gummy/e1_s1.jpg,1,2,4815.5,1,1
23,305,watch,./Images/watch/e2_s2.jpg,1,1,3231.19999998808,2,2
23,305,watch,./Images/watch/e1_s1.jpg,0,1,3231.19999998808,1,1
38,206,apple,./Images/apple/e2_s2.jpg,1,2,4893.89999997616,2,2
38,206,apple,./Images/apple/e1_s2.jpg,1,2,4893.89999997616,1,2
38,207,donut,./Images/donut/e2_s1.jpg,1,1,3843.89999997616,2,1
38,207,donut,./Images/donut/e1_s2.jpg,0,1,3843.89999997616,1,2
38,208,pen,./Images/pen/e2_s1.jpg,1,2,4728.5,2,1
38,208,pen,./Images/pen/e1_s2.jpg,1,2,4728.5,1,2
38,209,menorah,./Images/menorah/e2_s2.jpg,1,2,3657.20000004768,2,2
38,209,menorah,./Images/menorah/e1_s2.jpg,1,2,3657.20000004768,1,2
38,210,poker_chips,./Images/poker_chips/e2_s1.jpg,1,2,2330.89999997616,2,1
38,210,poker_chips,./Images/poker_chips/e1_s1.jpg,1,2,2330.89999997616,1,1
38,211,reeses,./Images/reeses/e1_s1.jpg,1,2,3477.10000002384,1,1
38,211,reeses,./Images/reeses/e2_s1.jpg,1,2,3477.10000002384,2,1
38,212,mustard,./Images/mustard/e1_s2.jpg,1,2,2788.60000002384,1,2
38,212,mustard,./Images/mustard/e2_s2.jpg,1,2,2788.60000002384,2,2
38,213,glass_orange,./Images/glass_orange/e2_s1.jpg,0,0,4529,2,1
38,213,glass_orange,./Images/glass_orange/e1_s2.jpg,0,0,4529,1,2
38,214,cookie,./Images/cookie/e1_s2.jpg,1,2,2312,1,2
38,214,cookie,./Images/cookie/e2_s2.jpg,1,2,2312,2,2
38,215,oj,./Images/oj/e1_s2.jpg,0,1,3341.69999992847,1,2
38,215,oj,./Images/oj/e2_s2.jpg,1,1,3341.69999992847,2,2
38,216,scanner,./Images/scanner/e2_s1.jpg,1,2,3893.89999997616,2,1
38,216,scanner,./Images/scanner/e1_s2.jpg,1,2,3893.89999997616,1,2
38,217,wallet,./Images/wallet/e1_s1.jpg,1,2,2795.90000009537,1,1
38,217,wallet,./Images/wallet/e2_s2.jpg,1,2,2795.90000009537,2,2
38,218,gift_box,./Images/gift_box/e2_s2.jpg,1,2,3195.60000002384,2,2
38,218,gift_box,./Images/gift_box/e1_s1.jpg,1,2,3195.60000002384,1,1
38,219,altoid,./Images/altoid/e2_s1.jpg,1,2,3208.89999997616,2,1
38,219,altoid,./Images/altoid/e1_s2.jpg,1,2,3208.89999997616,1,2
38,220,sugar_paper,./Images/sugar_paper/e1_s2.jpg,0,1,2894.59999990463,1,2
38,220,sugar_paper,./Images/sugar_paper/e2_s2.jpg,1,1,2894.59999990463,2,2
38,221,toy_truck,./Images/toy_truck/e1_s1.jpg,1,2,8247.69999992848,1,1
38,221,toy_truck,./Images/toy_truck/e2_s1.jpg,1,2,8247.69999992848,2,1
38,222,cooking_pot,./Images/cooking_pot/e2_s2.jpg,1,2,3194.29999995232,2,2
38,222,cooking_pot,./Images/cooking_pot/e1_s2.jpg,1,2,3194.29999995232,1,2
38,223,coins,./Images/coins/e1_s1.jpg,1,2,2971.89999997616,1,1
38,223,coins,./Images/coins/e2_s2.jpg,1,2,2971.89999997616,2,2
38,224,paper_cup,./Images/paper_cup/e2_s1.jpg,1,2,5507.10000002384,2,1
38,224,paper_cup,./Images/paper_cup/e1_s2.jpg,1,2,5507.10000002384,1,2
38,225,dresser,./Images/dresser/e1_s1.jpg,1,2,4610.40000009537,1,1
38,225,dresser,./Images/dresser/e2_s1.jpg,1,2,4610.40000009537,2,1
38,226,cardbox,./Images/cardbox/e1_s1.jpg,1,2,2813.19999992847,1,1
38,226,cardbox,./Images/cardbox/e2_s1.jpg,1,2,2813.19999992847,2,1
38,227,cell,./Images/cell/e2_s2.jpg,1,2,5461.69999992848,2,2
38,227,cell,./Images/cell/e1_s1.jpg,1,2,5461.69999992848,1,1
38,228,coffeemug,./Images/coffeemug/e2_s2.jpg,1,2,2959.09999990463,2,2
38,228,coffeemug,./Images/coffeemug/e1_s1.jpg,1,2,2959.09999990463,1,1
38,229,peanut_butter,./Images/peanut_butter/e2_s2.jpg,1,1,7212.60000002384,2,2
38,229,peanut_butter,./Images/peanut_butter/e1_s2.jpg,0,1,7212.60000002384,1,2
38,230,book,./Images/book/e1_s2.jpg,0,1,4878.10000002384,1,2
38,230,book,./Images/book/e2_s1.jpg,1,1,4878.10000002384,2,1
38,231,accordion,./Images/accordion/e1_s2.jpg,1,1,2427.29999995232,1,2
38,231,accordion,./Images/accordion/e2_s2.jpg,0,1,2427.29999995232,2,2
38,232,keys,./Images/keys/e2_s1.jpg,1,2,2248.10000002384,2,1
38,232,keys,./Images/keys/e1_s1.jpg,1,2,2248.10000002384,1,1
38,233,hand_puppet,./Images/hand_puppet/e2_s2.jpg,1,2,2059.29999995232,2,2
38,233,hand_puppet,./Images/hand_puppet/e1_s1.jpg,1,2,2059.29999995232,1,1
38,234,theater_seats,./Images/theater_seats/e1_s2.jpg,1,2,3577.89999997616,1,2
38,234,theater_seats,./Images/theater_seats/e2_s2.jpg,1,2,3577.89999997616,2,2
38,235,microwave,./Images/microwave/e1_s1.jpg,1,1,2760.70000004768,1,1
38,235,microwave,./Images/microwave/e2_s2.jpg,0,1,2760.70000004768,2,2
38,236,canopener,./Images/canopener/e2_s1.jpg,1,2,2339.5,2,1
38,236,canopener,./Images/canopener/e1_s2.jpg,1,2,2339.5,1,2
38,237,hourglass,./Images/hourglass/e1_s2.jpg,1,2,4688.39999997616,1,2
38,237,hourglass,./Images/hourglass/e2_s1.jpg,1,2,4688.39999997616,2,1
38,238,cocktail_umbrella,./Images/cocktail_umbrella/e2_s1.jpg,1,2,3460.70000004768,2,1
38,238,cocktail_umbrella,./Images/cocktail_umbrella/e1_s2.jpg,1,2,3460.70000004768,1,2
38,239,backpack,./Images/backpack/e1_s2.jpg,1,2,2425.79999995232,1,2
38,239,backpack,./Images/backpack/e2_s1.jpg,1,2,2425.79999995232,2,1
38,240,bills,./Images/bills/e2_s2.jpg,1,2,4428.40000009537,2,2
38,240,bills,./Images/bills/e1_s1.jpg,1,2,4428.40000009537,1,1
38,241,watch,./Images/watch/e1_s1.jpg,1,2,2105.30000007153,1,1
38,241,watch,./Images/watch/e2_s2.jpg,1,2,2105.30000007153,2,2
38,242,breadbox,./Images/breadbox/e2_s2.jpg,1,1,4913.29999995232,2,2
38,242,breadbox,./Images/breadbox/e1_s2.jpg,0,1,4913.29999995232,1,2
38,243,tape_dispenser,./Images/tape_dispenser/e2_s1.jpg,1,2,3095.80000007153,2,1
38,243,tape_dispenser,./Images/tape_dispenser/e1_s1.jpg,1,2,3095.80000007153,1,1
38,244,metronome,./Images/metronome/e1_s2.jpg,1,2,2146.89999997616,1,2
38,244,metronome,./Images/metronome/e2_s2.jpg,1,2,2146.89999997616,2,2
38,245,gummy,./Images/gummy/e1_s2.jpg,0,0,2712.29999995232,1,2
38,245,gummy,./Images/gummy/e2_s1.jpg,0,0,2712.29999995232,2,1
38,246,leather_bag,./Images/leather_bag/e2_s2.jpg,1,2,3793.89999997616,2,2
38,246,leather_bag,./Images/leather_bag/e1_s2.jpg,1,2,3793.89999997616,1,2
38,247,clocks,./Images/clocks/e2_s1.jpg,1,2,3309.09999990463,2,1
38,247,clocks,./Images/clocks/e1_s1.jpg,1,2,3309.09999990463,1,1
38,248,lottery_ticket,./Images/lottery_ticket/e2_s1.jpg,1,1,3694.89999997616,2,1
38,248,lottery_ticket,./Images/lottery_ticket/e1_s2.jpg,0,1,3694.89999997616,1,2
38,249,bottle_perfume,./Images/bottle_perfume/e1_s2.jpg,1,1,2344.29999995232,1,2
38,249,bottle_perfume,./Images/bottle_perfume/e2_s2.jpg,0,1,2344.29999995232,2,2
38,250,phone_antique,./Images/phone_antique/e2_s2.jpg,0,1,4793.19999992848,2,2
38,250,phone_antique,./Images/phone_antique/e1_s2.jpg,1,1,4793.19999992848,1,2
38,251,aabacus,./Images/aabacus/e2_s1.jpg,1,2,2961.20000004768,2,1
38,251,aabacus,./Images/aabacus/e1_s1.jpg,1,2,2961.20000004768,1,1
38,252,cabbage,./Images/cabbage/e2_s2.jpg,1,2,1777,2,2
38,252,cabbage,./Images/cabbage/e1_s2.jpg,1,2,1777,1,2
38,253,lemon,./Images/lemon/e1_s1.jpg,1,2,3330.60000002384,1,1
38,253,lemon,./Images/lemon/e2_s2.jpg,1,2,3330.60000002384,2,2
38,254,lotion,./Images/lotion/e1_s1.jpg,1,2,2328.69999992847,1,1
38,254,lotion,./Images/lotion/e2_s1.jpg,1,2,2328.69999992847,2,1
38,255,tea_pot,./Images/tea_pot/e1_s1.jpg,1,2,4894.10000002384,1,1
38,255,tea_pot,./Images/tea_pot/e2_s2.jpg,1,2,4894.10000002384,2,2
38,256,chapstick,./Images/chapstick/e2_s1.jpg,1,2,2159.79999995232,2,1
38,256,chapstick,./Images/chapstick/e1_s1.jpg,1,2,2159.79999995232,1,1
38,257,baseball_glove,./Images/baseball_glove/e2_s2.jpg,1,2,3170.89999997616,2,2
38,257,baseball_glove,./Images/baseball_glove/e1_s1.jpg,1,2,3170.89999997616,1,1
38,258,flask,./Images/flask/e1_s1.jpg,0,1,3378.89999997616,1,1
38,258,flask,./Images/flask/e2_s2.jpg,1,1,3378.89999997616,2,2
38,259,bottle_liquid,./Images/bottle_liquid/e2_s1.jpg,1,1,4780.20000004768,2,1
38,259,bottle_liquid,./Images/bottle_liquid/e1_s2.jpg,0,1,4780.20000004768,1,2
38,260,chips,./Images/chips/e1_s2.jpg,1,2,2844.19999992847,1,2
38,260,chips,./Images/chips/e2_s1.jpg,1,2,2844.19999992847,2,1
38,261,chip,./Images/chip/e1_s2.jpg,1,2,3795.80000007153,1,2
38,261,chip,./Images/chip/e2_s2.jpg,1,2,3795.80000007153,2,2
38,262,toilet,./Images/toilet/e2_s2.jpg,1,2,2127.20000004768,2,2
38,262,toilet,./Images/toilet/e1_s1.jpg,1,2,2127.20000004768,1,1
38,263,pie,./Images/pie/e2_s1.jpg,1,2,3347.69999992847,2,1
38,263,pie,./Images/pie/e1_s1.jpg,1,2,3347.69999992847,1,1
38,264,cabinet,./Images/cabinet/e1_s1.jpg,0,1,4643.30000007153,1,1
38,264,cabinet,./Images/cabinet/e2_s1.jpg,1,1,4643.30000007153,2,1
38,265,tricycle,./Images/tricycle/e2_s2.jpg,0,1,4512.30000007153,2,2
38,265,tricycle,./Images/tricycle/e1_s2.jpg,1,1,4512.30000007153,1,2
38,266,cereal,./Images/cereal/e1_s1.jpg,1,2,1873.10000002384,1,1
38,266,cereal,./Images/cereal/e2_s1.jpg,1,2,1873.10000002384,2,1
38,267,chair_recliner,./Images/chair_recliner/e2_s2.jpg,1,2,2759.60000002384,2,2
38,267,chair_recliner,./Images/chair_recliner/e1_s1.jpg,1,2,2759.60000002384,1,1
38,268,kettle,./Images/kettle/e2_s1.jpg,1,2,2565,2,1
38,268,kettle,./Images/kettle/e1_s2.jpg,1,2,2565,1,2
38,269,shoe,./Images/shoe/e2_s1.jpg,1,2,6094.10000002384,2,1
38,269,shoe,./Images/shoe/e1_s2.jpg,1,2,6094.10000002384,1,2
38,270,sponge,./Images/sponge/e1_s1.jpg,1,2,1909.5,1,1
38,270,sponge,./Images/sponge/e2_s1.jpg,1,2,1909.5,2,1
38,271,car,./Images/car/e2_s2.jpg,1,2,2810.60000002384,2,2
38,271,car,./Images/car/e1_s2.jpg,1,2,2810.60000002384,1,2
38,272,umbrella,./Images/umbrella/e2_s1.jpg,1,2,4378,2,1
38,272,umbrella,./Images/umbrella/e1_s1.jpg,1,2,4378,1,1
38,273,drink,./Images/drink/e1_s2.jpg,1,2,2656,1,2
38,273,drink,./Images/drink/e2_s1.jpg,1,2,2656,2,1
38,274,menus,./Images/menus/e1_s2.jpg,1,2,2777.20000004768,1,2
38,274,menus,./Images/menus/e2_s2.jpg,1,2,2777.20000004768,2,2
38,275,file_box,./Images/file_box/e2_s1.jpg,1,2,2707.30000007153,2,1
38,275,file_box,./Images/file_box/e1_s1.jpg,1,2,2707.30000007153,1,1
38,276,container_open,./Images/container_open/e2_s2.jpg,1,2,2959.19999992847,2,2
38,276,container_open,./Images/container_open/e1_s1.jpg,1,2,2959.19999992847,1,1
