participant,trial_index,category,chosen_img,correct,tot_correct,rt_last,exemplar,chosen_state
26,206,poker_chips,./Images/poker_chips/e2_s1.jpg,1,2,3499,2,1
26,206,poker_chips,./Images/poker_chips/e1_s1.jpg,1,2,3499,1,1
26,207,locks,./Images/locks/e1_s1.jpg,1,2,4044,1,1
26,207,locks,./Images/locks/e2_s1.jpg,1,2,4044,2,1
26,208,peanut_butter,./Images/peanut_butter/e1_s2.jpg,1,2,5147,1,2
26,208,peanut_butter,./Images/peanut_butter/e2_s1.jpg,1,2,5147,2,1
26,209,hourglass,./Images/hourglass/e2_s1.jpg,1,2,5295.99999999994,2,1
26,209,hourglass,./Images/hourglass/e1_s1.jpg,1,2,5295.99999999994,1,1
26,210,bottle_liquid,./Images/bottle_liquid/e2_s2.jpg,1,2,4831.00000000006,2,2
26,210,bottle_liquid,./Images/bottle_liquid/e1_s1.jpg,1,2,4831.00000000006,1,1
26,211,phone,./Images/phone/e1_s2.jpg,1,2,2795,1,2
26,211,phone,./Images/phone/e2_s1.jpg,1,2,2795,2,1
26,212,canopener,./Images/canopener/e1_s2.jpg,1,2,3544,1,2
26,212,canopener,./Images/canopener/e2_s2.jpg,1,2,3544,2,2
26,213,backpack,./Images/backpack/e2_s2.jpg,1,2,2609,2,2
26,213,backpack,./Images/backpack/e1_s2.jpg,1,2,2609,1,2
26,214,file_box,./Images/file_box/e2_s1.jpg,1,2,3393,2,1
26,214,file_box,./Images/file_box/e1_s2.jpg,1,2,3393,1,2
26,215,plastic_bottle,./Images/plastic_bottle/e1_s1.jpg,1,1,2964,1,1
26,215,plastic_bottle,./Images/plastic_bottle/e2_s2.jpg,0,1,2964,2,2
26,216,usb_key,./Images/usb_key/e1_s2.jpg,1,2,2555,1,2
26,216,usb_key,./Images/usb_key/e2_s2.jpg,1,2,2555,2,2
26,217,aabacus,./Images/aabacus/e2_s1.jpg,1,2,2852,2,1
26,217,aabacus,./Images/aabacus/e1_s1.jpg,1,2,2852,1,1
26,218,cabinet,./Images/cabinet/e2_s1.jpg,0,1,7429.00000000012,2,1
26,218,cabinet,./Images/cabinet/e1_s2.jpg,1,1,7429.00000000012,1,2
26,219,chair_recliner,./Images/chair_recliner/e2_s2.jpg,1,2,2279.99999999994,2,2
26,219,chair_recliner,./Images/chair_recliner/e1_s1.jpg,1,2,2279.99999999994,1,1
26,220,reeses,./Images/reeses/e1_s2.jpg,1,2,4835,1,2
26,220,reeses,./Images/reeses/e2_s1.jpg,1,2,4835,2,1
26,221,cocktail_umbrella,./Images/cocktail_umbrella/e2_s2.jpg,1,2,7693,2,2
26,221,cocktail_umbrella,./Images/cocktail_umbrella/e1_s1.jpg,1,2,7693,1,1
26,222,microwave,./Images/microwave/e1_s1.jpg,1,2,2873,1,1
26,222,microwave,./Images/microwave/e2_s2.jpg,1,2,2873,2,2
26,223,hand_puppet,./Images/hand_puppet/e1_s2.jpg,1,2,2105,1,2
26,223,hand_puppet,./Images/hand_puppet/e2_s1.jpg,1,2,2105,2,1
26,224,gummy,./Images/gummy/e2_s2.jpg,1,2,3439,2,2
26,224,gummy,./Images/gummy/e1_s1.jpg,1,2,3439,1,1
26,225,cookie,./Images/cookie/e2_s1.jpg,1,2,4086,2,1
26,225,cookie,./Images/cookie/e1_s2.jpg,1,2,4086,1,2
26,226,bottle_perfume,./Images/bottle_perfume/e2_s2.jpg,1,2,3575,2,2
26,226,bottle_perfume,./Images/bottle_perfume/e1_s1.jpg,1,2,3575,1,1
26,227,altoid,./Images/altoid/e2_s2.jpg,1,2,2922,2,2
26,227,altoid,./Images/altoid/e1_s2.jpg,1,2,2922,1,2
26,228,apple,./Images/apple/e2_s2.jpg,1,2,2089,2,2
26,228,apple,./Images/apple/e1_s2.jpg,1,2,2089,1,2
26,229,wallet,./Images/wallet/e2_s2.jpg,1,2,2918,2,2
26,229,wallet,./Images/wallet/e1_s2.jpg,1,2,2918,1,2
26,230,small_box,./Images/small_box/e2_s1.jpg,1,2,8908,2,1
26,230,small_box,./Images/small_box/e1_s1.jpg,1,2,8908,1,1
26,231,lotion,./Images/lotion/e1_s2.jpg,1,2,3048,1,2
26,231,lotion,./Images/lotion/e2_s2.jpg,1,2,3048,2,2
26,232,tricycle,./Images/tricycle/e1_s2.jpg,0,0,2292,1,2
26,232,tricycle,./Images/tricycle/e2_s2.jpg,0,0,2292,2,2
26,233,notebook,./Images/notebook/e1_s2.jpg,1,1,6355,1,2
26,233,notebook,./Images/notebook/e2_s1.jpg,0,1,6355,2,1
26,234,chips,./Images/chips/e1_s1.jpg,1,2,5095,1,1
26,234,chips,./Images/chips/e2_s2.jpg,1,2,5095,2,2
26,235,book,./Images/book/e1_s1.jpg,1,1,3312,1,1
26,235,book,./Images/book/e2_s1.jpg,0,1,3312,2,1
26,236,sugar_paper,./Images/sugar_paper/e2_s1.jpg,1,2,2823,2,1
26,236,sugar_paper,./Images/sugar_paper/e1_s2.jpg,1,2,2823,1,2
26,237,breadbox,./Images/breadbox/e1_s2.jpg,0,0,5397,1,2
26,237,breadbox,./Images/breadbox/e2_s2.jpg,0,0,5397,2,2
26,238,tissues,./Images/tissues/e2_s1.jpg,1,2,1535,2,1
26,238,tissues,./Images/tissues/e1_s1.jpg,1,2,1535,1,1
26,239,coins,./Images/coins/e1_s1.jpg,1,2,4139.00000000012,1,1
26,239,coins,./Images/coins/e2_s2.jpg,1,2,4139.00000000012,2,2
26,240,mustard,./Images/mustard/e1_s2.jpg,1,2,4737,1,2
26,240,mustard,./Images/mustard/e2_s1.jpg,1,2,4737,2,1
26,241,fridge,./Images/fridge/e2_s1.jpg,1,2,4788,2,1
26,241,fridge,./Images/fridge/e1_s1.jpg,1,2,4788,1,1
26,242,book_object,./Images/book_object/e2_s2.jpg,1,2,2874,2,2
26,242,book_object,./Images/book_object/e1_s2.jpg,1,2,2874,1,2
26,243,keys,./Images/keys/e1_s1.jpg,0,1,4261,1,1
26,243,keys,./Images/keys/e2_s2.jpg,1,1,4261,2,2
26,244,drink,./Images/drink/e1_s1.jpg,1,1,5678,1,1
26,244,drink,./Images/drink/e2_s2.jpg,0,1,5678,2,2
26,245,toy_truck,./Images/toy_truck/e2_s2.jpg,0,1,4328,2,2
26,245,toy_truck,./Images/toy_truck/e1_s1.jpg,1,1,4328,1,1
26,246,metronome,./Images/metronome/e1_s1.jpg,1,1,2091.99999999988,1,1
26,246,metronome,./Images/metronome/e2_s1.jpg,0,1,2091.99999999988,2,1
26,247,tool_box,./Images/tool_box/e2_s2.jpg,0,0,4430,2,2
26,247,tool_box,./Images/tool_box/e1_s1.jpg,0,0,4430,1,1
26,248,cabbage,./Images/cabbage/e2_s2.jpg,1,2,2521,2,2
26,248,cabbage,./Images/cabbage/e1_s1.jpg,1,2,2521,1,1
26,249,cereal,./Images/cereal/e1_s2.jpg,1,1,3128,1,2
26,249,cereal,./Images/cereal/e2_s2.jpg,0,1,3128,2,2
26,250,cell,./Images/cell/e2_s1.jpg,1,2,2433,2,1
26,250,cell,./Images/cell/e1_s1.jpg,1,2,2433,1,1
26,251,leather_bag,./Images/leather_bag/e1_s2.jpg,1,2,3224.99999999988,1,2
26,251,leather_bag,./Images/leather_bag/e2_s1.jpg,1,2,3224.99999999988,2,1
26,252,chocolate,./Images/chocolate/e1_s2.jpg,1,2,2173,1,2
26,252,chocolate,./Images/chocolate/e2_s2.jpg,1,2,2173,2,2
26,253,sharpie_pens,./Images/sharpie_pens/e1_s2.jpg,1,2,3539,1,2
26,253,sharpie_pens,./Images/sharpie_pens/e2_s1.jpg,1,2,3539,2,1
26,254,car,./Images/car/e2_s1.jpg,1,2,4658,2,1
26,254,car,./Images/car/e1_s2.jpg,1,2,4658,1,2
26,255,flask,./Images/flask/e1_s1.jpg,1,2,3468,1,1
26,255,flask,./Images/flask/e2_s2.jpg,1,2,3468,2,2
26,256,scanner,./Images/scanner/e2_s2.jpg,1,1,4988,2,2
26,256,scanner,./Images/scanner/e1_s1.jpg,0,1,4988,1,1
26,257,bills,./Images/bills/e1_s2.jpg,1,2,2242,1,2
26,257,bills,./Images/bills/e2_s1.jpg,1,2,2242,2,1
26,258,watch,./Images/watch/e1_s1.jpg,1,2,2596,1,1
26,258,watch,./Images/watch/e2_s2.jpg,1,2,2596,2,2
26,259,pie,./Images/pie/e2_s2.jpg,1,2,2434.99999999988,2,2
26,259,pie,./Images/pie/e1_s2.jpg,1,2,2434.99999999988,1,2
26,260,sponge,./Images/sponge/e1_s1.jpg,0,1,5457.99999999988,1,1
26,260,sponge,./Images/sponge/e2_s2.jpg,1,1,5457.99999999988,2,2
26,261,cardbox,./Images/cardbox/e1_s2.jpg,1,2,1855,1,2
26,261,cardbox,./Images/cardbox/e2_s2.jpg,1,2,1855,2,2
26,262,toilet,./Images/toilet/e1_s1.jpg,1,2,3252.99999999988,1,1
26,262,toilet,./Images/toilet/e2_s1.jpg,1,2,3252.99999999988,2,1
26,263,laptop,./Images/laptop/e2_s1.jpg,1,2,4586.00000000012,2,1
26,263,laptop,./Images/laptop/e1_s2.jpg,1,2,4586.00000000012,1,2
26,264,coffeemug,./Images/coffeemug/e2_s1.jpg,0,1,6404,2,1
26,264,coffeemug,./Images/coffeemug/e1_s2.jpg,1,1,6404,1,2
26,265,soap,./Images/soap/e1_s2.jpg,1,2,2698,1,2
26,265,soap,./Images/soap/e2_s1.jpg,1,2,2698,2,1
26,266,chapstick,./Images/chapstick/e1_s1.jpg,0,1,3065,1,1
26,266,chapstick,./Images/chapstick/e2_s1.jpg,1,1,3065,2,1
26,267,glass_orange,./Images/glass_orange/e1_s2.jpg,1,1,4371,1,2
26,267,glass_orange,./Images/glass_orange/e2_s1.jpg,0,1,4371,2,1
26,268,accordion,./Images/accordion/e2_s2.jpg,1,1,3187,2,2
26,268,accordion,./Images/accordion/e1_s2.jpg,0,1,3187,1,2
26,269,baseball_glove,./Images/baseball_glove/e2_s1.jpg,1,2,2037,2,1
26,269,baseball_glove,./Images/baseball_glove/e1_s2.jpg,1,2,2037,1,2
26,270,pen,./Images/pen/e2_s2.jpg,1,1,3636,2,2
26,270,pen,./Images/pen/e1_s1.jpg,0,1,3636,1,1
26,271,sugar_bowl,./Images/sugar_bowl/e1_s1.jpg,1,1,3252,1,1
26,271,sugar_bowl,./Images/sugar_bowl/e2_s2.jpg,0,1,3252,2,2
26,272,dresser,./Images/dresser/e2_s1.jpg,1,2,2960.00000000012,2,1
26,272,dresser,./Images/dresser/e1_s2.jpg,1,2,2960.00000000012,1,2
26,273,shoe,./Images/shoe/e2_s1.jpg,1,2,2642,2,1
26,273,shoe,./Images/shoe/e1_s2.jpg,1,2,2642,1,2
26,274,garlic_press,./Images/garlic_press/e1_s2.jpg,0,1,4722,1,2
26,274,garlic_press,./Images/garlic_press/e2_s2.jpg,1,1,4722,2,2
26,275,tape_dispenser,./Images/tape_dispenser/e2_s2.jpg,0,0,4607.00000000012,2,2
26,275,tape_dispenser,./Images/tape_dispenser/e1_s1.jpg,0,0,4607.00000000012,1,1
26,276,gift_box,./Images/gift_box/e2_s1.jpg,1,1,2385.00000000012,2,1
26,276,gift_box,./Images/gift_box/e1_s2.jpg,0,1,2385.00000000012,1,2
26,277,paper_cup,./Images/paper_cup/e1_s1.jpg,1,2,3139,1,1
26,277,paper_cup,./Images/paper_cup/e2_s2.jpg,1,2,3139,2,2
26,278,yarn,./Images/yarn/e2_s2.jpg,0,1,5458,2,2
26,278,yarn,./Images/yarn/e1_s1.jpg,1,1,5458,1,1
26,279,menus,./Images/menus/e1_s1.jpg,1,1,3097,1,1
26,279,menus,./Images/menus/e2_s2.jpg,0,1,3097,2,2
26,280,theater_seats,./Images/theater_seats/e2_s2.jpg,1,2,2447,2,2
26,280,theater_seats,./Images/theater_seats/e1_s1.jpg,1,2,2447,1,1
26,281,pail,./Images/pail/e2_s2.jpg,1,2,4502,2,2
26,281,pail,./Images/pail/e1_s1.jpg,1,2,4502,1,1
26,282,file_folder,./Images/file_folder/e1_s1.jpg,1,1,4872,1,1
26,282,file_folder,./Images/file_folder/e2_s2.jpg,0,1,4872,2,2
26,283,tea_pot,./Images/tea_pot/e1_s1.jpg,1,2,3141,1,1
26,283,tea_pot,./Images/tea_pot/e2_s1.jpg,1,2,3141,2,1
26,284,mailbox,./Images/mailbox/e1_s2.jpg,1,2,6436,1,2
26,284,mailbox,./Images/mailbox/e2_s1.jpg,1,2,6436,2,1
26,285,container_open,./Images/container_open/e1_s1.jpg,0,0,4911,1,1
26,285,container_open,./Images/container_open/e2_s2.jpg,0,0,4911,2,2
26,286,phone_antique,./Images/phone_antique/e1_s1.jpg,1,2,2947,1,1
26,286,phone_antique,./Images/phone_antique/e2_s2.jpg,1,2,2947,2,2
26,287,menorah,./Images/menorah/e2_s2.jpg,1,2,2301,2,2
26,287,menorah,./Images/menorah/e1_s1.jpg,1,2,2301,1,1
26,288,donut,./Images/donut/e2_s1.jpg,1,2,2225,2,1
26,288,donut,./Images/donut/e1_s2.jpg,1,2,2225,1,2
26,289,lemon,./Images/lemon/e2_s1.jpg,1,2,2661,2,1
26,289,lemon,./Images/lemon/e1_s2.jpg,1,2,2661,1,2
26,290,cooking_pot,./Images/cooking_pot/e2_s1.jpg,0,1,2715,2,1
26,290,cooking_pot,./Images/cooking_pot/e1_s1.jpg,1,1,2715,1,1
26,291,headphone_small,./Images/headphone_small/e1_s1.jpg,1,2,7563,1,1
26,291,headphone_small,./Images/headphone_small/e2_s1.jpg,1,2,7563,2,1
26,292,typewriter,./Images/typewriter/e1_s1.jpg,0,1,3989.00000000012,1,1
26,292,typewriter,./Images/typewriter/e2_s2.jpg,1,1,3989.00000000012,2,2
26,293,clocks,./Images/clocks/e2_s2.jpg,1,1,5862,2,2
26,293,clocks,./Images/clocks/e1_s1.jpg,0,1,5862,1,1
26,294,oj,./Images/oj/e2_s1.jpg,1,2,9118.99999999988,2,1
26,294,oj,./Images/oj/e1_s2.jpg,1,2,9118.99999999988,1,2
26,295,dryer,./Images/dryer/e2_s2.jpg,1,2,2733,2,2
26,295,dryer,./Images/dryer/e1_s2.jpg,1,2,2733,1,2
26,296,mixer,./Images/mixer/e1_s1.jpg,1,2,3150,1,1
26,296,mixer,./Images/mixer/e2_s2.jpg,1,2,3150,2,2
26,297,lunchbox,./Images/lunchbox/e1_s1.jpg,0,1,5820.00000000012,1,1
26,297,lunchbox,./Images/lunchbox/e2_s1.jpg,1,1,5820.00000000012,2,1
26,298,lottery_ticket,./Images/lottery_ticket/e2_s2.jpg,0,0,4328,2,2
26,298,lottery_ticket,./Images/lottery_ticket/e1_s2.jpg,0,0,4328,1,2
26,299,scissors,./Images/scissors/e2_s2.jpg,0,1,3207.00000000012,2,2
26,299,scissors,./Images/scissors/e1_s1.jpg,1,1,3207.00000000012,1,1
26,300,corkscrew,./Images/corkscrew/e1_s2.jpg,0,0,2581,1,2
26,300,corkscrew,./Images/corkscrew/e2_s1.jpg,0,0,2581,2,1
26,301,chocolate_bar,./Images/chocolate_bar/e2_s1.jpg,1,2,1713,2,1
26,301,chocolate_bar,./Images/chocolate_bar/e1_s1.jpg,1,2,1713,1,1
26,302,umbrella,./Images/umbrella/e2_s2.jpg,1,1,5058,2,2
26,302,umbrella,./Images/umbrella/e1_s1.jpg,0,1,5058,1,1
26,303,kettle,./Images/kettle/e1_s1.jpg,1,2,2074,1,1
26,303,kettle,./Images/kettle/e2_s1.jpg,1,2,2074,2,1
26,304,chip,./Images/chip/e2_s1.jpg,0,1,7077.99999999988,2,1
26,304,chip,./Images/chip/e1_s2.jpg,1,1,7077.99999999988,1,2
26,305,tictac,./Images/tictac/e1_s1.jpg,1,2,2289.00000000012,1,1
26,305,tictac,./Images/tictac/e2_s1.jpg,1,2,2289.00000000012,2,1
10,206,file_box,./Images/file_box/e1_s1.jpg,1,2,6451.70000001788,1,1
10,206,file_box,./Images/file_box/e2_s1.jpg,1,2,6451.70000001788,2,1
10,207,wallet,./Images/wallet/e2_s2.jpg,1,2,2597.90000000596,2,2
10,207,wallet,./Images/wallet/e1_s2.jpg,1,2,2597.90000000596,1,2
10,208,leather_bag,./Images/leather_bag/e2_s1.jpg,1,2,4761.90000000596,2,1
10,208,leather_bag,./Images/leather_bag/e1_s2.jpg,1,2,4761.90000000596,1,2
10,209,aabacus,./Images/aabacus/e2_s2.jpg,1,2,7263.5,2,2
10,209,aabacus,./Images/aabacus/e1_s2.jpg,1,2,7263.5,1,2
10,210,drink,./Images/drink/e1_s1.jpg,1,2,2198.09999999404,1,1
10,210,drink,./Images/drink/e2_s2.jpg,1,2,2198.09999999404,2,2
10,211,baseball_glove,./Images/baseball_glove/e2_s1.jpg,1,2,1562.30000001192,2,1
10,211,baseball_glove,./Images/baseball_glove/e1_s1.jpg,1,2,1562.30000001192,1,1
10,212,car,./Images/car/e2_s2.jpg,1,2,3829.70000001788,2,2
10,212,car,./Images/car/e1_s1.jpg,1,2,3829.70000001788,1,1
10,213,small_box,./Images/small_box/e2_s2.jpg,1,2,2247.90000000596,2,2
10,213,small_box,./Images/small_box/e1_s2.jpg,1,2,2247.90000000596,1,2
10,214,usb_key,./Images/usb_key/e2_s2.jpg,1,2,1747.09999999404,2,2
10,214,usb_key,./Images/usb_key/e1_s2.jpg,1,2,1747.09999999404,1,2
10,215,oj,./Images/oj/e1_s1.jpg,1,2,5713.90000000596,1,1
10,215,oj,./Images/oj/e2_s2.jpg,1,2,5713.90000000596,2,2
10,216,backpack,./Images/backpack/e2_s1.jpg,1,2,3263,2,1
10,216,backpack,./Images/backpack/e1_s1.jpg,1,2,3263,1,1
10,217,cabinet,./Images/cabinet/e2_s1.jpg,0,0,4298.69999998808,2,1
10,217,cabinet,./Images/cabinet/e1_s1.jpg,0,0,4298.69999998808,1,1
10,218,pie,./Images/pie/e2_s1.jpg,1,2,1745.59999999404,2,1
10,218,pie,./Images/pie/e1_s1.jpg,1,2,1745.59999999404,1,1
10,219,bottle_liquid,./Images/bottle_liquid/e1_s2.jpg,1,2,1730.20000001788,1,2
10,219,bottle_liquid,./Images/bottle_liquid/e2_s2.jpg,1,2,1730.20000001788,2,2
10,220,umbrella,./Images/umbrella/e2_s1.jpg,1,2,5479.59999999404,2,1
10,220,umbrella,./Images/umbrella/e1_s2.jpg,1,2,5479.59999999404,1,2
10,221,scissors,./Images/scissors/e1_s2.jpg,1,2,1745.59999999404,1,2
10,221,scissors,./Images/scissors/e2_s1.jpg,1,2,1745.59999999404,2,1
10,222,chocolate,./Images/chocolate/e2_s1.jpg,1,2,2162.30000001192,2,1
10,222,chocolate,./Images/chocolate/e1_s2.jpg,1,2,2162.30000001192,1,2
10,223,paper_cup,./Images/paper_cup/e2_s2.jpg,1,2,4929.09999999404,2,2
10,223,paper_cup,./Images/paper_cup/e1_s1.jpg,1,2,4929.09999999404,1,1
10,224,coffeemug,./Images/coffeemug/e2_s1.jpg,1,2,1462.19999998808,2,1
10,224,coffeemug,./Images/coffeemug/e1_s1.jpg,1,2,1462.19999998808,1,1
10,225,cookie,./Images/cookie/e2_s1.jpg,1,2,7063.09999999404,2,1
10,225,cookie,./Images/cookie/e1_s2.jpg,1,2,7063.09999999404,1,2
10,226,container_open,./Images/container_open/e1_s2.jpg,1,1,5996.39999997616,1,2
10,226,container_open,./Images/container_open/e2_s1.jpg,0,1,5996.39999997616,2,1
10,227,gift_box,./Images/gift_box/e2_s2.jpg,1,2,1945.59999999404,2,2
10,227,gift_box,./Images/gift_box/e1_s2.jpg,1,2,1945.59999999404,1,2
10,228,tricycle,./Images/tricycle/e2_s1.jpg,1,1,5845.29999998212,2,1
10,228,tricycle,./Images/tricycle/e1_s1.jpg,0,1,5845.29999998212,1,1
10,229,poker_chips,./Images/poker_chips/e1_s1.jpg,1,2,2228,1,1
10,229,poker_chips,./Images/poker_chips/e2_s1.jpg,1,2,2228,2,1
10,230,coins,./Images/coins/e2_s2.jpg,1,2,1661.59999999404,2,2
10,230,coins,./Images/coins/e1_s2.jpg,1,2,1661.59999999404,1,2
10,231,cereal,./Images/cereal/e1_s2.jpg,1,2,2280.79999998212,1,2
10,231,cereal,./Images/cereal/e2_s2.jpg,1,2,2280.79999998212,2,2
10,232,dresser,./Images/dresser/e2_s1.jpg,1,1,3179.29999998212,2,1
10,232,dresser,./Images/dresser/e1_s1.jpg,0,1,3179.29999998212,1,1
10,233,garlic_press,./Images/garlic_press/e2_s2.jpg,1,2,2096.30000001192,2,2
10,233,garlic_press,./Images/garlic_press/e1_s1.jpg,1,2,2096.30000001192,1,1
10,234,chapstick,./Images/chapstick/e2_s2.jpg,1,2,2629.59999999404,2,2
10,234,chapstick,./Images/chapstick/e1_s1.jpg,1,2,2629.59999999404,1,1
10,235,pen,./Images/pen/e1_s2.jpg,1,1,2730.5,1,2
10,235,pen,./Images/pen/e2_s2.jpg,0,1,2730.5,2,2
10,236,fridge,./Images/fridge/e2_s2.jpg,1,2,2263.79999998212,2,2
10,236,fridge,./Images/fridge/e1_s1.jpg,1,2,2263.79999998212,1,1
10,237,glass_orange,./Images/glass_orange/e2_s2.jpg,1,1,2796.59999999404,2,2
10,237,glass_orange,./Images/glass_orange/e1_s2.jpg,0,1,2796.59999999404,1,2
10,238,chocolate_bar,./Images/chocolate_bar/e2_s2.jpg,1,2,1664,2,2
10,238,chocolate_bar,./Images/chocolate_bar/e1_s1.jpg,1,2,1664,1,1
10,239,menus,./Images/menus/e2_s1.jpg,1,2,4212,2,1
10,239,menus,./Images/menus/e1_s1.jpg,1,2,4212,1,1
10,240,canopener,./Images/canopener/e2_s1.jpg,1,2,3513.60000002384,2,1
10,240,canopener,./Images/canopener/e1_s2.jpg,1,2,3513.60000002384,1,2
10,241,headphone_small,./Images/headphone_small/e1_s2.jpg,1,2,1611.5,1,2
10,241,headphone_small,./Images/headphone_small/e2_s1.jpg,1,2,1611.5,2,1
10,242,menorah,./Images/menorah/e1_s1.jpg,1,2,3695.79999998212,1,1
10,242,menorah,./Images/menorah/e2_s2.jpg,1,2,3695.79999998212,2,2
10,243,lunchbox,./Images/lunchbox/e2_s2.jpg,0,0,7579.19999998808,2,2
10,243,lunchbox,./Images/lunchbox/e1_s1.jpg,0,0,7579.19999998808,1,1
10,244,watch,./Images/watch/e2_s1.jpg,1,2,2298.20000001788,2,1
10,244,watch,./Images/watch/e1_s1.jpg,1,2,2298.20000001788,1,1
10,245,mixer,./Images/mixer/e1_s1.jpg,1,2,2430.10000002384,1,1
10,245,mixer,./Images/mixer/e2_s1.jpg,1,2,2430.10000002384,2,1
10,246,chair_recliner,./Images/chair_recliner/e1_s1.jpg,1,2,1496.59999999404,1,1
10,246,chair_recliner,./Images/chair_recliner/e2_s1.jpg,1,2,1496.59999999404,2,1
10,247,mustard,./Images/mustard/e1_s1.jpg,1,2,1629.59999999404,1,1
10,247,mustard,./Images/mustard/e2_s1.jpg,1,2,1629.59999999404,2,1
10,248,phone,./Images/phone/e1_s1.jpg,0,1,3564.40000000596,1,1
10,248,phone,./Images/phone/e2_s1.jpg,1,1,3564.40000000596,2,1
10,249,peanut_butter,./Images/peanut_butter/e1_s1.jpg,1,2,1760.80000001192,1,1
10,249,peanut_butter,./Images/peanut_butter/e2_s2.jpg,1,2,1760.80000001192,2,2
10,250,theater_seats,./Images/theater_seats/e2_s2.jpg,1,2,2297,2,2
10,250,theater_seats,./Images/theater_seats/e1_s1.jpg,1,2,2297,1,1
10,251,sharpie_pens,./Images/sharpie_pens/e1_s1.jpg,1,2,1662.5,1,1
10,251,sharpie_pens,./Images/sharpie_pens/e2_s1.jpg,1,2,1662.5,2,1
10,252,corkscrew,./Images/corkscrew/e2_s2.jpg,1,2,2328.90000000596,2,2
10,252,corkscrew,./Images/corkscrew/e1_s2.jpg,1,2,2328.90000000596,1,2
10,253,book,./Images/book/e2_s1.jpg,1,2,1379.09999999404,2,1
10,253,book,./Images/book/e1_s1.jpg,1,2,1379.09999999404,1,1
10,254,donut,./Images/donut/e2_s2.jpg,1,2,2079.90000000596,2,2
10,254,donut,./Images/donut/e1_s1.jpg,1,2,2079.90000000596,1,1
10,255,pail,./Images/pail/e2_s1.jpg,1,2,1896.90000000596,2,1
10,255,pail,./Images/pail/e1_s1.jpg,1,2,1896.90000000596,1,1
10,256,metronome,./Images/metronome/e2_s2.jpg,1,2,1547.29999998212,2,2
10,256,metronome,./Images/metronome/e1_s2.jpg,1,2,1547.29999998212,1,2
10,257,typewriter,./Images/typewriter/e1_s2.jpg,1,2,1545.59999999404,1,2
10,257,typewriter,./Images/typewriter/e2_s2.jpg,1,2,1545.59999999404,2,2
10,258,cabbage,./Images/cabbage/e1_s2.jpg,1,2,1895.89999997616,1,2
10,258,cabbage,./Images/cabbage/e2_s1.jpg,1,2,1895.89999997616,2,1
10,259,hand_puppet,./Images/hand_puppet/e2_s2.jpg,1,2,1496,2,2
10,259,hand_puppet,./Images/hand_puppet/e1_s2.jpg,1,2,1496,1,2
10,260,flask,./Images/flask/e2_s1.jpg,1,1,3182.20000001788,2,1
10,260,flask,./Images/flask/e1_s1.jpg,0,1,3182.20000001788,1,1
10,261,lemon,./Images/lemon/e2_s1.jpg,1,2,1829.09999999404,2,1
10,261,lemon,./Images/lemon/e1_s2.jpg,1,2,1829.09999999404,1,2
10,262,phone_antique,./Images/phone_antique/e2_s1.jpg,0,1,3913.29999998212,2,1
10,262,phone_antique,./Images/phone_antique/e1_s1.jpg,1,1,3913.29999998212,1,1
10,263,lotion,./Images/lotion/e2_s1.jpg,1,2,1879.5,2,1
10,263,lotion,./Images/lotion/e1_s2.jpg,1,2,1879.5,1,2
10,264,hourglass,./Images/hourglass/e1_s1.jpg,1,2,2197.30000001192,1,1
10,264,hourglass,./Images/hourglass/e2_s2.jpg,1,2,2197.30000001192,2,2
10,265,scanner,./Images/scanner/e2_s2.jpg,1,2,2563.59999999404,2,2
10,265,scanner,./Images/scanner/e1_s1.jpg,1,2,2563.59999999404,1,1
10,266,yarn,./Images/yarn/e1_s1.jpg,1,2,2213.69999998808,1,1
10,266,yarn,./Images/yarn/e2_s2.jpg,1,2,2213.69999998808,2,2
10,267,toilet,./Images/toilet/e1_s1.jpg,1,2,3761.90000000596,1,1
10,267,toilet,./Images/toilet/e2_s1.jpg,1,2,3761.90000000596,2,1
10,268,cardbox,./Images/cardbox/e2_s2.jpg,1,2,1414.09999999404,2,2
10,268,cardbox,./Images/cardbox/e1_s2.jpg,1,2,1414.09999999404,1,2
10,269,accordion,./Images/accordion/e1_s2.jpg,1,2,2012.79999998212,1,2
10,269,accordion,./Images/accordion/e2_s1.jpg,1,2,2012.79999998212,2,1
10,270,breadbox,./Images/breadbox/e2_s2.jpg,1,2,1879.90000000596,2,2
10,270,breadbox,./Images/breadbox/e1_s2.jpg,1,2,1879.90000000596,1,2
10,271,bottle_perfume,./Images/bottle_perfume/e1_s1.jpg,1,2,2113.80000001192,1,1
10,271,bottle_perfume,./Images/bottle_perfume/e2_s2.jpg,1,2,2113.80000001192,2,2
10,272,cell,./Images/cell/e1_s1.jpg,1,2,1380.70000001788,1,1
10,272,cell,./Images/cell/e2_s1.jpg,1,2,1380.70000001788,2,1
10,273,mailbox,./Images/mailbox/e1_s1.jpg,1,2,2296.09999999404,1,1
10,273,mailbox,./Images/mailbox/e2_s2.jpg,1,2,2296.09999999404,2,2
10,274,laptop,./Images/laptop/e1_s1.jpg,1,2,1445.90000000596,1,1
10,274,laptop,./Images/laptop/e2_s1.jpg,1,2,1445.90000000596,2,1
10,275,tool_box,./Images/tool_box/e1_s2.jpg,1,1,1446.89999997616,1,2
10,275,tool_box,./Images/tool_box/e2_s2.jpg,0,1,1446.89999997616,2,2
10,276,kettle,./Images/kettle/e2_s2.jpg,1,2,2980.30000001192,2,2
10,276,kettle,./Images/kettle/e1_s2.jpg,1,2,2980.30000001192,1,2
10,277,toy_truck,./Images/toy_truck/e2_s2.jpg,0,1,2629.09999999404,2,2
10,277,toy_truck,./Images/toy_truck/e1_s1.jpg,1,1,2629.09999999404,1,1
10,278,gummy,./Images/gummy/e1_s2.jpg,1,2,1729.30000001192,1,2
10,278,gummy,./Images/gummy/e2_s2.jpg,1,2,1729.30000001192,2,2
10,279,tape_dispenser,./Images/tape_dispenser/e2_s2.jpg,1,2,2912,2,2
10,279,tape_dispenser,./Images/tape_dispenser/e1_s2.jpg,1,2,2912,1,2
10,280,sugar_paper,./Images/sugar_paper/e1_s2.jpg,1,2,1713.90000000596,1,2
10,280,sugar_paper,./Images/sugar_paper/e2_s2.jpg,1,2,1713.90000000596,2,2
10,281,cocktail_umbrella,./Images/cocktail_umbrella/e2_s2.jpg,0,1,4463.59999999404,2,2
10,281,cocktail_umbrella,./Images/cocktail_umbrella/e1_s2.jpg,1,1,4463.59999999404,1,2
10,282,file_folder,./Images/file_folder/e1_s2.jpg,1,2,1913.20000001788,1,2
10,282,file_folder,./Images/file_folder/e2_s1.jpg,1,2,1913.20000001788,2,1
10,283,book_object,./Images/book_object/e2_s1.jpg,1,2,3980.5,2,1
10,283,book_object,./Images/book_object/e1_s2.jpg,1,2,3980.5,1,2
10,284,tissues,./Images/tissues/e1_s2.jpg,1,2,1328.70000001788,1,2
10,284,tissues,./Images/tissues/e2_s1.jpg,1,2,1328.70000001788,2,1
10,285,cooking_pot,./Images/cooking_pot/e1_s1.jpg,1,2,1980.80000001192,1,1
10,285,cooking_pot,./Images/cooking_pot/e2_s1.jpg,1,2,1980.80000001192,2,1
10,286,chip,./Images/chip/e1_s1.jpg,1,2,2179.09999999404,1,1
10,286,chip,./Images/chip/e2_s1.jpg,1,2,2179.09999999404,2,1
10,287,keys,./Images/keys/e2_s2.jpg,1,2,1845.90000000596,2,2
10,287,keys,./Images/keys/e1_s1.jpg,1,2,1845.90000000596,1,1
10,288,locks,./Images/locks/e2_s2.jpg,1,2,2912.79999998212,2,2
10,288,locks,./Images/locks/e1_s2.jpg,1,2,2912.79999998212,1,2
10,289,sponge,./Images/sponge/e1_s1.jpg,1,2,2097.20000001788,1,1
10,289,sponge,./Images/sponge/e2_s1.jpg,1,2,2097.20000001788,2,1
10,290,chips,./Images/chips/e1_s1.jpg,0,0,2179.90000000596,1,1
10,290,chips,./Images/chips/e2_s2.jpg,0,0,2179.90000000596,2,2
10,291,clocks,./Images/clocks/e1_s2.jpg,1,2,2230,1,2
10,291,clocks,./Images/clocks/e2_s2.jpg,1,2,2230,2,2
10,292,dryer,./Images/dryer/e2_s2.jpg,1,2,2179.90000000596,2,2
10,292,dryer,./Images/dryer/e1_s1.jpg,1,2,2179.90000000596,1,1
10,293,reeses,./Images/reeses/e2_s1.jpg,1,2,2463.59999999404,2,1
10,293,reeses,./Images/reeses/e1_s2.jpg,1,2,2463.59999999404,1,2
10,294,microwave,./Images/microwave/e1_s2.jpg,1,1,3764,1,2
10,294,microwave,./Images/microwave/e2_s1.jpg,0,1,3764,2,1
10,295,apple,./Images/apple/e2_s2.jpg,1,2,2563.19999998808,2,2
10,295,apple,./Images/apple/e1_s2.jpg,1,2,2563.19999998808,1,2
10,296,tea_pot,./Images/tea_pot/e1_s1.jpg,1,2,3629.40000000596,1,1
10,296,tea_pot,./Images/tea_pot/e2_s1.jpg,1,2,3629.40000000596,2,1
10,297,soap,./Images/soap/e1_s2.jpg,1,2,2563.39999997616,1,2
10,297,soap,./Images/soap/e2_s1.jpg,1,2,2563.39999997616,2,1
10,298,plastic_bottle,./Images/plastic_bottle/e2_s2.jpg,1,2,1680.29999998212,2,2
10,298,plastic_bottle,./Images/plastic_bottle/e1_s1.jpg,1,2,1680.29999998212,1,1
10,299,tictac,./Images/tictac/e2_s1.jpg,1,2,2328.39999997616,2,1
10,299,tictac,./Images/tictac/e1_s2.jpg,1,2,2328.39999997616,1,2
10,300,sugar_bowl,./Images/sugar_bowl/e2_s2.jpg,1,2,2114.09999999404,2,2
10,300,sugar_bowl,./Images/sugar_bowl/e1_s2.jpg,1,2,2114.09999999404,1,2
10,301,shoe,./Images/shoe/e2_s2.jpg,0,1,2130.40000000596,2,2
10,301,shoe,./Images/shoe/e1_s2.jpg,1,1,2130.40000000596,1,2
10,302,altoid,./Images/altoid/e2_s1.jpg,1,2,2710.79999998212,2,1
10,302,altoid,./Images/altoid/e1_s1.jpg,1,2,2710.79999998212,1,1
10,303,lottery_ticket,./Images/lottery_ticket/e1_s2.jpg,0,1,3482.80000001192,1,2
10,303,lottery_ticket,./Images/lottery_ticket/e2_s2.jpg,1,1,3482.80000001192,2,2
10,304,bills,./Images/bills/e1_s2.jpg,1,2,1596.69999998808,1,2
10,304,bills,./Images/bills/e2_s2.jpg,1,2,1596.69999998808,2,2
10,305,notebook,./Images/notebook/e2_s2.jpg,1,2,1462.30000001192,2,2
10,305,notebook,./Images/notebook/e1_s2.jpg,1,2,1462.30000001192,1,2
34,206,hourglass,./Images/hourglass/e1_s2.jpg,0,1,7085.90000000596,1,2
34,206,hourglass,./Images/hourglass/e2_s1.jpg,1,1,7085.90000000596,2,1
34,207,typewriter,./Images/typewriter/e2_s1.jpg,1,1,5432.59999999404,2,1
34,207,typewriter,./Images/typewriter/e1_s1.jpg,0,1,5432.59999999404,1,1
34,208,pie,./Images/pie/e2_s2.jpg,1,2,5134.09999999404,2,2
34,208,pie,./Images/pie/e1_s2.jpg,1,2,5134.09999999404,1,2
34,209,toy_truck,./Images/toy_truck/e2_s1.jpg,1,2,2515,2,1
34,209,toy_truck,./Images/toy_truck/e1_s1.jpg,1,2,2515,1,1
34,210,hand_puppet,./Images/hand_puppet/e1_s2.jpg,1,2,4077.59999999404,1,2
34,210,hand_puppet,./Images/hand_puppet/e2_s1.jpg,1,2,4077.59999999404,2,1
34,211,theater_seats,./Images/theater_seats/e2_s2.jpg,1,2,3143.59999999404,2,2
34,211,theater_seats,./Images/theater_seats/e1_s2.jpg,1,2,3143.59999999404,1,2
34,212,keys,./Images/keys/e2_s1.jpg,1,1,3795.09999999404,2,1
34,212,keys,./Images/keys/e1_s1.jpg,0,1,3795.09999999404,1,1
34,213,bills,./Images/bills/e2_s1.jpg,1,2,8134,2,1
34,213,bills,./Images/bills/e1_s2.jpg,1,2,8134,1,2
34,214,notebook,./Images/notebook/e1_s1.jpg,1,2,2499.90000000596,1,1
34,214,notebook,./Images/notebook/e2_s2.jpg,1,2,2499.90000000596,2,2
34,215,wallet,./Images/wallet/e2_s1.jpg,0,1,3461.40000000596,2,1
34,215,wallet,./Images/wallet/e1_s2.jpg,1,1,3461.40000000596,1,2
34,216,sponge,./Images/sponge/e2_s1.jpg,1,2,1988,2,1
34,216,sponge,./Images/sponge/e1_s2.jpg,1,2,1988,1,2
34,217,cardbox,./Images/cardbox/e1_s1.jpg,0,1,5944.40000000596,1,1
34,217,cardbox,./Images/cardbox/e2_s2.jpg,1,1,5944.40000000596,2,2
34,218,poker_chips,./Images/poker_chips/e1_s1.jpg,1,2,6167,1,1
34,218,poker_chips,./Images/poker_chips/e2_s2.jpg,1,2,6167,2,2
34,219,yarn,./Images/yarn/e2_s2.jpg,1,2,4270.09999999404,2,2
34,219,yarn,./Images/yarn/e1_s1.jpg,1,2,4270.09999999404,1,1
34,220,scanner,./Images/scanner/e2_s1.jpg,1,2,2784.90000000596,2,1
34,220,scanner,./Images/scanner/e1_s1.jpg,1,2,2784.90000000596,1,1
34,221,cereal,./Images/cereal/e1_s1.jpg,1,2,2453.19999998808,1,1
34,221,cereal,./Images/cereal/e2_s2.jpg,1,2,2453.19999998808,2,2
34,222,chips,./Images/chips/e2_s2.jpg,0,1,4228.30000001192,2,2
34,222,chips,./Images/chips/e1_s1.jpg,1,1,4228.30000001192,1,1
34,223,lottery_ticket,./Images/lottery_ticket/e2_s2.jpg,0,1,4837.69999998808,2,2
34,223,lottery_ticket,./Images/lottery_ticket/e1_s1.jpg,1,1,4837.69999998808,1,1
34,224,garlic_press,./Images/garlic_press/e2_s1.jpg,1,1,3372.09999999404,2,1
34,224,garlic_press,./Images/garlic_press/e1_s2.jpg,0,1,3372.09999999404,1,2
34,225,mustard,./Images/mustard/e2_s1.jpg,0,1,4630.10000002384,2,1
34,225,mustard,./Images/mustard/e1_s1.jpg,1,1,4630.10000002384,1,1
34,226,sharpie_pens,./Images/sharpie_pens/e2_s2.jpg,0,1,5860.09999999404,2,2
34,226,sharpie_pens,./Images/sharpie_pens/e1_s1.jpg,1,1,5860.09999999404,1,1
34,227,apple,./Images/apple/e1_s2.jpg,1,2,2134.30000001192,1,2
34,227,apple,./Images/apple/e2_s2.jpg,1,2,2134.30000001192,2,2
34,228,toilet,./Images/toilet/e1_s1.jpg,1,2,4256.59999999404,1,1
34,228,toilet,./Images/toilet/e2_s2.jpg,1,2,4256.59999999404,2,2
34,229,menus,./Images/menus/e2_s1.jpg,1,2,2741.59999999404,2,1
34,229,menus,./Images/menus/e1_s2.jpg,1,2,2741.59999999404,1,2
34,230,cookie,./Images/cookie/e2_s2.jpg,1,2,2674.5,2,2
34,230,cookie,./Images/cookie/e1_s2.jpg,1,2,2674.5,1,2
34,231,cell,./Images/cell/e2_s1.jpg,1,2,1967.70000001788,2,1
34,231,cell,./Images/cell/e1_s1.jpg,1,2,1967.70000001788,1,1
34,232,coffeemug,./Images/coffeemug/e2_s2.jpg,1,1,4774.59999999404,2,2
34,232,coffeemug,./Images/coffeemug/e1_s1.jpg,0,1,4774.59999999404,1,1
34,233,cocktail_umbrella,./Images/cocktail_umbrella/e2_s1.jpg,1,2,3765.69999998808,2,1
34,233,cocktail_umbrella,./Images/cocktail_umbrella/e1_s1.jpg,1,2,3765.69999998808,1,1
34,234,small_box,./Images/small_box/e2_s2.jpg,1,2,5852.40000000596,2,2
34,234,small_box,./Images/small_box/e1_s1.jpg,1,2,5852.40000000596,1,1
34,235,cooking_pot,./Images/cooking_pot/e2_s1.jpg,1,2,2998.09999999404,2,1
34,235,cooking_pot,./Images/cooking_pot/e1_s1.jpg,1,2,2998.09999999404,1,1
34,236,chocolate_bar,./Images/chocolate_bar/e2_s2.jpg,1,2,2010,2,2
34,236,chocolate_bar,./Images/chocolate_bar/e1_s2.jpg,1,2,2010,1,2
34,237,accordion,./Images/accordion/e1_s1.jpg,1,2,5696.30000001192,1,1
34,237,accordion,./Images/accordion/e2_s2.jpg,1,2,5696.30000001192,2,2
34,238,oj,./Images/oj/e2_s2.jpg,1,1,7532,2,2
34,238,oj,./Images/oj/e1_s2.jpg,0,1,7532,1,2
34,239,kettle,./Images/kettle/e2_s2.jpg,1,2,4822.5,2,2
34,239,kettle,./Images/kettle/e1_s2.jpg,1,2,4822.5,1,2
34,240,mixer,./Images/mixer/e2_s1.jpg,0,1,3246.59999999404,2,1
34,240,mixer,./Images/mixer/e1_s2.jpg,1,1,3246.59999999404,1,2
34,241,drink,./Images/drink/e1_s1.jpg,0,1,4810.79999998212,1,1
34,241,drink,./Images/drink/e2_s2.jpg,1,1,4810.79999998212,2,2
34,242,dresser,./Images/dresser/e2_s2.jpg,1,2,2265.5,2,2
34,242,dresser,./Images/dresser/e1_s1.jpg,1,2,2265.5,1,1
34,243,gift_box,./Images/gift_box/e2_s1.jpg,0,1,3024.59999999404,2,1
34,243,gift_box,./Images/gift_box/e1_s1.jpg,1,1,3024.59999999404,1,1
34,244,file_box,./Images/file_box/e1_s2.jpg,1,2,4807.90000000596,1,2
34,244,file_box,./Images/file_box/e2_s1.jpg,1,2,4807.90000000596,2,1
34,245,mailbox,./Images/mailbox/e1_s1.jpg,1,1,2680.90000000596,1,1
34,245,mailbox,./Images/mailbox/e2_s1.jpg,0,1,2680.90000000596,2,1
34,246,bottle_perfume,./Images/bottle_perfume/e1_s1.jpg,1,1,2401.69999998808,1,1
34,246,bottle_perfume,./Images/bottle_perfume/e2_s1.jpg,0,1,2401.69999998808,2,1
34,247,canopener,./Images/canopener/e1_s2.jpg,0,0,7117.90000000596,1,2
34,247,canopener,./Images/canopener/e2_s1.jpg,0,0,7117.90000000596,2,1
34,248,metronome,./Images/metronome/e2_s1.jpg,1,2,4056,2,1
34,248,metronome,./Images/metronome/e1_s2.jpg,1,2,4056,1,2
34,249,plastic_bottle,./Images/plastic_bottle/e1_s2.jpg,1,1,2942,1,2
34,249,plastic_bottle,./Images/plastic_bottle/e2_s2.jpg,0,1,2942,2,2
34,250,headphone_small,./Images/headphone_small/e1_s1.jpg,1,2,2756,1,1
34,250,headphone_small,./Images/headphone_small/e2_s2.jpg,1,2,2756,2,2
34,251,laptop,./Images/laptop/e1_s2.jpg,1,2,2010.20000001788,1,2
34,251,laptop,./Images/laptop/e2_s2.jpg,1,2,2010.20000001788,2,2
34,252,glass_orange,./Images/glass_orange/e2_s1.jpg,1,2,2479.40000000596,2,1
34,252,glass_orange,./Images/glass_orange/e1_s2.jpg,1,2,2479.40000000596,1,2
34,253,tricycle,./Images/tricycle/e1_s1.jpg,1,2,6614.5,1,1
34,253,tricycle,./Images/tricycle/e2_s2.jpg,1,2,6614.5,2,2
34,254,book_object,./Images/book_object/e2_s2.jpg,1,2,2113.70000001788,2,2
34,254,book_object,./Images/book_object/e1_s2.jpg,1,2,2113.70000001788,1,2
34,255,dryer,./Images/dryer/e1_s1.jpg,1,2,3593.59999999404,1,1
34,255,dryer,./Images/dryer/e2_s1.jpg,1,2,3593.59999999404,2,1
34,256,baseball_glove,./Images/baseball_glove/e2_s1.jpg,1,2,2210.20000001788,2,1
34,256,baseball_glove,./Images/baseball_glove/e1_s1.jpg,1,2,2210.20000001788,1,1
34,257,cabinet,./Images/cabinet/e2_s1.jpg,1,1,4664.80000001192,2,1
34,257,cabinet,./Images/cabinet/e1_s1.jpg,0,1,4664.80000001192,1,1
34,258,tool_box,./Images/tool_box/e1_s2.jpg,1,2,2134,1,2
34,258,tool_box,./Images/tool_box/e2_s2.jpg,1,2,2134,2,2
34,259,file_folder,./Images/file_folder/e2_s1.jpg,1,1,2437,2,1
34,259,file_folder,./Images/file_folder/e1_s2.jpg,0,1,2437,1,2
34,260,phone_antique,./Images/phone_antique/e1_s1.jpg,0,0,2903.19999998808,1,1
34,260,phone_antique,./Images/phone_antique/e2_s1.jpg,0,0,2903.19999998808,2,1
34,261,tea_pot,./Images/tea_pot/e2_s2.jpg,1,2,14916.099999994,2,2
34,261,tea_pot,./Images/tea_pot/e1_s1.jpg,1,2,14916.099999994,1,1
34,262,shoe,./Images/shoe/e1_s2.jpg,0,1,2743.5,1,2
34,262,shoe,./Images/shoe/e2_s1.jpg,1,1,2743.5,2,1
34,263,peanut_butter,./Images/peanut_butter/e1_s1.jpg,1,2,1837.39999997616,1,1
34,263,peanut_butter,./Images/peanut_butter/e2_s1.jpg,1,2,1837.39999997616,2,1
34,264,breadbox,./Images/breadbox/e1_s1.jpg,0,0,3488.20000001788,1,1
34,264,breadbox,./Images/breadbox/e2_s1.jpg,0,0,3488.20000001788,2,1
34,265,chocolate,./Images/chocolate/e2_s1.jpg,1,2,2397.30000001192,2,1
34,265,chocolate,./Images/chocolate/e1_s1.jpg,1,2,2397.30000001192,1,1
34,266,microwave,./Images/microwave/e2_s1.jpg,0,1,11253.1999999881,2,1
34,266,microwave,./Images/microwave/e1_s2.jpg,1,1,11253.1999999881,1,2
34,267,aabacus,./Images/aabacus/e2_s2.jpg,1,1,5459.20000001788,2,2
34,267,aabacus,./Images/aabacus/e1_s2.jpg,0,1,5459.20000001788,1,2
34,268,altoid,./Images/altoid/e1_s1.jpg,1,2,1939.40000000596,1,1
34,268,altoid,./Images/altoid/e2_s1.jpg,1,2,1939.40000000596,2,1
34,269,leather_bag,./Images/leather_bag/e2_s2.jpg,1,1,4319.19999998808,2,2
34,269,leather_bag,./Images/leather_bag/e1_s1.jpg,0,1,4319.19999998808,1,1
34,270,chair_recliner,./Images/chair_recliner/e1_s1.jpg,1,2,4042,1,1
34,270,chair_recliner,./Images/chair_recliner/e2_s1.jpg,1,2,4042,2,1
34,271,sugar_bowl,./Images/sugar_bowl/e1_s1.jpg,0,0,2791.5,1,1
34,271,sugar_bowl,./Images/sugar_bowl/e2_s1.jpg,0,0,2791.5,2,1
34,272,lotion,./Images/lotion/e1_s2.jpg,1,2,3336.39999997616,1,2
34,272,lotion,./Images/lotion/e2_s1.jpg,1,2,3336.39999997616,2,1
34,273,phone,./Images/phone/e2_s2.jpg,0,1,6414.20000001788,2,2
34,273,phone,./Images/phone/e1_s1.jpg,1,1,6414.20000001788,1,1
34,274,pail,./Images/pail/e1_s2.jpg,1,1,1940.89999997616,1,2
34,274,pail,./Images/pail/e2_s2.jpg,0,1,1940.89999997616,2,2
34,275,menorah,./Images/menorah/e1_s1.jpg,1,2,2888.69999998808,1,1
34,275,menorah,./Images/menorah/e2_s1.jpg,1,2,2888.69999998808,2,1
34,276,tape_dispenser,./Images/tape_dispenser/e1_s1.jpg,0,1,5169.19999998808,1,1
34,276,tape_dispenser,./Images/tape_dispenser/e2_s2.jpg,1,1,5169.19999998808,2,2
34,277,book,./Images/book/e2_s1.jpg,1,2,1767.70000001788,2,1
34,277,book,./Images/book/e1_s1.jpg,1,2,1767.70000001788,1,1
34,278,soap,./Images/soap/e2_s1.jpg,1,1,6843.59999999404,2,1
34,278,soap,./Images/soap/e1_s1.jpg,0,1,6843.59999999404,1,1
34,279,container_open,./Images/container_open/e1_s1.jpg,0,1,5473.30000001192,1,1
34,279,container_open,./Images/container_open/e2_s2.jpg,1,1,5473.30000001192,2,2
34,280,locks,./Images/locks/e1_s1.jpg,1,2,3633.60000002384,1,1
34,280,locks,./Images/locks/e2_s1.jpg,1,2,3633.60000002384,2,1
34,281,paper_cup,./Images/paper_cup/e1_s2.jpg,1,2,3235.79999998212,1,2
34,281,paper_cup,./Images/paper_cup/e2_s1.jpg,1,2,3235.79999998212,2,1
34,282,lunchbox,./Images/lunchbox/e1_s1.jpg,1,2,3516.5,1,1
34,282,lunchbox,./Images/lunchbox/e2_s1.jpg,1,2,3516.5,2,1
34,283,gummy,./Images/gummy/e1_s2.jpg,0,1,1781.90000000596,1,2
34,283,gummy,./Images/gummy/e2_s2.jpg,1,1,1781.90000000596,2,2
34,284,umbrella,./Images/umbrella/e1_s2.jpg,1,2,5231.40000000596,1,2
34,284,umbrella,./Images/umbrella/e2_s1.jpg,1,2,5231.40000000596,2,1
34,285,fridge,./Images/fridge/e2_s2.jpg,1,2,3248.40000000596,2,2
34,285,fridge,./Images/fridge/e1_s2.jpg,1,2,3248.40000000596,1,2
34,286,watch,./Images/watch/e2_s2.jpg,1,2,2031.19999998808,2,2
34,286,watch,./Images/watch/e1_s1.jpg,1,2,2031.19999998808,1,1
34,287,bottle_liquid,./Images/bottle_liquid/e2_s1.jpg,1,1,4381.90000000596,2,1
34,287,bottle_liquid,./Images/bottle_liquid/e1_s1.jpg,0,1,4381.90000000596,1,1
34,288,pen,./Images/pen/e2_s1.jpg,1,2,8937.89999997616,2,1
34,288,pen,./Images/pen/e1_s2.jpg,1,2,8937.89999997616,1,2
34,289,clocks,./Images/clocks/e1_s1.jpg,1,1,5239,1,1
34,289,clocks,./Images/clocks/e2_s1.jpg,0,1,5239,2,1
34,290,backpack,./Images/backpack/e1_s2.jpg,1,2,5335,1,2
34,290,backpack,./Images/backpack/e2_s1.jpg,1,2,5335,2,1
34,291,chapstick,./Images/chapstick/e1_s2.jpg,1,2,2376.30000001192,1,2
34,291,chapstick,./Images/chapstick/e2_s1.jpg,1,2,2376.30000001192,2,1
34,292,tictac,./Images/tictac/e2_s1.jpg,0,1,3302.5,2,1
34,292,tictac,./Images/tictac/e1_s1.jpg,1,1,3302.5,1,1
34,293,lemon,./Images/lemon/e1_s1.jpg,1,2,1670.89999997616,1,1
34,293,lemon,./Images/lemon/e2_s1.jpg,1,2,1670.89999997616,2,1
34,294,reeses,./Images/reeses/e1_s2.jpg,1,2,2708.59999999404,1,2
34,294,reeses,./Images/reeses/e2_s2.jpg,1,2,2708.59999999404,2,2
34,295,car,./Images/car/e2_s1.jpg,1,2,1864.69999998808,2,1
34,295,car,./Images/car/e1_s2.jpg,1,2,1864.69999998808,1,2
34,296,usb_key,./Images/usb_key/e2_s2.jpg,1,2,4850.69999998808,2,2
34,296,usb_key,./Images/usb_key/e1_s1.jpg,1,2,4850.69999998808,1,1
34,297,donut,./Images/donut/e1_s2.jpg,0,1,2426.5,1,2
34,297,donut,./Images/donut/e2_s1.jpg,1,1,2426.5,2,1
34,298,cabbage,./Images/cabbage/e1_s2.jpg,1,2,1918.70000001788,1,2
34,298,cabbage,./Images/cabbage/e2_s1.jpg,1,2,1918.70000001788,2,1
34,299,tissues,./Images/tissues/e2_s1.jpg,0,0,4519.39999997616,2,1
34,299,tissues,./Images/tissues/e1_s2.jpg,0,0,4519.39999997616,1,2
34,300,scissors,./Images/scissors/e1_s2.jpg,1,1,2313.59999999404,1,2
34,300,scissors,./Images/scissors/e2_s1.jpg,0,1,2313.59999999404,2,1
34,301,corkscrew,./Images/corkscrew/e2_s2.jpg,1,2,4381,2,2
34,301,corkscrew,./Images/corkscrew/e1_s1.jpg,1,2,4381,1,1
34,302,sugar_paper,./Images/sugar_paper/e2_s1.jpg,1,2,2619.80000001192,2,1
34,302,sugar_paper,./Images/sugar_paper/e1_s1.jpg,1,2,2619.80000001192,1,1
34,303,coins,./Images/coins/e2_s1.jpg,1,2,2029.59999999404,2,1
34,303,coins,./Images/coins/e1_s2.jpg,1,2,2029.59999999404,1,2
34,304,flask,./Images/flask/e2_s2.jpg,1,2,3482.90000000596,2,2
34,304,flask,./Images/flask/e1_s1.jpg,1,2,3482.90000000596,1,1
34,305,chip,./Images/chip/e1_s1.jpg,1,2,3552.5,1,1
34,305,chip,./Images/chip/e2_s2.jpg,1,2,3552.5,2,2
6,206,cell,./Images/cell/e1_s1.jpg,1,1,17896.9999999999,1,1
6,206,cell,./Images/cell/e2_s1.jpg,0,1,17896.9999999999,2,1
6,207,book_object,./Images/book_object/e2_s2.jpg,1,2,7400,2,2
6,207,book_object,./Images/book_object/e1_s2.jpg,1,2,7400,1,2
6,208,tissues,./Images/tissues/e2_s2.jpg,0,1,5234.00000000012,2,2
6,208,tissues,./Images/tissues/e1_s1.jpg,1,1,5234.00000000012,1,1
6,209,usb_key,./Images/usb_key/e1_s1.jpg,1,1,5451,1,1
6,209,usb_key,./Images/usb_key/e2_s2.jpg,0,1,5451,2,2
6,210,scanner,./Images/scanner/e1_s1.jpg,0,0,8819,1,1
6,210,scanner,./Images/scanner/e2_s2.jpg,0,0,8819,2,2
6,211,bottle_liquid,./Images/bottle_liquid/e2_s1.jpg,1,2,3386,2,1
6,211,bottle_liquid,./Images/bottle_liquid/e1_s1.jpg,1,2,3386,1,1
6,212,sugar_bowl,./Images/sugar_bowl/e1_s1.jpg,0,0,8153.00000000012,1,1
6,212,sugar_bowl,./Images/sugar_bowl/e2_s2.jpg,0,0,8153.00000000012,2,2
6,213,fridge,./Images/fridge/e1_s2.jpg,1,2,2302,1,2
6,213,fridge,./Images/fridge/e2_s2.jpg,1,2,2302,2,2
6,214,glass_orange,./Images/glass_orange/e2_s2.jpg,0,0,5135.99999999988,2,2
6,214,glass_orange,./Images/glass_orange/e1_s2.jpg,0,0,5135.99999999988,1,2
6,215,microwave,./Images/microwave/e1_s2.jpg,1,1,20922,1,2
6,215,microwave,./Images/microwave/e2_s1.jpg,0,1,20922,2,1
6,216,lunchbox,./Images/lunchbox/e1_s1.jpg,1,2,4272,1,1
6,216,lunchbox,./Images/lunchbox/e2_s1.jpg,1,2,4272,2,1
6,217,plastic_bottle,./Images/plastic_bottle/e2_s1.jpg,1,1,4988,2,1
6,217,plastic_bottle,./Images/plastic_bottle/e1_s1.jpg,0,1,4988,1,1
6,218,accordion,./Images/accordion/e1_s2.jpg,1,2,3889,1,2
6,218,accordion,./Images/accordion/e2_s2.jpg,1,2,3889,2,2
6,219,mixer,./Images/mixer/e1_s2.jpg,1,1,5555.00000000012,1,2
6,219,mixer,./Images/mixer/e2_s2.jpg,0,1,5555.00000000012,2,2
6,220,menorah,./Images/menorah/e1_s1.jpg,0,1,5873,1,1
6,220,menorah,./Images/menorah/e2_s2.jpg,1,1,5873,2,2
6,221,cookie,./Images/cookie/e1_s2.jpg,1,2,3539,1,2
6,221,cookie,./Images/cookie/e2_s1.jpg,1,2,3539,2,1
6,222,chocolate,./Images/chocolate/e1_s2.jpg,1,2,6106,1,2
6,222,chocolate,./Images/chocolate/e2_s1.jpg,1,2,6106,2,1
6,223,oj,./Images/oj/e2_s2.jpg,0,0,6390,2,2
6,223,oj,./Images/oj/e1_s1.jpg,0,0,6390,1,1
6,224,chip,./Images/chip/e1_s1.jpg,1,2,6057,1,1
6,224,chip,./Images/chip/e2_s2.jpg,1,2,6057,2,2
6,225,small_box,./Images/small_box/e1_s2.jpg,1,1,7174,1,2
6,225,small_box,./Images/small_box/e2_s1.jpg,0,1,7174,2,1
6,226,phone_antique,./Images/phone_antique/e2_s2.jpg,1,2,2592,2,2
6,226,phone_antique,./Images/phone_antique/e1_s2.jpg,1,2,2592,1,2
6,227,notebook,./Images/notebook/e1_s2.jpg,0,0,4708,1,2
6,227,notebook,./Images/notebook/e2_s1.jpg,0,0,4708,2,1
6,228,pen,./Images/pen/e2_s2.jpg,0,0,3942,2,2
6,228,pen,./Images/pen/e1_s1.jpg,0,0,3942,1,1
6,229,phone,./Images/phone/e2_s1.jpg,0,0,6142.00000000012,2,1
6,229,phone,./Images/phone/e1_s2.jpg,0,0,6142.00000000012,1,2
6,230,cooking_pot,./Images/cooking_pot/e1_s2.jpg,1,2,6592,1,2
6,230,cooking_pot,./Images/cooking_pot/e2_s2.jpg,1,2,6592,2,2
6,231,watch,./Images/watch/e2_s2.jpg,1,2,5675,2,2
6,231,watch,./Images/watch/e1_s2.jpg,1,2,5675,1,2
6,232,poker_chips,./Images/poker_chips/e1_s1.jpg,1,2,8759,1,1
6,232,poker_chips,./Images/poker_chips/e2_s2.jpg,1,2,8759,2,2
6,233,peanut_butter,./Images/peanut_butter/e2_s2.jpg,1,2,15510,2,2
6,233,peanut_butter,./Images/peanut_butter/e1_s1.jpg,1,2,15510,1,1
6,234,container_open,./Images/container_open/e1_s1.jpg,1,2,5611,1,1
6,234,container_open,./Images/container_open/e2_s1.jpg,1,2,5611,2,1
6,235,cereal,./Images/cereal/e2_s1.jpg,1,2,6611,2,1
6,235,cereal,./Images/cereal/e1_s2.jpg,1,2,6611,1,2
6,236,chapstick,./Images/chapstick/e2_s1.jpg,1,2,6446.00000000012,2,1
6,236,chapstick,./Images/chapstick/e1_s1.jpg,1,2,6446.00000000012,1,1
6,237,baseball_glove,./Images/baseball_glove/e1_s2.jpg,1,2,3762,1,2
6,237,baseball_glove,./Images/baseball_glove/e2_s1.jpg,1,2,3762,2,1
6,238,sugar_paper,./Images/sugar_paper/e2_s2.jpg,1,2,5562,2,2
6,238,sugar_paper,./Images/sugar_paper/e1_s1.jpg,1,2,5562,1,1
6,239,leather_bag,./Images/leather_bag/e1_s1.jpg,1,2,2946,1,1
6,239,leather_bag,./Images/leather_bag/e2_s2.jpg,1,2,2946,2,2
6,240,tape_dispenser,./Images/tape_dispenser/e1_s2.jpg,0,1,4130,1,2
6,240,tape_dispenser,./Images/tape_dispenser/e2_s1.jpg,1,1,4130,2,1
6,241,tea_pot,./Images/tea_pot/e1_s2.jpg,1,1,2446,1,2
6,241,tea_pot,./Images/tea_pot/e2_s1.jpg,0,1,2446,2,1
6,242,canopener,./Images/canopener/e1_s1.jpg,1,2,6613,1,1
6,242,canopener,./Images/canopener/e2_s2.jpg,1,2,6613,2,2
6,243,file_box,./Images/file_box/e2_s1.jpg,1,1,5046,2,1
6,243,file_box,./Images/file_box/e1_s1.jpg,0,1,5046,1,1
6,244,mustard,./Images/mustard/e1_s1.jpg,0,0,1980,1,1
6,244,mustard,./Images/mustard/e2_s1.jpg,0,0,1980,2,1
6,245,cardbox,./Images/cardbox/e1_s2.jpg,1,2,4764,1,2
6,245,cardbox,./Images/cardbox/e2_s1.jpg,1,2,4764,2,1
6,246,reeses,./Images/reeses/e1_s1.jpg,1,2,4864,1,1
6,246,reeses,./Images/reeses/e2_s2.jpg,1,2,4864,2,2
6,247,chair_recliner,./Images/chair_recliner/e1_s1.jpg,0,1,5115,1,1
6,247,chair_recliner,./Images/chair_recliner/e2_s2.jpg,1,1,5115,2,2
6,248,kettle,./Images/kettle/e2_s1.jpg,1,2,5698.00000000012,2,1
6,248,kettle,./Images/kettle/e1_s1.jpg,1,2,5698.00000000012,1,1
6,249,mailbox,./Images/mailbox/e1_s1.jpg,0,0,1732.00000000012,1,1
6,249,mailbox,./Images/mailbox/e2_s1.jpg,0,0,1732.00000000012,2,1
6,250,keys,./Images/keys/e2_s1.jpg,0,0,4347.99999999988,2,1
6,250,keys,./Images/keys/e1_s1.jpg,0,0,4347.99999999988,1,1
6,251,lottery_ticket,./Images/lottery_ticket/e1_s1.jpg,1,2,8000,1,1
6,251,lottery_ticket,./Images/lottery_ticket/e2_s1.jpg,1,2,8000,2,1
6,252,corkscrew,./Images/corkscrew/e2_s2.jpg,1,1,3467.00000000012,2,2
6,252,corkscrew,./Images/corkscrew/e1_s2.jpg,0,1,3467.00000000012,1,2
6,253,locks,./Images/locks/e1_s1.jpg,1,1,2149,1,1
6,253,locks,./Images/locks/e2_s1.jpg,0,1,2149,2,1
6,254,garlic_press,./Images/garlic_press/e1_s2.jpg,1,2,2533,1,2
6,254,garlic_press,./Images/garlic_press/e2_s2.jpg,1,2,2533,2,2
6,255,sponge,./Images/sponge/e2_s1.jpg,1,1,5984,2,1
6,255,sponge,./Images/sponge/e1_s1.jpg,0,1,5984,1,1
6,256,cocktail_umbrella,./Images/cocktail_umbrella/e2_s1.jpg,0,1,6050,2,1
6,256,cocktail_umbrella,./Images/cocktail_umbrella/e1_s1.jpg,1,1,6050,1,1
6,257,soap,./Images/soap/e1_s2.jpg,1,1,8601,1,2
6,257,soap,./Images/soap/e2_s2.jpg,0,1,8601,2,2
6,258,altoid,./Images/altoid/e2_s2.jpg,1,1,2267.00000000012,2,2
6,258,altoid,./Images/altoid/e1_s1.jpg,0,1,2267.00000000012,1,1
6,259,wallet,./Images/wallet/e2_s1.jpg,1,2,2152.00000000012,2,1
6,259,wallet,./Images/wallet/e1_s1.jpg,1,2,2152.00000000012,1,1
6,260,scissors,./Images/scissors/e1_s2.jpg,0,1,4735,1,2
6,260,scissors,./Images/scissors/e2_s1.jpg,1,1,4735,2,1
6,261,menus,./Images/menus/e2_s1.jpg,1,2,2185.00000000012,2,1
6,261,menus,./Images/menus/e1_s1.jpg,1,2,2185.00000000012,1,1
6,262,theater_seats,./Images/theater_seats/e2_s1.jpg,0,0,2402,2,1
6,262,theater_seats,./Images/theater_seats/e1_s1.jpg,0,0,2402,1,1
6,263,tool_box,./Images/tool_box/e2_s2.jpg,1,1,2635,2,2
6,263,tool_box,./Images/tool_box/e1_s2.jpg,0,1,2635,1,2
6,264,car,./Images/car/e1_s1.jpg,0,1,3419,1,1
6,264,car,./Images/car/e2_s1.jpg,1,1,3419,2,1
6,265,drink,./Images/drink/e2_s1.jpg,1,1,3835,2,1
6,265,drink,./Images/drink/e1_s1.jpg,0,1,3835,1,1
6,266,chocolate_bar,./Images/chocolate_bar/e2_s1.jpg,1,2,9269,2,1
6,266,chocolate_bar,./Images/chocolate_bar/e1_s1.jpg,1,2,9269,1,1
6,267,pie,./Images/pie/e1_s1.jpg,1,2,2637.00000000012,1,1
6,267,pie,./Images/pie/e2_s2.jpg,1,2,2637.00000000012,2,2
6,268,headphone_small,./Images/headphone_small/e1_s2.jpg,1,1,2037,1,2
6,268,headphone_small,./Images/headphone_small/e2_s1.jpg,0,1,2037,2,1
6,269,dresser,./Images/dresser/e1_s1.jpg,0,1,2954,1,1
6,269,dresser,./Images/dresser/e2_s1.jpg,1,1,2954,2,1
6,270,tictac,./Images/tictac/e1_s1.jpg,1,2,4553,1,1
6,270,tictac,./Images/tictac/e2_s1.jpg,1,2,4553,2,1
6,271,lotion,./Images/lotion/e2_s1.jpg,1,1,4105,2,1
6,271,lotion,./Images/lotion/e1_s2.jpg,0,1,4105,1,2
6,272,typewriter,./Images/typewriter/e2_s1.jpg,0,1,3221,2,1
6,272,typewriter,./Images/typewriter/e1_s1.jpg,1,1,3221,1,1
6,273,dryer,./Images/dryer/e2_s1.jpg,1,2,7071,2,1
6,273,dryer,./Images/dryer/e1_s2.jpg,1,2,7071,1,2
6,274,cabinet,./Images/cabinet/e2_s2.jpg,1,2,3505,2,2
6,274,cabinet,./Images/cabinet/e1_s1.jpg,1,2,3505,1,1
6,275,book,./Images/book/e1_s1.jpg,1,2,3555,1,1
6,275,book,./Images/book/e2_s1.jpg,1,2,3555,2,1
6,276,apple,./Images/apple/e2_s1.jpg,0,1,1955,2,1
6,276,apple,./Images/apple/e1_s1.jpg,1,1,1955,1,1
6,277,lemon,./Images/lemon/e2_s2.jpg,1,2,3021.99999999988,2,2
6,277,lemon,./Images/lemon/e1_s1.jpg,1,2,3021.99999999988,1,1
6,278,hourglass,./Images/hourglass/e1_s1.jpg,1,1,7690,1,1
6,278,hourglass,./Images/hourglass/e2_s1.jpg,0,1,7690,2,1
6,279,coins,./Images/coins/e1_s2.jpg,1,2,5054.99999999988,1,2
6,279,coins,./Images/coins/e2_s1.jpg,1,2,5054.99999999988,2,1
6,280,paper_cup,./Images/paper_cup/e1_s2.jpg,1,2,2306,1,2
6,280,paper_cup,./Images/paper_cup/e2_s1.jpg,1,2,2306,2,1
6,281,cabbage,./Images/cabbage/e1_s1.jpg,1,2,3556,1,1
6,281,cabbage,./Images/cabbage/e2_s2.jpg,1,2,3556,2,2
6,282,yarn,./Images/yarn/e1_s1.jpg,1,1,3340,1,1
6,282,yarn,./Images/yarn/e2_s2.jpg,0,1,3340,2,2
6,283,tricycle,./Images/tricycle/e1_s1.jpg,1,1,9925,1,1
6,283,tricycle,./Images/tricycle/e2_s2.jpg,0,1,9925,2,2
6,284,umbrella,./Images/umbrella/e2_s2.jpg,1,1,2774,2,2
6,284,umbrella,./Images/umbrella/e1_s2.jpg,0,1,2774,1,2
6,285,pail,./Images/pail/e1_s1.jpg,0,0,5907,1,1
6,285,pail,./Images/pail/e2_s2.jpg,0,0,5907,2,2
6,286,aabacus,./Images/aabacus/e2_s2.jpg,1,1,7124,2,2
6,286,aabacus,./Images/aabacus/e1_s2.jpg,0,1,7124,1,2
6,287,breadbox,./Images/breadbox/e2_s1.jpg,1,2,3575,2,1
6,287,breadbox,./Images/breadbox/e1_s2.jpg,1,2,3575,1,2
6,288,toilet,./Images/toilet/e2_s2.jpg,0,1,7525,2,2
6,288,toilet,./Images/toilet/e1_s1.jpg,1,1,7525,1,1
6,289,donut,./Images/donut/e1_s2.jpg,1,2,2575,1,2
6,289,donut,./Images/donut/e2_s2.jpg,1,2,2575,2,2
6,290,toy_truck,./Images/toy_truck/e2_s1.jpg,0,0,3009,2,1
6,290,toy_truck,./Images/toy_truck/e1_s1.jpg,0,0,3009,1,1
6,291,hand_puppet,./Images/hand_puppet/e1_s1.jpg,1,1,5693,1,1
6,291,hand_puppet,./Images/hand_puppet/e2_s2.jpg,0,1,5693,2,2
6,292,bottle_perfume,./Images/bottle_perfume/e2_s1.jpg,1,2,5158,2,1
6,292,bottle_perfume,./Images/bottle_perfume/e1_s1.jpg,1,2,5158,1,1
6,293,file_folder,./Images/file_folder/e1_s1.jpg,1,2,2926,1,1
6,293,file_folder,./Images/file_folder/e2_s2.jpg,1,2,2926,2,2
6,294,flask,./Images/flask/e1_s2.jpg,1,1,1759.99999999988,1,2
6,294,flask,./Images/flask/e2_s2.jpg,0,1,1759.99999999988,2,2
6,295,gift_box,./Images/gift_box/e2_s2.jpg,1,2,3494,2,2
6,295,gift_box,./Images/gift_box/e1_s2.jpg,1,2,3494,1,2
6,296,bills,./Images/bills/e1_s2.jpg,1,2,4727,1,2
6,296,bills,./Images/bills/e2_s2.jpg,1,2,4727,2,2
6,297,coffeemug,./Images/coffeemug/e1_s1.jpg,1,2,3377,1,1
6,297,coffeemug,./Images/coffeemug/e2_s1.jpg,1,2,3377,2,1
6,298,laptop,./Images/laptop/e2_s1.jpg,1,2,3476,2,1
6,298,laptop,./Images/laptop/e1_s1.jpg,1,2,3476,1,1
6,299,metronome,./Images/metronome/e2_s2.jpg,0,1,1627,2,2
6,299,metronome,./Images/metronome/e1_s2.jpg,1,1,1627,1,2
6,300,gummy,./Images/gummy/e2_s1.jpg,1,1,8543.99999999988,2,1
6,300,gummy,./Images/gummy/e1_s1.jpg,0,1,8543.99999999988,1,1
6,301,sharpie_pens,./Images/sharpie_pens/e1_s1.jpg,1,1,1879,1,1
6,301,sharpie_pens,./Images/sharpie_pens/e2_s2.jpg,0,1,1879,2,2
6,302,clocks,./Images/clocks/e1_s2.jpg,1,2,4495,1,2
6,302,clocks,./Images/clocks/e2_s2.jpg,1,2,4495,2,2
6,303,chips,./Images/chips/e1_s1.jpg,0,1,4478.00000000012,1,1
6,303,chips,./Images/chips/e2_s1.jpg,1,1,4478.00000000012,2,1
6,304,shoe,./Images/shoe/e1_s2.jpg,1,2,3928,1,2
6,304,shoe,./Images/shoe/e2_s2.jpg,1,2,3928,2,2
6,305,backpack,./Images/backpack/e1_s1.jpg,0,0,1745,1,1
6,305,backpack,./Images/backpack/e2_s1.jpg,0,0,1745,2,1
4,206,cookie,./Images/cookie/e2_s1.jpg,1,2,9284.39999961853,2,1
4,206,cookie,./Images/cookie/e1_s2.jpg,1,2,9284.39999961853,1,2
4,207,dresser,./Images/dresser/e1_s1.jpg,1,1,9640.5,1,1
4,207,dresser,./Images/dresser/e2_s1.jpg,0,1,9640.5,2,1
4,208,cell,./Images/cell/e1_s1.jpg,0,1,9027,1,1
4,208,cell,./Images/cell/e2_s1.jpg,1,1,9027,2,1
4,209,locks,./Images/locks/e2_s1.jpg,1,1,5302.90000009537,2,1
4,209,locks,./Images/locks/e1_s2.jpg,0,1,5302.90000009537,1,2
4,210,usb_key,./Images/usb_key/e2_s2.jpg,1,2,5210.39999961853,2,2
4,210,usb_key,./Images/usb_key/e1_s1.jpg,1,2,5210.39999961853,1,1
4,211,scanner,./Images/scanner/e2_s1.jpg,0,1,8650.5,2,1
4,211,scanner,./Images/scanner/e1_s2.jpg,1,1,8650.5,1,2
4,212,laptop,./Images/laptop/e2_s1.jpg,1,2,5420.40000009537,2,1
4,212,laptop,./Images/laptop/e1_s2.jpg,1,2,5420.40000009537,1,2
4,213,chip,./Images/chip/e1_s1.jpg,1,2,3638.40000009537,1,1
4,213,chip,./Images/chip/e2_s1.jpg,1,2,3638.40000009537,2,1
4,214,cabbage,./Images/cabbage/e1_s2.jpg,1,2,2513.90000009537,1,2
4,214,cabbage,./Images/cabbage/e2_s1.jpg,1,2,2513.90000009537,2,1
4,215,scissors,./Images/scissors/e2_s1.jpg,1,2,4891.09999990463,2,1
4,215,scissors,./Images/scissors/e1_s2.jpg,1,2,4891.09999990463,1,2
4,216,container_open,./Images/container_open/e1_s2.jpg,1,2,6091.7000002861,1,2
4,216,container_open,./Images/container_open/e2_s1.jpg,1,2,6091.7000002861,2,1
4,217,menorah,./Images/menorah/e1_s2.jpg,1,2,5771.80000019074,1,2
4,217,menorah,./Images/menorah/e2_s1.jpg,1,2,5771.80000019074,2,1
4,218,book,./Images/book/e2_s2.jpg,1,1,5275.09999990463,2,2
4,218,book,./Images/book/e1_s1.jpg,0,1,5275.09999990463,1,1
4,219,small_box,./Images/small_box/e2_s1.jpg,0,1,10958.6999998093,2,1
4,219,small_box,./Images/small_box/e1_s2.jpg,1,1,10958.6999998093,1,2
4,220,drink,./Images/drink/e1_s1.jpg,0,0,11516.5999999046,1,1
4,220,drink,./Images/drink/e2_s1.jpg,0,0,11516.5999999046,2,1
4,221,breadbox,./Images/breadbox/e2_s1.jpg,0,0,13726.1999998093,2,1
4,221,breadbox,./Images/breadbox/e1_s2.jpg,0,0,13726.1999998093,1,2
4,222,flask,./Images/flask/e2_s2.jpg,1,1,5710.09999990463,2,2
4,222,flask,./Images/flask/e1_s1.jpg,0,1,5710.09999990463,1,1
4,223,chair_recliner,./Images/chair_recliner/e1_s2.jpg,1,2,6822.59999990463,1,2
4,223,chair_recliner,./Images/chair_recliner/e2_s1.jpg,1,2,6822.59999990463,2,1
4,224,chapstick,./Images/chapstick/e1_s2.jpg,1,2,4904.80000019074,1,2
4,224,chapstick,./Images/chapstick/e2_s2.jpg,1,2,4904.80000019074,2,2
4,225,headphone_small,./Images/headphone_small/e1_s2.jpg,1,2,3856.90000009537,1,2
4,225,headphone_small,./Images/headphone_small/e2_s2.jpg,1,2,3856.90000009537,2,2
4,226,tictac,./Images/tictac/e2_s2.jpg,1,1,6516.90000009537,2,2
4,226,tictac,./Images/tictac/e1_s1.jpg,0,1,6516.90000009537,1,1
4,227,soap,./Images/soap/e2_s2.jpg,0,1,5235.80000019074,2,2
4,227,soap,./Images/soap/e1_s1.jpg,1,1,5235.80000019074,1,1
4,228,coins,./Images/coins/e2_s1.jpg,1,1,6330.2000002861,2,1
4,228,coins,./Images/coins/e1_s2.jpg,0,1,6330.2000002861,1,2
4,229,book_object,./Images/book_object/e2_s2.jpg,1,2,2691.19999980927,2,2
4,229,book_object,./Images/book_object/e1_s2.jpg,1,2,2691.19999980927,1,2
4,230,cardbox,./Images/cardbox/e1_s2.jpg,1,1,7994.59999990463,1,2
4,230,cardbox,./Images/cardbox/e2_s1.jpg,0,1,7994.59999990463,2,1
4,231,aabacus,./Images/aabacus/e2_s1.jpg,1,2,4812.5,2,1
4,231,aabacus,./Images/aabacus/e1_s2.jpg,1,2,4812.5,1,2
4,232,sugar_bowl,./Images/sugar_bowl/e1_s1.jpg,1,2,6571.39999961853,1,1
4,232,sugar_bowl,./Images/sugar_bowl/e2_s2.jpg,1,2,6571.39999961853,2,2
4,233,oj,./Images/oj/e1_s1.jpg,0,0,8213.5,1,1
4,233,oj,./Images/oj/e2_s2.jpg,0,0,8213.5,2,2
4,234,lottery_ticket,./Images/lottery_ticket/e1_s1.jpg,1,2,11593.9000000954,1,1
4,234,lottery_ticket,./Images/lottery_ticket/e2_s1.jpg,1,2,11593.9000000954,2,1
4,235,chocolate_bar,./Images/chocolate_bar/e2_s2.jpg,1,2,9225.90000009537,2,2
4,235,chocolate_bar,./Images/chocolate_bar/e1_s2.jpg,1,2,9225.90000009537,1,2
4,236,donut,./Images/donut/e1_s2.jpg,1,2,5089.39999961853,1,2
4,236,donut,./Images/donut/e2_s1.jpg,1,2,5089.39999961853,2,1
4,237,corkscrew,./Images/corkscrew/e2_s2.jpg,0,1,4406.7999997139,2,2
4,237,corkscrew,./Images/corkscrew/e1_s2.jpg,1,1,4406.7999997139,1,2
4,238,bills,./Images/bills/e1_s2.jpg,1,2,3314.2999997139,1,2
4,238,bills,./Images/bills/e2_s2.jpg,1,2,3314.2999997139,2,2
4,239,hourglass,./Images/hourglass/e1_s1.jpg,1,2,8035,1,1
4,239,hourglass,./Images/hourglass/e2_s2.jpg,1,2,8035,2,2
4,240,gift_box,./Images/gift_box/e2_s1.jpg,1,2,5326.40000009537,2,1
4,240,gift_box,./Images/gift_box/e1_s1.jpg,1,2,5326.40000009537,1,1
4,241,paper_cup,./Images/paper_cup/e1_s1.jpg,1,1,8048.2000002861,1,1
4,241,paper_cup,./Images/paper_cup/e2_s2.jpg,0,1,8048.2000002861,2,2
4,242,lunchbox,./Images/lunchbox/e2_s1.jpg,0,1,5877,2,1
4,242,lunchbox,./Images/lunchbox/e1_s2.jpg,1,1,5877,1,2
4,243,theater_seats,./Images/theater_seats/e1_s2.jpg,1,2,4074.09999990463,1,2
4,243,theater_seats,./Images/theater_seats/e2_s2.jpg,1,2,4074.09999990463,2,2
4,244,accordion,./Images/accordion/e1_s2.jpg,1,2,11365.9000000954,1,2
4,244,accordion,./Images/accordion/e2_s1.jpg,1,2,11365.9000000954,2,1
4,245,microwave,./Images/microwave/e2_s1.jpg,1,2,8278.19999980927,2,1
4,245,microwave,./Images/microwave/e1_s1.jpg,1,2,8278.19999980927,1,1
4,246,tissues,./Images/tissues/e1_s2.jpg,0,1,6147.40000009537,1,2
4,246,tissues,./Images/tissues/e2_s1.jpg,1,1,6147.40000009537,2,1
4,247,sugar_paper,./Images/sugar_paper/e1_s2.jpg,1,2,7422.7999997139,1,2
4,247,sugar_paper,./Images/sugar_paper/e2_s1.jpg,1,2,7422.7999997139,2,1
4,248,tool_box,./Images/tool_box/e2_s1.jpg,1,1,9961.19999980927,2,1
4,248,tool_box,./Images/tool_box/e1_s1.jpg,0,1,9961.19999980927,1,1
4,249,clocks,./Images/clocks/e1_s1.jpg,0,0,7531.2999997139,1,1
4,249,clocks,./Images/clocks/e2_s2.jpg,0,0,7531.2999997139,2,2
4,250,cooking_pot,./Images/cooking_pot/e2_s1.jpg,1,2,5573,2,1
4,250,cooking_pot,./Images/cooking_pot/e1_s1.jpg,1,2,5573,1,1
4,251,leather_bag,./Images/leather_bag/e1_s2.jpg,0,1,7864.5,1,2
4,251,leather_bag,./Images/leather_bag/e2_s1.jpg,1,1,7864.5,2,1
4,252,phone,./Images/phone/e1_s1.jpg,0,1,8327.40000009537,1,1
4,252,phone,./Images/phone/e2_s2.jpg,1,1,8327.40000009537,2,2
4,253,file_box,./Images/file_box/e2_s1.jpg,1,1,3426.40000009537,2,1
4,253,file_box,./Images/file_box/e1_s1.jpg,0,1,3426.40000009537,1,1
4,254,sharpie_pens,./Images/sharpie_pens/e1_s1.jpg,1,1,7249,1,1
4,254,sharpie_pens,./Images/sharpie_pens/e2_s1.jpg,0,1,7249,2,1
4,255,wallet,./Images/wallet/e2_s1.jpg,0,1,5116.2999997139,2,1
4,255,wallet,./Images/wallet/e1_s2.jpg,1,1,5116.2999997139,1,2
4,256,phone_antique,./Images/phone_antique/e1_s1.jpg,1,1,10658,1,1
4,256,phone_antique,./Images/phone_antique/e2_s2.jpg,0,1,10658,2,2
4,257,reeses,./Images/reeses/e2_s1.jpg,1,2,11926.5999999046,2,1
4,257,reeses,./Images/reeses/e1_s1.jpg,1,2,11926.5999999046,1,1
4,258,dryer,./Images/dryer/e1_s1.jpg,0,0,13815.5,1,1
4,258,dryer,./Images/dryer/e2_s2.jpg,0,0,13815.5,2,2
4,259,watch,./Images/watch/e2_s1.jpg,1,2,4303.59999990463,2,1
4,259,watch,./Images/watch/e1_s2.jpg,1,2,4303.59999990463,1,2
4,260,menus,./Images/menus/e2_s2.jpg,1,2,6580.5,2,2
4,260,menus,./Images/menus/e1_s2.jpg,1,2,6580.5,1,2
4,261,cocktail_umbrella,./Images/cocktail_umbrella/e1_s1.jpg,1,1,17063.5999999046,1,1
4,261,cocktail_umbrella,./Images/cocktail_umbrella/e2_s1.jpg,0,1,17063.5999999046,2,1
4,262,pail,./Images/pail/e2_s1.jpg,1,2,6565,2,1
4,262,pail,./Images/pail/e1_s1.jpg,1,2,6565,1,1
4,263,coffeemug,./Images/coffeemug/e1_s2.jpg,1,2,8520.40000009537,1,2
4,263,coffeemug,./Images/coffeemug/e2_s2.jpg,1,2,8520.40000009537,2,2
4,264,gummy,./Images/gummy/e2_s1.jpg,0,1,6503.10000038147,2,1
4,264,gummy,./Images/gummy/e1_s2.jpg,1,1,6503.10000038147,1,2
4,265,garlic_press,./Images/garlic_press/e1_s1.jpg,1,2,4985.19999980927,1,1
4,265,garlic_press,./Images/garlic_press/e2_s1.jpg,1,2,4985.19999980927,2,1
4,266,lemon,./Images/lemon/e2_s1.jpg,1,2,2700.39999961853,2,1
4,266,lemon,./Images/lemon/e1_s1.jpg,1,2,2700.39999961853,1,1
4,267,notebook,./Images/notebook/e1_s2.jpg,0,1,10572.0999999046,1,2
4,267,notebook,./Images/notebook/e2_s1.jpg,1,1,10572.0999999046,2,1
4,268,backpack,./Images/backpack/e1_s2.jpg,1,2,10067.6999998093,1,2
4,268,backpack,./Images/backpack/e2_s2.jpg,1,2,10067.6999998093,2,2
4,269,cereal,./Images/cereal/e1_s2.jpg,1,2,10292,1,2
4,269,cereal,./Images/cereal/e2_s1.jpg,1,2,10292,2,1
4,270,toy_truck,./Images/toy_truck/e2_s1.jpg,1,2,9834.69999980927,2,1
4,270,toy_truck,./Images/toy_truck/e1_s1.jpg,1,2,9834.69999980927,1,1
4,271,car,./Images/car/e1_s1.jpg,1,2,4145,1,1
4,271,car,./Images/car/e2_s1.jpg,1,2,4145,2,1
4,272,altoid,./Images/altoid/e2_s1.jpg,1,2,6021.59999990463,2,1
4,272,altoid,./Images/altoid/e1_s1.jpg,1,2,6021.59999990463,1,1
4,273,toilet,./Images/toilet/e2_s1.jpg,0,0,5092.19999980927,2,1
4,273,toilet,./Images/toilet/e1_s2.jpg,0,0,5092.19999980927,1,2
4,274,metronome,./Images/metronome/e1_s1.jpg,1,2,4509.2000002861,1,1
4,274,metronome,./Images/metronome/e2_s1.jpg,1,2,4509.2000002861,2,1
4,275,lotion,./Images/lotion/e2_s1.jpg,0,1,7413.30000019074,2,1
4,275,lotion,./Images/lotion/e1_s2.jpg,1,1,7413.30000019074,1,2
4,276,tape_dispenser,./Images/tape_dispenser/e1_s1.jpg,1,1,5275.90000009537,1,1
4,276,tape_dispenser,./Images/tape_dispenser/e2_s2.jpg,0,1,5275.90000009537,2,2
4,277,cabinet,./Images/cabinet/e2_s1.jpg,1,2,3303.90000009537,2,1
4,277,cabinet,./Images/cabinet/e1_s2.jpg,1,2,3303.90000009537,1,2
4,278,mixer,./Images/mixer/e1_s2.jpg,0,1,7652.2999997139,1,2
4,278,mixer,./Images/mixer/e2_s2.jpg,1,1,7652.2999997139,2,2
4,279,shoe,./Images/shoe/e2_s1.jpg,1,1,6599.80000019074,2,1
4,279,shoe,./Images/shoe/e1_s1.jpg,0,1,6599.80000019074,1,1
4,280,poker_chips,./Images/poker_chips/e1_s2.jpg,1,1,7864.30000019074,1,2
4,280,poker_chips,./Images/poker_chips/e2_s1.jpg,0,1,7864.30000019074,2,1
4,281,baseball_glove,./Images/baseball_glove/e1_s1.jpg,1,2,5140.5,1,1
4,281,baseball_glove,./Images/baseball_glove/e2_s2.jpg,1,2,5140.5,2,2
4,282,file_folder,./Images/file_folder/e1_s1.jpg,1,2,9717.2999997139,1,1
4,282,file_folder,./Images/file_folder/e2_s2.jpg,1,2,9717.2999997139,2,2
4,283,hand_puppet,./Images/hand_puppet/e1_s1.jpg,1,2,2500,1,1
4,283,hand_puppet,./Images/hand_puppet/e2_s1.jpg,1,2,2500,2,1
4,284,keys,./Images/keys/e2_s1.jpg,1,1,7933.40000009537,2,1
4,284,keys,./Images/keys/e1_s1.jpg,0,1,7933.40000009537,1,1
4,285,peanut_butter,./Images/peanut_butter/e1_s2.jpg,0,1,5959.90000009537,1,2
4,285,peanut_butter,./Images/peanut_butter/e2_s2.jpg,1,1,5959.90000009537,2,2
4,286,mustard,./Images/mustard/e2_s2.jpg,1,2,2166.2999997139,2,2
4,286,mustard,./Images/mustard/e1_s2.jpg,1,2,2166.2999997139,1,2
4,287,chocolate,./Images/chocolate/e2_s1.jpg,1,1,9663.2000002861,2,1
4,287,chocolate,./Images/chocolate/e1_s1.jpg,0,1,9663.2000002861,1,1
4,288,pen,./Images/pen/e2_s2.jpg,1,2,7078.30000019074,2,2
4,288,pen,./Images/pen/e1_s1.jpg,1,2,7078.30000019074,1,1
4,289,yarn,./Images/yarn/e2_s2.jpg,1,2,3912.2000002861,2,2
4,289,yarn,./Images/yarn/e1_s1.jpg,1,2,3912.2000002861,1,1
4,290,canopener,./Images/canopener/e1_s1.jpg,1,2,5197.69999980927,1,1
4,290,canopener,./Images/canopener/e2_s2.jpg,1,2,5197.69999980927,2,2
4,291,bottle_perfume,./Images/bottle_perfume/e1_s1.jpg,1,1,4505.90000009537,1,1
4,291,bottle_perfume,./Images/bottle_perfume/e2_s2.jpg,0,1,4505.90000009537,2,2
4,292,tricycle,./Images/tricycle/e1_s2.jpg,1,2,4583.89999961853,1,2
4,292,tricycle,./Images/tricycle/e2_s2.jpg,1,2,4583.89999961853,2,2
4,293,umbrella,./Images/umbrella/e2_s2.jpg,1,2,7492.40000009537,2,2
4,293,umbrella,./Images/umbrella/e1_s1.jpg,1,2,7492.40000009537,1,1
4,294,mailbox,./Images/mailbox/e2_s2.jpg,0,1,11183.6999998093,2,2
4,294,mailbox,./Images/mailbox/e1_s2.jpg,1,1,11183.6999998093,1,2
4,295,bottle_liquid,./Images/bottle_liquid/e1_s1.jpg,0,1,5184.09999990463,1,1
4,295,bottle_liquid,./Images/bottle_liquid/e2_s1.jpg,1,1,5184.09999990463,2,1
4,296,sponge,./Images/sponge/e2_s2.jpg,1,2,3261.80000019074,2,2
4,296,sponge,./Images/sponge/e1_s1.jpg,1,2,3261.80000019074,1,1
4,297,plastic_bottle,./Images/plastic_bottle/e2_s2.jpg,0,1,7680.59999990463,2,2
4,297,plastic_bottle,./Images/plastic_bottle/e1_s2.jpg,1,1,7680.59999990463,1,2
4,298,typewriter,./Images/typewriter/e1_s1.jpg,1,1,7060,1,1
4,298,typewriter,./Images/typewriter/e2_s1.jpg,0,1,7060,2,1
4,299,kettle,./Images/kettle/e1_s1.jpg,0,1,5200.40000009537,1,1
4,299,kettle,./Images/kettle/e2_s1.jpg,1,1,5200.40000009537,2,1
4,300,apple,./Images/apple/e1_s1.jpg,1,2,3065,1,1
4,300,apple,./Images/apple/e2_s2.jpg,1,2,3065,2,2
4,301,glass_orange,./Images/glass_orange/e1_s1.jpg,0,1,6692.7999997139,1,1
4,301,glass_orange,./Images/glass_orange/e2_s1.jpg,1,1,6692.7999997139,2,1
4,302,pie,./Images/pie/e1_s1.jpg,1,2,3288.5,1,1
4,302,pie,./Images/pie/e2_s2.jpg,1,2,3288.5,2,2
4,303,tea_pot,./Images/tea_pot/e2_s1.jpg,1,1,3685.40000009537,2,1
4,303,tea_pot,./Images/tea_pot/e1_s1.jpg,0,1,3685.40000009537,1,1
4,304,fridge,./Images/fridge/e1_s2.jpg,0,1,7268.19999980927,1,2
4,304,fridge,./Images/fridge/e2_s1.jpg,1,1,7268.19999980927,2,1
4,305,chips,./Images/chips/e1_s2.jpg,1,2,6263.90000009537,1,2
4,305,chips,./Images/chips/e2_s2.jpg,1,2,6263.90000009537,2,2
31,206,glass_orange,./Images/glass_orange/e1_s1.jpg,1,2,3676.99999999994,1,1
31,206,glass_orange,./Images/glass_orange/e2_s1.jpg,1,2,3676.99999999994,2,1
31,207,cookie,./Images/cookie/e2_s1.jpg,1,2,4620,2,1
31,207,cookie,./Images/cookie/e1_s1.jpg,1,2,4620,1,1
31,208,cardbox,./Images/cardbox/e2_s2.jpg,0,1,7533,2,2
31,208,cardbox,./Images/cardbox/e1_s2.jpg,1,1,7533,1,2
31,209,car,./Images/car/e2_s2.jpg,0,0,6298,2,2
31,209,car,./Images/car/e1_s1.jpg,0,0,6298,1,1
31,210,kettle,./Images/kettle/e1_s2.jpg,1,2,3994.00000000006,1,2
31,210,kettle,./Images/kettle/e2_s1.jpg,1,2,3994.00000000006,2,1
31,211,watch,./Images/watch/e1_s1.jpg,0,1,5430.00000000006,1,1
31,211,watch,./Images/watch/e2_s2.jpg,1,1,5430.00000000006,2,2
31,212,metronome,./Images/metronome/e2_s1.jpg,1,1,3512,2,1
31,212,metronome,./Images/metronome/e1_s2.jpg,0,1,3512,1,2
31,213,cabinet,./Images/cabinet/e1_s2.jpg,0,0,4140.99999999988,1,2
31,213,cabinet,./Images/cabinet/e2_s1.jpg,0,0,4140.99999999988,2,1
31,214,breadbox,./Images/breadbox/e1_s2.jpg,1,2,4457,1,2
31,214,breadbox,./Images/breadbox/e2_s2.jpg,1,2,4457,2,2
31,215,bills,./Images/bills/e2_s2.jpg,1,2,2560,2,2
31,215,bills,./Images/bills/e1_s2.jpg,1,2,2560,1,2
31,216,paper_cup,./Images/paper_cup/e2_s2.jpg,1,2,2490.00000000012,2,2
31,216,paper_cup,./Images/paper_cup/e1_s2.jpg,1,2,2490.00000000012,1,2
31,217,menorah,./Images/menorah/e2_s2.jpg,0,0,7497,2,2
31,217,menorah,./Images/menorah/e1_s1.jpg,0,0,7497,1,1
31,218,toy_truck,./Images/toy_truck/e2_s1.jpg,1,2,3447,2,1
31,218,toy_truck,./Images/toy_truck/e1_s1.jpg,1,2,3447,1,1
31,219,theater_seats,./Images/theater_seats/e2_s2.jpg,1,1,5117,2,2
31,219,theater_seats,./Images/theater_seats/e1_s1.jpg,0,1,5117,1,1
31,220,book,./Images/book/e2_s2.jpg,1,2,3198,2,2
31,220,book,./Images/book/e1_s1.jpg,1,2,3198,1,1
31,221,yarn,./Images/yarn/e1_s2.jpg,1,1,2762,1,2
31,221,yarn,./Images/yarn/e2_s1.jpg,0,1,2762,2,1
31,222,laptop,./Images/laptop/e1_s2.jpg,0,1,4294.99999999988,1,2
31,222,laptop,./Images/laptop/e2_s1.jpg,1,1,4294.99999999988,2,1
31,223,bottle_perfume,./Images/bottle_perfume/e2_s2.jpg,0,1,3823,2,2
31,223,bottle_perfume,./Images/bottle_perfume/e1_s2.jpg,1,1,3823,1,2
31,224,bottle_liquid,./Images/bottle_liquid/e2_s2.jpg,1,1,2446,2,2
31,224,bottle_liquid,./Images/bottle_liquid/e1_s1.jpg,0,1,2446,1,1
31,225,peanut_butter,./Images/peanut_butter/e1_s2.jpg,0,1,7777,1,2
31,225,peanut_butter,./Images/peanut_butter/e2_s1.jpg,1,1,7777,2,1
31,226,tool_box,./Images/tool_box/e1_s2.jpg,1,1,3202,1,2
31,226,tool_box,./Images/tool_box/e2_s2.jpg,0,1,3202,2,2
31,227,mustard,./Images/mustard/e1_s2.jpg,1,2,5796,1,2
31,227,mustard,./Images/mustard/e2_s1.jpg,1,2,5796,2,1
31,228,sugar_bowl,./Images/sugar_bowl/e1_s2.jpg,0,1,4546,1,2
31,228,sugar_bowl,./Images/sugar_bowl/e2_s2.jpg,1,1,4546,2,2
31,229,backpack,./Images/backpack/e1_s1.jpg,0,1,3172,1,1
31,229,backpack,./Images/backpack/e2_s1.jpg,1,1,3172,2,1
31,230,scanner,./Images/scanner/e2_s1.jpg,1,1,6457.99999999988,2,1
31,230,scanner,./Images/scanner/e1_s1.jpg,0,1,6457.99999999988,1,1
31,231,chocolate_bar,./Images/chocolate_bar/e1_s1.jpg,1,2,4364.00000000012,1,1
31,231,chocolate_bar,./Images/chocolate_bar/e2_s2.jpg,1,2,4364.00000000012,2,2
31,232,locks,./Images/locks/e2_s2.jpg,1,2,2524.99999999988,2,2
31,232,locks,./Images/locks/e1_s2.jpg,1,2,2524.99999999988,1,2
31,233,aabacus,./Images/aabacus/e2_s1.jpg,1,2,2505,2,1
31,233,aabacus,./Images/aabacus/e1_s1.jpg,1,2,2505,1,1
31,234,sharpie_pens,./Images/sharpie_pens/e1_s1.jpg,0,1,6112,1,1
31,234,sharpie_pens,./Images/sharpie_pens/e2_s2.jpg,1,1,6112,2,2
31,235,hourglass,./Images/hourglass/e2_s1.jpg,1,2,4496,2,1
31,235,hourglass,./Images/hourglass/e1_s2.jpg,1,2,4496,1,2
31,236,tricycle,./Images/tricycle/e2_s2.jpg,0,1,4691,2,2
31,236,tricycle,./Images/tricycle/e1_s2.jpg,1,1,4691,1,2
31,237,cooking_pot,./Images/cooking_pot/e1_s2.jpg,0,0,3165,1,2
31,237,cooking_pot,./Images/cooking_pot/e2_s1.jpg,0,0,3165,2,1
31,238,umbrella,./Images/umbrella/e1_s1.jpg,1,2,4499,1,1
31,238,umbrella,./Images/umbrella/e2_s2.jpg,1,2,4499,2,2
31,239,chip,./Images/chip/e2_s1.jpg,1,1,2835,2,1
31,239,chip,./Images/chip/e1_s1.jpg,0,1,2835,1,1
31,240,pail,./Images/pail/e2_s2.jpg,0,1,2063.00000000012,2,2
31,240,pail,./Images/pail/e1_s2.jpg,1,1,2063.00000000012,1,2
31,241,leather_bag,./Images/leather_bag/e2_s2.jpg,1,2,2920,2,2
31,241,leather_bag,./Images/leather_bag/e1_s2.jpg,1,2,2920,1,2
31,242,gift_box,./Images/gift_box/e2_s2.jpg,0,0,3720,2,2
31,242,gift_box,./Images/gift_box/e1_s1.jpg,0,0,3720,1,1
31,243,file_folder,./Images/file_folder/e2_s1.jpg,1,1,2807,2,1
31,243,file_folder,./Images/file_folder/e1_s1.jpg,0,1,2807,1,1
31,244,small_box,./Images/small_box/e2_s2.jpg,1,2,3713.99999999988,2,2
31,244,small_box,./Images/small_box/e1_s2.jpg,1,2,3713.99999999988,1,2
31,245,poker_chips,./Images/poker_chips/e1_s1.jpg,1,2,2787.00000000012,1,1
31,245,poker_chips,./Images/poker_chips/e2_s1.jpg,1,2,2787.00000000012,2,1
31,246,chocolate,./Images/chocolate/e1_s1.jpg,0,1,4019,1,1
31,246,chocolate,./Images/chocolate/e2_s2.jpg,1,1,4019,2,2
31,247,fridge,./Images/fridge/e2_s1.jpg,0,1,3959.00000000012,2,1
31,247,fridge,./Images/fridge/e1_s1.jpg,1,1,3959.00000000012,1,1
31,248,apple,./Images/apple/e2_s2.jpg,0,1,3012,2,2
31,248,apple,./Images/apple/e1_s2.jpg,1,1,3012,1,2
31,249,chapstick,./Images/chapstick/e2_s2.jpg,1,1,2161,2,2
31,249,chapstick,./Images/chapstick/e1_s2.jpg,0,1,2161,1,2
31,250,cereal,./Images/cereal/e2_s2.jpg,1,2,3072,2,2
31,250,cereal,./Images/cereal/e1_s2.jpg,1,2,3072,1,2
31,251,wallet,./Images/wallet/e1_s2.jpg,0,1,2648,1,2
31,251,wallet,./Images/wallet/e2_s2.jpg,1,1,2648,2,2
31,252,headphone_small,./Images/headphone_small/e2_s2.jpg,0,0,4411,2,2
31,252,headphone_small,./Images/headphone_small/e1_s1.jpg,0,0,4411,1,1
31,253,sponge,./Images/sponge/e2_s1.jpg,1,1,2029,2,1
31,253,sponge,./Images/sponge/e1_s1.jpg,0,1,2029,1,1
31,254,canopener,./Images/canopener/e2_s1.jpg,1,2,3641.00000000012,2,1
31,254,canopener,./Images/canopener/e1_s1.jpg,1,2,3641.00000000012,1,1
31,255,lemon,./Images/lemon/e2_s1.jpg,1,2,2607.99999999988,2,1
31,255,lemon,./Images/lemon/e1_s2.jpg,1,2,2607.99999999988,1,2
31,256,lottery_ticket,./Images/lottery_ticket/e1_s2.jpg,1,2,4475,1,2
31,256,lottery_ticket,./Images/lottery_ticket/e2_s2.jpg,1,2,4475,2,2
31,257,chips,./Images/chips/e2_s1.jpg,0,1,5365,2,1
31,257,chips,./Images/chips/e1_s2.jpg,1,1,5365,1,2
31,258,tissues,./Images/tissues/e2_s1.jpg,1,2,2713,2,1
31,258,tissues,./Images/tissues/e1_s2.jpg,1,2,2713,1,2
31,259,oj,./Images/oj/e1_s1.jpg,1,2,4618,1,1
31,259,oj,./Images/oj/e2_s1.jpg,1,2,4618,2,1
31,260,mailbox,./Images/mailbox/e2_s1.jpg,0,0,3458.00000000012,2,1
31,260,mailbox,./Images/mailbox/e1_s1.jpg,0,0,3458.00000000012,1,1
31,261,clocks,./Images/clocks/e1_s1.jpg,1,1,3659,1,1
31,261,clocks,./Images/clocks/e2_s1.jpg,0,1,3659,2,1
31,262,lunchbox,./Images/lunchbox/e2_s2.jpg,0,0,2852,2,2
31,262,lunchbox,./Images/lunchbox/e1_s2.jpg,0,0,2852,1,2
31,263,phone_antique,./Images/phone_antique/e1_s2.jpg,1,1,2701,1,2
31,263,phone_antique,./Images/phone_antique/e2_s2.jpg,0,1,2701,2,2
31,264,dresser,./Images/dresser/e1_s2.jpg,0,0,2731,1,2
31,264,dresser,./Images/dresser/e2_s2.jpg,0,0,2731,2,2
31,265,pie,./Images/pie/e2_s1.jpg,0,0,3869,2,1
31,265,pie,./Images/pie/e1_s2.jpg,0,0,3869,1,2
31,266,cocktail_umbrella,./Images/cocktail_umbrella/e2_s1.jpg,1,2,3040,2,1
31,266,cocktail_umbrella,./Images/cocktail_umbrella/e1_s1.jpg,1,2,3040,1,1
31,267,tape_dispenser,./Images/tape_dispenser/e1_s2.jpg,1,1,2777,1,2
31,267,tape_dispenser,./Images/tape_dispenser/e2_s2.jpg,0,1,2777,2,2
31,268,chair_recliner,./Images/chair_recliner/e1_s1.jpg,0,1,4034,1,1
31,268,chair_recliner,./Images/chair_recliner/e2_s1.jpg,1,1,4034,2,1
31,269,accordion,./Images/accordion/e2_s2.jpg,1,2,3135,2,2
31,269,accordion,./Images/accordion/e1_s2.jpg,1,2,3135,1,2
31,270,gummy,./Images/gummy/e2_s2.jpg,1,1,4916,2,2
31,270,gummy,./Images/gummy/e1_s1.jpg,0,1,4916,1,1
31,271,toilet,./Images/toilet/e2_s1.jpg,0,0,2227.00000000012,2,1
31,271,toilet,./Images/toilet/e1_s1.jpg,0,0,2227.00000000012,1,1
31,272,typewriter,./Images/typewriter/e1_s1.jpg,0,0,2967.00000000012,1,1
31,272,typewriter,./Images/typewriter/e2_s2.jpg,0,0,2967.00000000012,2,2
31,273,mixer,./Images/mixer/e2_s2.jpg,0,1,2983,2,2
31,273,mixer,./Images/mixer/e1_s2.jpg,1,1,2983,1,2
31,274,baseball_glove,./Images/baseball_glove/e2_s1.jpg,1,1,3037.00000000012,2,1
31,274,baseball_glove,./Images/baseball_glove/e1_s2.jpg,0,1,3037.00000000012,1,2
31,275,hand_puppet,./Images/hand_puppet/e2_s2.jpg,1,2,3550,2,2
31,275,hand_puppet,./Images/hand_puppet/e1_s1.jpg,1,2,3550,1,1
31,276,tictac,./Images/tictac/e2_s1.jpg,1,2,5405,2,1
31,276,tictac,./Images/tictac/e1_s1.jpg,1,2,5405,1,1
31,277,shoe,./Images/shoe/e2_s1.jpg,1,1,3438,2,1
31,277,shoe,./Images/shoe/e1_s2.jpg,0,1,3438,1,2
31,278,sugar_paper,./Images/sugar_paper/e2_s1.jpg,1,1,3003,2,1
31,278,sugar_paper,./Images/sugar_paper/e1_s1.jpg,0,1,3003,1,1
31,279,book_object,./Images/book_object/e2_s2.jpg,1,2,3025,2,2
31,279,book_object,./Images/book_object/e1_s2.jpg,1,2,3025,1,2
31,280,donut,./Images/donut/e1_s1.jpg,1,2,3071,1,1
31,280,donut,./Images/donut/e2_s1.jpg,1,2,3071,2,1
31,281,file_box,./Images/file_box/e1_s2.jpg,1,1,3905.99999999988,1,2
31,281,file_box,./Images/file_box/e2_s2.jpg,0,1,3905.99999999988,2,2
31,282,soap,./Images/soap/e1_s2.jpg,1,2,2153,1,2
31,282,soap,./Images/soap/e2_s2.jpg,1,2,2153,2,2
31,283,pen,./Images/pen/e1_s2.jpg,1,1,3105,1,2
31,283,pen,./Images/pen/e2_s1.jpg,0,1,3105,2,1
31,284,tea_pot,./Images/tea_pot/e2_s1.jpg,1,1,2479,2,1
31,284,tea_pot,./Images/tea_pot/e1_s2.jpg,0,1,2479,1,2
31,285,cell,./Images/cell/e2_s1.jpg,0,1,6064,2,1
31,285,cell,./Images/cell/e1_s2.jpg,1,1,6064,1,2
31,286,cabbage,./Images/cabbage/e1_s1.jpg,1,2,2356,1,1
31,286,cabbage,./Images/cabbage/e2_s1.jpg,1,2,2356,2,1
31,287,notebook,./Images/notebook/e1_s1.jpg,1,1,2882,1,1
31,287,notebook,./Images/notebook/e2_s2.jpg,0,1,2882,2,2
31,288,plastic_bottle,./Images/plastic_bottle/e1_s1.jpg,1,1,3910,1,1
31,288,plastic_bottle,./Images/plastic_bottle/e2_s1.jpg,0,1,3910,2,1
31,289,coins,./Images/coins/e1_s1.jpg,1,2,2975,1,1
31,289,coins,./Images/coins/e2_s1.jpg,1,2,2975,2,1
31,290,coffeemug,./Images/coffeemug/e1_s1.jpg,0,1,1947,1,1
31,290,coffeemug,./Images/coffeemug/e2_s1.jpg,1,1,1947,2,1
31,291,phone,./Images/phone/e1_s1.jpg,0,0,2091,1,1
31,291,phone,./Images/phone/e2_s1.jpg,0,0,2091,2,1
31,292,garlic_press,./Images/garlic_press/e1_s2.jpg,1,2,3117,1,2
31,292,garlic_press,./Images/garlic_press/e2_s1.jpg,1,2,3117,2,1
31,293,flask,./Images/flask/e1_s1.jpg,1,2,2901.99999999988,1,1
31,293,flask,./Images/flask/e2_s2.jpg,1,2,2901.99999999988,2,2
31,294,menus,./Images/menus/e2_s2.jpg,1,1,4793,2,2
31,294,menus,./Images/menus/e1_s1.jpg,0,1,4793,1,1
31,295,usb_key,./Images/usb_key/e2_s1.jpg,0,0,2174,2,1
31,295,usb_key,./Images/usb_key/e1_s2.jpg,0,0,2174,1,2
31,296,keys,./Images/keys/e1_s1.jpg,1,2,2311,1,1
31,296,keys,./Images/keys/e2_s2.jpg,1,2,2311,2,2
31,297,corkscrew,./Images/corkscrew/e1_s2.jpg,1,2,3541,1,2
31,297,corkscrew,./Images/corkscrew/e2_s2.jpg,1,2,3541,2,2
31,298,reeses,./Images/reeses/e1_s1.jpg,0,1,3311.00000000012,1,1
31,298,reeses,./Images/reeses/e2_s2.jpg,1,1,3311.00000000012,2,2
31,299,container_open,./Images/container_open/e1_s2.jpg,1,1,2111,1,2
31,299,container_open,./Images/container_open/e2_s2.jpg,0,1,2111,2,2
31,300,altoid,./Images/altoid/e2_s2.jpg,1,2,2281,2,2
31,300,altoid,./Images/altoid/e1_s2.jpg,1,2,2281,1,2
31,301,dryer,./Images/dryer/e1_s2.jpg,0,1,3786,1,2
31,301,dryer,./Images/dryer/e2_s2.jpg,1,1,3786,2,2
31,302,lotion,./Images/lotion/e2_s1.jpg,1,1,3234,2,1
31,302,lotion,./Images/lotion/e1_s1.jpg,0,1,3234,1,1
31,303,microwave,./Images/microwave/e1_s1.jpg,0,0,2965.00000000012,1,1
31,303,microwave,./Images/microwave/e2_s2.jpg,0,0,2965.00000000012,2,2
31,304,drink,./Images/drink/e2_s2.jpg,1,2,3359,2,2
31,304,drink,./Images/drink/e1_s2.jpg,1,2,3359,1,2
31,305,scissors,./Images/scissors/e2_s2.jpg,1,2,2084.00000000012,2,2
31,305,scissors,./Images/scissors/e1_s1.jpg,1,2,2084.00000000012,1,1
12,206,toilet,./Images/toilet/e1_s1.jpg,1,2,6714.79999995232,1,1
12,206,toilet,./Images/toilet/e2_s2.jpg,1,2,6714.79999995232,2,2
12,207,pail,./Images/pail/e1_s1.jpg,1,2,13042.3999999762,1,1
12,207,pail,./Images/pail/e2_s2.jpg,1,2,13042.3999999762,2,2
12,208,breadbox,./Images/breadbox/e2_s2.jpg,1,2,4305.89999997616,2,2
12,208,breadbox,./Images/breadbox/e1_s2.jpg,1,2,4305.89999997616,1,2
12,209,cookie,./Images/cookie/e1_s2.jpg,1,2,7144.70000004768,1,2
12,209,cookie,./Images/cookie/e2_s1.jpg,1,2,7144.70000004768,2,1
12,210,donut,./Images/donut/e2_s1.jpg,1,2,3630.89999997616,2,1
12,210,donut,./Images/donut/e1_s1.jpg,1,2,3630.89999997616,1,1
12,211,bills,./Images/bills/e1_s2.jpg,1,2,6673,1,2
12,211,bills,./Images/bills/e2_s1.jpg,1,2,6673,2,1
12,212,umbrella,./Images/umbrella/e2_s1.jpg,1,2,6651.29999995232,2,1
12,212,umbrella,./Images/umbrella/e1_s1.jpg,1,2,6651.29999995232,1,1
12,213,mixer,./Images/mixer/e1_s1.jpg,0,0,4883,1,1
12,213,mixer,./Images/mixer/e2_s2.jpg,0,0,4883,2,2
12,214,kettle,./Images/kettle/e2_s1.jpg,0,1,6409.70000004768,2,1
12,214,kettle,./Images/kettle/e1_s2.jpg,1,1,6409.70000004768,1,2
12,215,hand_puppet,./Images/hand_puppet/e1_s1.jpg,0,1,9742.40000009537,1,1
12,215,hand_puppet,./Images/hand_puppet/e2_s1.jpg,1,1,9742.40000009537,2,1
12,216,pie,./Images/pie/e1_s1.jpg,1,2,4066.79999995232,1,1
12,216,pie,./Images/pie/e2_s2.jpg,1,2,4066.79999995232,2,2
12,217,mustard,./Images/mustard/e2_s1.jpg,1,2,6342.30000007153,2,1
12,217,mustard,./Images/mustard/e1_s1.jpg,1,2,6342.30000007153,1,1
12,218,cell,./Images/cell/e1_s1.jpg,0,1,7718.39999997616,1,1
12,218,cell,./Images/cell/e2_s2.jpg,1,1,7718.39999997616,2,2
12,219,lotion,./Images/lotion/e2_s2.jpg,1,1,3821.29999995232,2,2
12,219,lotion,./Images/lotion/e1_s1.jpg,0,1,3821.29999995232,1,1
12,220,sugar_paper,./Images/sugar_paper/e1_s2.jpg,0,0,8075.90000009537,1,2
12,220,sugar_paper,./Images/sugar_paper/e2_s1.jpg,0,0,8075.90000009537,2,1
12,221,drink,./Images/drink/e2_s1.jpg,1,2,7698.70000004768,2,1
12,221,drink,./Images/drink/e1_s1.jpg,1,2,7698.70000004768,1,1
12,222,lemon,./Images/lemon/e2_s2.jpg,1,2,3553.79999995232,2,2
12,222,lemon,./Images/lemon/e1_s1.jpg,1,2,3553.79999995232,1,1
12,223,yarn,./Images/yarn/e2_s2.jpg,1,2,5439.29999995232,2,2
12,223,yarn,./Images/yarn/e1_s1.jpg,1,2,5439.29999995232,1,1
12,224,cereal,./Images/cereal/e1_s1.jpg,1,1,6727.20000004768,1,1
12,224,cereal,./Images/cereal/e2_s2.jpg,0,1,6727.20000004768,2,2
12,225,chocolate,./Images/chocolate/e2_s1.jpg,1,2,4487,2,1
12,225,chocolate,./Images/chocolate/e1_s2.jpg,1,2,4487,1,2
12,226,altoid,./Images/altoid/e1_s1.jpg,1,2,6789.39999997616,1,1
12,226,altoid,./Images/altoid/e2_s2.jpg,1,2,6789.39999997616,2,2
12,227,laptop,./Images/laptop/e1_s2.jpg,1,2,4887.89999997616,1,2
12,227,laptop,./Images/laptop/e2_s2.jpg,1,2,4887.89999997616,2,2
12,228,microwave,./Images/microwave/e1_s1.jpg,1,1,4767.29999995232,1,1
12,228,microwave,./Images/microwave/e2_s2.jpg,0,1,4767.29999995232,2,2
12,229,tea_pot,./Images/tea_pot/e2_s2.jpg,1,2,5813.60000002384,2,2
12,229,tea_pot,./Images/tea_pot/e1_s1.jpg,1,2,5813.60000002384,1,1
12,230,dryer,./Images/dryer/e2_s2.jpg,1,2,3622.79999995232,2,2
12,230,dryer,./Images/dryer/e1_s1.jpg,1,2,3622.79999995232,1,1
12,231,coins,./Images/coins/e1_s2.jpg,1,2,4444.5,1,2
12,231,coins,./Images/coins/e2_s2.jpg,1,2,4444.5,2,2
12,232,bottle_liquid,./Images/bottle_liquid/e2_s1.jpg,0,0,8377,2,1
12,232,bottle_liquid,./Images/bottle_liquid/e1_s1.jpg,0,0,8377,1,1
12,233,paper_cup,./Images/paper_cup/e2_s1.jpg,1,2,4269,2,1
12,233,paper_cup,./Images/paper_cup/e1_s1.jpg,1,2,4269,1,1
12,234,reeses,./Images/reeses/e2_s2.jpg,1,2,8375.5,2,2
12,234,reeses,./Images/reeses/e1_s1.jpg,1,2,8375.5,1,1
12,235,chip,./Images/chip/e1_s2.jpg,1,2,7578.89999997616,1,2
12,235,chip,./Images/chip/e2_s2.jpg,1,2,7578.89999997616,2,2
12,236,menorah,./Images/menorah/e1_s1.jpg,1,2,5674.89999997616,1,1
12,236,menorah,./Images/menorah/e2_s2.jpg,1,2,5674.89999997616,2,2
12,237,lottery_ticket,./Images/lottery_ticket/e2_s1.jpg,1,2,12635.7000000477,2,1
12,237,lottery_ticket,./Images/lottery_ticket/e1_s2.jpg,1,2,12635.7000000477,1,2
12,238,baseball_glove,./Images/baseball_glove/e2_s1.jpg,1,2,5052.20000004768,2,1
12,238,baseball_glove,./Images/baseball_glove/e1_s2.jpg,1,2,5052.20000004768,1,2
12,239,chair_recliner,./Images/chair_recliner/e2_s1.jpg,0,1,3231.19999992847,2,1
12,239,chair_recliner,./Images/chair_recliner/e1_s2.jpg,1,1,3231.19999992847,1,2
12,240,sharpie_pens,./Images/sharpie_pens/e2_s2.jpg,1,1,3089.39999997616,2,2
12,240,sharpie_pens,./Images/sharpie_pens/e1_s1.jpg,0,1,3089.39999997616,1,1
12,241,mailbox,./Images/mailbox/e2_s2.jpg,1,1,4836,2,2
12,241,mailbox,./Images/mailbox/e1_s2.jpg,0,1,4836,1,2
12,242,lunchbox,./Images/lunchbox/e1_s1.jpg,0,1,7914.39999997616,1,1
12,242,lunchbox,./Images/lunchbox/e2_s2.jpg,1,1,7914.39999997616,2,2
12,243,tissues,./Images/tissues/e2_s1.jpg,1,2,5509.80000007153,2,1
12,243,tissues,./Images/tissues/e1_s1.jpg,1,2,5509.80000007153,1,1
12,244,scissors,./Images/scissors/e1_s1.jpg,1,1,3219.89999997616,1,1
12,244,scissors,./Images/scissors/e2_s2.jpg,0,1,3219.89999997616,2,2
12,245,metronome,./Images/metronome/e2_s1.jpg,0,1,8241.29999995232,2,1
12,245,metronome,./Images/metronome/e1_s2.jpg,1,1,8241.29999995232,1,2
12,246,shoe,./Images/shoe/e1_s2.jpg,1,2,3046.39999997616,1,2
12,246,shoe,./Images/shoe/e2_s1.jpg,1,2,3046.39999997616,2,1
12,247,book,./Images/book/e1_s2.jpg,1,2,6922.70000004768,1,2
12,247,book,./Images/book/e2_s1.jpg,1,2,6922.70000004768,2,1
12,248,typewriter,./Images/typewriter/e2_s1.jpg,1,2,8935.89999997616,2,1
12,248,typewriter,./Images/typewriter/e1_s1.jpg,1,2,8935.89999997616,1,1
12,249,car,./Images/car/e2_s1.jpg,0,1,3754.30000007153,2,1
12,249,car,./Images/car/e1_s2.jpg,1,1,3754.30000007153,1,2
12,250,tape_dispenser,./Images/tape_dispenser/e2_s1.jpg,0,0,4885.69999992848,2,1
12,250,tape_dispenser,./Images/tape_dispenser/e1_s2.jpg,0,0,4885.69999992848,1,2
12,251,chips,./Images/chips/e1_s2.jpg,1,2,5041.19999992848,1,2
12,251,chips,./Images/chips/e2_s2.jpg,1,2,5041.19999992848,2,2
12,252,flask,./Images/flask/e2_s1.jpg,0,1,4271.29999995232,2,1
12,252,flask,./Images/flask/e1_s2.jpg,1,1,4271.29999995232,1,2
12,253,coffeemug,./Images/coffeemug/e2_s2.jpg,0,0,3808.89999997616,2,2
12,253,coffeemug,./Images/coffeemug/e1_s1.jpg,0,0,3808.89999997616,1,1
12,254,oj,./Images/oj/e1_s2.jpg,1,2,5176.29999995232,1,2
12,254,oj,./Images/oj/e2_s1.jpg,1,2,5176.29999995232,2,1
12,255,toy_truck,./Images/toy_truck/e1_s1.jpg,1,1,3345.70000004768,1,1
12,255,toy_truck,./Images/toy_truck/e2_s1.jpg,0,1,3345.70000004768,2,1
12,256,cocktail_umbrella,./Images/cocktail_umbrella/e2_s1.jpg,0,1,4161.59999990463,2,1
12,256,cocktail_umbrella,./Images/cocktail_umbrella/e1_s1.jpg,1,1,4161.59999990463,1,1
12,257,bottle_perfume,./Images/bottle_perfume/e2_s1.jpg,0,1,4215.30000007153,2,1
12,257,bottle_perfume,./Images/bottle_perfume/e1_s2.jpg,1,1,4215.30000007153,1,2
12,258,plastic_bottle,./Images/plastic_bottle/e2_s1.jpg,1,2,9523.79999995232,2,1
12,258,plastic_bottle,./Images/plastic_bottle/e1_s1.jpg,1,2,9523.79999995232,1,1
12,259,canopener,./Images/canopener/e2_s1.jpg,1,1,5484.5,2,1
12,259,canopener,./Images/canopener/e1_s1.jpg,0,1,5484.5,1,1
12,260,menus,./Images/menus/e2_s2.jpg,0,1,4955.20000004768,2,2
12,260,menus,./Images/menus/e1_s1.jpg,1,1,4955.20000004768,1,1
12,261,tricycle,./Images/tricycle/e1_s2.jpg,0,1,6841.39999997616,1,2
12,261,tricycle,./Images/tricycle/e2_s1.jpg,1,1,6841.39999997616,2,1
12,262,fridge,./Images/fridge/e1_s1.jpg,0,1,3691.20000004768,1,1
12,262,fridge,./Images/fridge/e2_s2.jpg,1,1,3691.20000004768,2,2
12,263,gift_box,./Images/gift_box/e1_s1.jpg,1,2,5810.10000002384,1,1
12,263,gift_box,./Images/gift_box/e2_s2.jpg,1,2,5810.10000002384,2,2
12,264,garlic_press,./Images/garlic_press/e2_s2.jpg,1,1,2791.39999997616,2,2
12,264,garlic_press,./Images/garlic_press/e1_s1.jpg,0,1,2791.39999997616,1,1
12,265,phone,./Images/phone/e1_s1.jpg,0,1,3002.5,1,1
12,265,phone,./Images/phone/e2_s1.jpg,1,1,3002.5,2,1
12,266,hourglass,./Images/hourglass/e1_s2.jpg,0,1,5840.10000002384,1,2
12,266,hourglass,./Images/hourglass/e2_s1.jpg,1,1,5840.10000002384,2,1
12,267,container_open,./Images/container_open/e2_s2.jpg,1,2,4397.39999997616,2,2
12,267,container_open,./Images/container_open/e1_s1.jpg,1,2,4397.39999997616,1,1
12,268,cardbox,./Images/cardbox/e1_s1.jpg,1,2,2746.89999997616,1,1
12,268,cardbox,./Images/cardbox/e2_s1.jpg,1,2,2746.89999997616,2,1
12,269,theater_seats,./Images/theater_seats/e2_s1.jpg,1,2,4053.89999997616,2,1
12,269,theater_seats,./Images/theater_seats/e1_s2.jpg,1,2,4053.89999997616,1,2
12,270,tictac,./Images/tictac/e1_s2.jpg,0,1,5589.29999995232,1,2
12,270,tictac,./Images/tictac/e2_s1.jpg,1,1,5589.29999995232,2,1
12,271,headphone_small,./Images/headphone_small/e2_s1.jpg,1,2,4740,2,1
12,271,headphone_small,./Images/headphone_small/e1_s2.jpg,1,2,4740,1,2
12,272,poker_chips,./Images/poker_chips/e1_s2.jpg,1,2,2671,1,2
12,272,poker_chips,./Images/poker_chips/e2_s2.jpg,1,2,2671,2,2
12,273,aabacus,./Images/aabacus/e1_s2.jpg,1,2,4736.30000007153,1,2
12,273,aabacus,./Images/aabacus/e2_s2.jpg,1,2,4736.30000007153,2,2
12,274,sponge,./Images/sponge/e2_s2.jpg,1,1,10056.8000000715,2,2
12,274,sponge,./Images/sponge/e1_s2.jpg,0,1,10056.8000000715,1,2
12,275,usb_key,./Images/usb_key/e1_s1.jpg,0,0,6272.40000009537,1,1
12,275,usb_key,./Images/usb_key/e2_s2.jpg,0,0,6272.40000009537,2,2
12,276,apple,./Images/apple/e1_s1.jpg,1,2,3609,1,1
12,276,apple,./Images/apple/e2_s2.jpg,1,2,3609,2,2
12,277,leather_bag,./Images/leather_bag/e2_s1.jpg,0,0,3719.89999997616,2,1
12,277,leather_bag,./Images/leather_bag/e1_s1.jpg,0,0,3719.89999997616,1,1
12,278,sugar_bowl,./Images/sugar_bowl/e1_s2.jpg,0,1,5977.29999995232,1,2
12,278,sugar_bowl,./Images/sugar_bowl/e2_s1.jpg,1,1,5977.29999995232,2,1
12,279,cabinet,./Images/cabinet/e1_s1.jpg,0,1,5694.20000004768,1,1
12,279,cabinet,./Images/cabinet/e2_s1.jpg,1,1,5694.20000004768,2,1
12,280,accordion,./Images/accordion/e2_s2.jpg,1,1,4159.60000002384,2,2
12,280,accordion,./Images/accordion/e1_s2.jpg,0,1,4159.60000002384,1,2
12,281,small_box,./Images/small_box/e1_s1.jpg,0,1,4084.80000007153,1,1
12,281,small_box,./Images/small_box/e2_s1.jpg,1,1,4084.80000007153,2,1
12,282,gummy,./Images/gummy/e1_s2.jpg,1,2,2768.40000009537,1,2
12,282,gummy,./Images/gummy/e2_s2.jpg,1,2,2768.40000009537,2,2
12,283,file_folder,./Images/file_folder/e2_s1.jpg,1,1,6628.60000002384,2,1
12,283,file_folder,./Images/file_folder/e1_s2.jpg,0,1,6628.60000002384,1,2
12,284,pen,./Images/pen/e1_s1.jpg,1,2,5321.39999997616,1,1
12,284,pen,./Images/pen/e2_s2.jpg,1,2,5321.39999997616,2,2
12,285,cabbage,./Images/cabbage/e1_s1.jpg,1,1,2523.79999995232,1,1
12,285,cabbage,./Images/cabbage/e2_s2.jpg,0,1,2523.79999995232,2,2
12,286,phone_antique,./Images/phone_antique/e1_s2.jpg,1,2,7524.70000004768,1,2
12,286,phone_antique,./Images/phone_antique/e2_s2.jpg,1,2,7524.70000004768,2,2
12,287,soap,./Images/soap/e1_s2.jpg,1,2,4886.89999997616,1,2
12,287,soap,./Images/soap/e2_s1.jpg,1,2,4886.89999997616,2,1
12,288,file_box,./Images/file_box/e1_s1.jpg,0,1,6341,1,1
12,288,file_box,./Images/file_box/e2_s1.jpg,1,1,6341,2,1
12,289,tool_box,./Images/tool_box/e2_s2.jpg,1,1,2370,2,2
12,289,tool_box,./Images/tool_box/e1_s1.jpg,0,1,2370,1,1
12,290,locks,./Images/locks/e1_s1.jpg,0,1,2313.59999990463,1,1
12,290,locks,./Images/locks/e2_s2.jpg,1,1,2313.59999990463,2,2
12,291,glass_orange,./Images/glass_orange/e1_s2.jpg,1,2,4078.10000002384,1,2
12,291,glass_orange,./Images/glass_orange/e2_s2.jpg,1,2,4078.10000002384,2,2
12,292,backpack,./Images/backpack/e2_s1.jpg,1,2,3580.5,2,1
12,292,backpack,./Images/backpack/e1_s2.jpg,1,2,3580.5,1,2
12,293,notebook,./Images/notebook/e2_s2.jpg,1,2,6843.60000002384,2,2
12,293,notebook,./Images/notebook/e1_s2.jpg,1,2,6843.60000002384,1,2
12,294,keys,./Images/keys/e1_s2.jpg,1,2,3410.5,1,2
12,294,keys,./Images/keys/e2_s2.jpg,1,2,3410.5,2,2
12,295,clocks,./Images/clocks/e1_s1.jpg,1,2,4567.39999997616,1,1
12,295,clocks,./Images/clocks/e2_s2.jpg,1,2,4567.39999997616,2,2
12,296,dresser,./Images/dresser/e1_s1.jpg,1,2,3768.60000002384,1,1
12,296,dresser,./Images/dresser/e2_s1.jpg,1,2,3768.60000002384,2,1
12,297,watch,./Images/watch/e1_s2.jpg,1,2,3688.60000002384,1,2
12,297,watch,./Images/watch/e2_s1.jpg,1,2,3688.60000002384,2,1
12,298,peanut_butter,./Images/peanut_butter/e2_s2.jpg,0,1,3022.19999992847,2,2
12,298,peanut_butter,./Images/peanut_butter/e1_s1.jpg,1,1,3022.19999992847,1,1
12,299,scanner,./Images/scanner/e1_s1.jpg,1,1,7092.39999997616,1,1
12,299,scanner,./Images/scanner/e2_s2.jpg,0,1,7092.39999997616,2,2
12,300,book_object,./Images/book_object/e1_s1.jpg,1,2,2160.60000002384,1,1
12,300,book_object,./Images/book_object/e2_s2.jpg,1,2,2160.60000002384,2,2
12,301,cooking_pot,./Images/cooking_pot/e2_s1.jpg,1,2,5561.10000002384,2,1
12,301,cooking_pot,./Images/cooking_pot/e1_s2.jpg,1,2,5561.10000002384,1,2
12,302,chocolate_bar,./Images/chocolate_bar/e2_s1.jpg,1,2,3869.29999995232,2,1
12,302,chocolate_bar,./Images/chocolate_bar/e1_s2.jpg,1,2,3869.29999995232,1,2
12,303,wallet,./Images/wallet/e1_s1.jpg,1,2,2959,1,1
12,303,wallet,./Images/wallet/e2_s2.jpg,1,2,2959,2,2
12,304,corkscrew,./Images/corkscrew/e1_s2.jpg,1,2,9782,1,2
12,304,corkscrew,./Images/corkscrew/e2_s1.jpg,1,2,9782,2,1
12,305,chapstick,./Images/chapstick/e2_s1.jpg,1,1,4632.60000002384,2,1
12,305,chapstick,./Images/chapstick/e1_s1.jpg,0,1,4632.60000002384,1,1
28,206,watch,./Images/watch/e2_s1.jpg,1,1,14546.099999994,2,1
28,206,watch,./Images/watch/e1_s1.jpg,0,1,14546.099999994,1,1
28,207,bills,./Images/bills/e2_s2.jpg,1,2,16849.2999999821,2,2
28,207,bills,./Images/bills/e1_s1.jpg,1,2,16849.2999999821,1,1
28,208,sharpie_pens,./Images/sharpie_pens/e2_s1.jpg,1,2,4015,2,1
28,208,sharpie_pens,./Images/sharpie_pens/e1_s2.jpg,1,2,4015,1,2
28,209,book,./Images/book/e1_s1.jpg,1,2,4098.90000000596,1,1
28,209,book,./Images/book/e2_s2.jpg,1,2,4098.90000000596,2,2
28,210,hourglass,./Images/hourglass/e1_s1.jpg,1,2,6452.59999999404,1,1
28,210,hourglass,./Images/hourglass/e2_s1.jpg,1,2,6452.59999999404,2,1
28,211,container_open,./Images/container_open/e2_s1.jpg,1,2,6220.69999998808,2,1
28,211,container_open,./Images/container_open/e1_s2.jpg,1,2,6220.69999998808,1,2
28,212,fridge,./Images/fridge/e2_s1.jpg,1,2,11205.7999999821,2,1
28,212,fridge,./Images/fridge/e1_s2.jpg,1,2,11205.7999999821,1,2
28,213,scanner,./Images/scanner/e1_s2.jpg,1,2,5858.29999998212,1,2
28,213,scanner,./Images/scanner/e2_s1.jpg,1,2,5858.29999998212,2,1
28,214,phone_antique,./Images/phone_antique/e2_s2.jpg,1,1,16727.400000006,2,2
28,214,phone_antique,./Images/phone_antique/e1_s2.jpg,0,1,16727.400000006,1,2
28,215,headphone_small,./Images/headphone_small/e1_s1.jpg,1,2,3122.69999998808,1,1
28,215,headphone_small,./Images/headphone_small/e2_s1.jpg,1,2,3122.69999998808,2,1
28,216,microwave,./Images/microwave/e1_s1.jpg,1,2,9322.89999997616,1,1
28,216,microwave,./Images/microwave/e2_s1.jpg,1,2,9322.89999997616,2,1
28,217,sponge,./Images/sponge/e1_s1.jpg,1,2,3012.40000000596,1,1
28,217,sponge,./Images/sponge/e2_s2.jpg,1,2,3012.40000000596,2,2
28,218,dresser,./Images/dresser/e2_s1.jpg,1,2,8938,2,1
28,218,dresser,./Images/dresser/e1_s1.jpg,1,2,8938,1,1
28,219,toy_truck,./Images/toy_truck/e2_s1.jpg,1,1,5822.89999997616,2,1
28,219,toy_truck,./Images/toy_truck/e1_s2.jpg,0,1,5822.89999997616,1,2
28,220,mixer,./Images/mixer/e2_s2.jpg,1,1,3983.29999998212,2,2
28,220,mixer,./Images/mixer/e1_s2.jpg,0,1,3983.29999998212,1,2
28,221,canopener,./Images/canopener/e1_s1.jpg,1,2,5304.5,1,1
28,221,canopener,./Images/canopener/e2_s1.jpg,1,2,5304.5,2,1
28,222,notebook,./Images/notebook/e1_s1.jpg,0,0,7290.40000000596,1,1
28,222,notebook,./Images/notebook/e2_s2.jpg,0,0,7290.40000000596,2,2
28,223,menus,./Images/menus/e2_s2.jpg,1,2,4079.40000000596,2,2
28,223,menus,./Images/menus/e1_s2.jpg,1,2,4079.40000000596,1,2
28,224,coins,./Images/coins/e2_s1.jpg,1,2,6140.79999998212,2,1
28,224,coins,./Images/coins/e1_s2.jpg,1,2,6140.79999998212,1,2
28,225,breadbox,./Images/breadbox/e2_s2.jpg,0,0,23868.5,2,2
28,225,breadbox,./Images/breadbox/e1_s1.jpg,0,0,23868.5,1,1
28,226,cocktail_umbrella,./Images/cocktail_umbrella/e1_s2.jpg,1,2,3205.39999997616,1,2
28,226,cocktail_umbrella,./Images/cocktail_umbrella/e2_s1.jpg,1,2,3205.39999997616,2,1
28,227,typewriter,./Images/typewriter/e1_s2.jpg,0,1,3383.80000001192,1,2
28,227,typewriter,./Images/typewriter/e2_s2.jpg,1,1,3383.80000001192,2,2
28,228,mustard,./Images/mustard/e2_s1.jpg,1,2,4457.40000000596,2,1
28,228,mustard,./Images/mustard/e1_s2.jpg,1,2,4457.40000000596,1,2
28,229,bottle_liquid,./Images/bottle_liquid/e1_s1.jpg,0,1,4415.30000001192,1,1
28,229,bottle_liquid,./Images/bottle_liquid/e2_s1.jpg,1,1,4415.30000001192,2,1
28,230,lotion,./Images/lotion/e1_s2.jpg,1,1,5002.39999997616,1,2
28,230,lotion,./Images/lotion/e2_s1.jpg,0,1,5002.39999997616,2,1
28,231,chair_recliner,./Images/chair_recliner/e1_s2.jpg,1,2,3090.5,1,2
28,231,chair_recliner,./Images/chair_recliner/e2_s1.jpg,1,2,3090.5,2,1
28,232,peanut_butter,./Images/peanut_butter/e2_s2.jpg,1,1,4037.70000001788,2,2
28,232,peanut_butter,./Images/peanut_butter/e1_s1.jpg,0,1,4037.70000001788,1,1
28,233,drink,./Images/drink/e2_s2.jpg,1,1,10549.7000000179,2,2
28,233,drink,./Images/drink/e1_s1.jpg,0,1,10549.7000000179,1,1
28,234,tricycle,./Images/tricycle/e2_s1.jpg,1,2,8742.09999999404,2,1
28,234,tricycle,./Images/tricycle/e1_s2.jpg,1,2,8742.09999999404,1,2
28,235,lottery_ticket,./Images/lottery_ticket/e2_s2.jpg,1,2,6509.40000000596,2,2
28,235,lottery_ticket,./Images/lottery_ticket/e1_s2.jpg,1,2,6509.40000000596,1,2
28,236,tea_pot,./Images/tea_pot/e2_s2.jpg,0,1,4187.40000000596,2,2
28,236,tea_pot,./Images/tea_pot/e1_s1.jpg,1,1,4187.40000000596,1,1
28,237,cardbox,./Images/cardbox/e2_s2.jpg,1,2,5727.09999999404,2,2
28,237,cardbox,./Images/cardbox/e1_s1.jpg,1,2,5727.09999999404,1,1
28,238,file_folder,./Images/file_folder/e2_s2.jpg,1,2,10937,2,2
28,238,file_folder,./Images/file_folder/e1_s1.jpg,1,2,10937,1,1
28,239,glass_orange,./Images/glass_orange/e1_s2.jpg,1,1,5427.59999999404,1,2
28,239,glass_orange,./Images/glass_orange/e2_s2.jpg,0,1,5427.59999999404,2,2
28,240,backpack,./Images/backpack/e2_s1.jpg,1,2,3355.09999999404,2,1
28,240,backpack,./Images/backpack/e1_s1.jpg,1,2,3355.09999999404,1,1
28,241,flask,./Images/flask/e2_s1.jpg,1,2,4444.5,2,1
28,241,flask,./Images/flask/e1_s1.jpg,1,2,4444.5,1,1
28,242,pie,./Images/pie/e2_s1.jpg,1,2,5082.5,2,1
28,242,pie,./Images/pie/e1_s2.jpg,1,2,5082.5,1,2
28,243,lemon,./Images/lemon/e1_s2.jpg,1,2,3792.90000000596,1,2
28,243,lemon,./Images/lemon/e2_s2.jpg,1,2,3792.90000000596,2,2
28,244,tissues,./Images/tissues/e1_s1.jpg,1,2,3882.80000001192,1,1
28,244,tissues,./Images/tissues/e2_s1.jpg,1,2,3882.80000001192,2,1
28,245,poker_chips,./Images/poker_chips/e1_s2.jpg,1,2,3146.79999998212,1,2
28,245,poker_chips,./Images/poker_chips/e2_s1.jpg,1,2,3146.79999998212,2,1
28,246,chips,./Images/chips/e2_s1.jpg,1,1,4409.09999999404,2,1
28,246,chips,./Images/chips/e1_s2.jpg,0,1,4409.09999999404,1,2
28,247,plastic_bottle,./Images/plastic_bottle/e1_s1.jpg,0,0,10152.400000006,1,1
28,247,plastic_bottle,./Images/plastic_bottle/e2_s1.jpg,0,0,10152.400000006,2,1
28,248,apple,./Images/apple/e2_s1.jpg,1,2,4810.5,2,1
28,248,apple,./Images/apple/e1_s2.jpg,1,2,4810.5,1,2
28,249,cereal,./Images/cereal/e2_s2.jpg,1,1,6259.70000001788,2,2
28,249,cereal,./Images/cereal/e1_s1.jpg,0,1,6259.70000001788,1,1
28,250,metronome,./Images/metronome/e1_s1.jpg,1,2,4644.5,1,1
28,250,metronome,./Images/metronome/e2_s1.jpg,1,2,4644.5,2,1
28,251,file_box,./Images/file_box/e1_s1.jpg,1,2,9296.09999999404,1,1
28,251,file_box,./Images/file_box/e2_s1.jpg,1,2,9296.09999999404,2,1
28,252,chapstick,./Images/chapstick/e2_s1.jpg,0,1,3530,2,1
28,252,chapstick,./Images/chapstick/e1_s2.jpg,1,1,3530,1,2
28,253,toilet,./Images/toilet/e2_s1.jpg,1,1,12250.099999994,2,1
28,253,toilet,./Images/toilet/e1_s1.jpg,0,1,12250.099999994,1,1
28,254,aabacus,./Images/aabacus/e2_s1.jpg,1,1,13121.400000006,2,1
28,254,aabacus,./Images/aabacus/e1_s2.jpg,0,1,13121.400000006,1,2
28,255,gummy,./Images/gummy/e1_s2.jpg,1,1,7262.19999998808,1,2
28,255,gummy,./Images/gummy/e2_s1.jpg,0,1,7262.19999998808,2,1
28,256,usb_key,./Images/usb_key/e2_s2.jpg,1,2,7019.5,2,2
28,256,usb_key,./Images/usb_key/e1_s2.jpg,1,2,7019.5,1,2
28,257,tool_box,./Images/tool_box/e1_s2.jpg,0,0,8884.89999997616,1,2
28,257,tool_box,./Images/tool_box/e2_s2.jpg,0,0,8884.89999997616,2,2
28,258,tape_dispenser,./Images/tape_dispenser/e1_s2.jpg,0,0,9029.09999999404,1,2
28,258,tape_dispenser,./Images/tape_dispenser/e2_s2.jpg,0,0,9029.09999999404,2,2
28,259,hand_puppet,./Images/hand_puppet/e2_s1.jpg,1,2,3731.30000001192,2,1
28,259,hand_puppet,./Images/hand_puppet/e1_s2.jpg,1,2,3731.30000001192,1,2
28,260,cooking_pot,./Images/cooking_pot/e1_s2.jpg,0,0,5972.5,1,2
28,260,cooking_pot,./Images/cooking_pot/e2_s1.jpg,0,0,5972.5,2,1
28,261,baseball_glove,./Images/baseball_glove/e1_s2.jpg,1,2,2958.60000002384,1,2
28,261,baseball_glove,./Images/baseball_glove/e2_s2.jpg,1,2,2958.60000002384,2,2
28,262,keys,./Images/keys/e2_s2.jpg,0,1,4922.59999999404,2,2
28,262,keys,./Images/keys/e1_s1.jpg,1,1,4922.59999999404,1,1
28,263,small_box,./Images/small_box/e1_s2.jpg,1,2,7444.69999998808,1,2
28,263,small_box,./Images/small_box/e2_s1.jpg,1,2,7444.69999998808,2,1
28,264,phone,./Images/phone/e1_s1.jpg,1,2,3864.5,1,1
28,264,phone,./Images/phone/e2_s1.jpg,1,2,3864.5,2,1
28,265,oj,./Images/oj/e1_s1.jpg,1,2,8375,1,1
28,265,oj,./Images/oj/e2_s1.jpg,1,2,8375,2,1
28,266,laptop,./Images/laptop/e2_s1.jpg,1,1,5650.70000001788,2,1
28,266,laptop,./Images/laptop/e1_s1.jpg,0,1,5650.70000001788,1,1
28,267,clocks,./Images/clocks/e1_s2.jpg,1,2,3961.09999999404,1,2
28,267,clocks,./Images/clocks/e2_s2.jpg,1,2,3961.09999999404,2,2
28,268,wallet,./Images/wallet/e1_s2.jpg,1,2,2830.29999998212,1,2
28,268,wallet,./Images/wallet/e2_s2.jpg,1,2,2830.29999998212,2,2
28,269,reeses,./Images/reeses/e1_s1.jpg,1,2,3999.19999998808,1,1
28,269,reeses,./Images/reeses/e2_s2.jpg,1,2,3999.19999998808,2,2
28,270,tictac,./Images/tictac/e2_s1.jpg,0,1,6280.09999999404,2,1
28,270,tictac,./Images/tictac/e1_s1.jpg,1,1,6280.09999999404,1,1
28,271,gift_box,./Images/gift_box/e2_s2.jpg,1,2,4051.80000001192,2,2
28,271,gift_box,./Images/gift_box/e1_s1.jpg,1,2,4051.80000001192,1,1
28,272,donut,./Images/donut/e1_s2.jpg,1,1,5030.59999999404,1,2
28,272,donut,./Images/donut/e2_s1.jpg,0,1,5030.59999999404,2,1
28,273,menorah,./Images/menorah/e1_s2.jpg,1,2,4794.5,1,2
28,273,menorah,./Images/menorah/e2_s1.jpg,1,2,4794.5,2,1
28,274,corkscrew,./Images/corkscrew/e2_s1.jpg,1,2,10593,2,1
28,274,corkscrew,./Images/corkscrew/e1_s1.jpg,1,2,10593,1,1
28,275,theater_seats,./Images/theater_seats/e1_s1.jpg,1,2,2642.59999999404,1,1
28,275,theater_seats,./Images/theater_seats/e2_s2.jpg,1,2,2642.59999999404,2,2
28,276,sugar_bowl,./Images/sugar_bowl/e1_s2.jpg,0,1,5945.60000002384,1,2
28,276,sugar_bowl,./Images/sugar_bowl/e2_s2.jpg,1,1,5945.60000002384,2,2
28,277,book_object,./Images/book_object/e2_s1.jpg,1,2,5197.90000000596,2,1
28,277,book_object,./Images/book_object/e1_s1.jpg,1,2,5197.90000000596,1,1
28,278,paper_cup,./Images/paper_cup/e1_s1.jpg,0,1,4932.69999998808,1,1
28,278,paper_cup,./Images/paper_cup/e2_s1.jpg,1,1,4932.69999998808,2,1
28,279,coffeemug,./Images/coffeemug/e2_s1.jpg,1,2,5841.09999999404,2,1
28,279,coffeemug,./Images/coffeemug/e1_s1.jpg,1,2,5841.09999999404,1,1
28,280,kettle,./Images/kettle/e1_s1.jpg,1,2,5883.19999998808,1,1
28,280,kettle,./Images/kettle/e2_s1.jpg,1,2,5883.19999998808,2,1
28,281,cabbage,./Images/cabbage/e2_s2.jpg,1,2,1952.30000001192,2,2
28,281,cabbage,./Images/cabbage/e1_s2.jpg,1,2,1952.30000001192,1,2
28,282,pail,./Images/pail/e1_s1.jpg,0,1,7516.10000002384,1,1
28,282,pail,./Images/pail/e2_s2.jpg,1,1,7516.10000002384,2,2
28,283,mailbox,./Images/mailbox/e2_s2.jpg,0,1,6354.39999997616,2,2
28,283,mailbox,./Images/mailbox/e1_s1.jpg,1,1,6354.39999997616,1,1
28,284,altoid,./Images/altoid/e1_s1.jpg,1,2,3668.69999998808,1,1
28,284,altoid,./Images/altoid/e2_s2.jpg,1,2,3668.69999998808,2,2
28,285,cabinet,./Images/cabinet/e2_s1.jpg,0,0,6313.89999997616,2,1
28,285,cabinet,./Images/cabinet/e1_s2.jpg,0,0,6313.89999997616,1,2
28,286,soap,./Images/soap/e1_s1.jpg,1,2,4901.5,1,1
28,286,soap,./Images/soap/e2_s2.jpg,1,2,4901.5,2,2
28,287,bottle_perfume,./Images/bottle_perfume/e1_s1.jpg,1,2,2960.20000001788,1,1
28,287,bottle_perfume,./Images/bottle_perfume/e2_s2.jpg,1,2,2960.20000001788,2,2
28,288,leather_bag,./Images/leather_bag/e1_s1.jpg,1,2,2670.30000001192,1,1
28,288,leather_bag,./Images/leather_bag/e2_s1.jpg,1,2,2670.30000001192,2,1
28,289,shoe,./Images/shoe/e1_s1.jpg,1,1,4736.10000002384,1,1
28,289,shoe,./Images/shoe/e2_s2.jpg,0,1,4736.10000002384,2,2
