participant,trial_index,category,chosen_img,correct,tot_correct,rt_last,exemplar,chosen_state
53,206,locks,./Images/locks/e1_s2.jpg,0,1,43823,1,2
53,206,locks,./Images/locks/e2_s2.jpg,1,1,43823,2,2
53,207,lunchbox,./Images/lunchbox/e2_s2.jpg,1,1,6870,2,2
53,207,lunchbox,./Images/lunchbox/e1_s1.jpg,0,1,6870,1,1
53,208,mustard,./Images/mustard/e1_s1.jpg,0,0,4701,1,1
53,208,mustard,./Images/mustard/e2_s1.jpg,0,0,4701,2,1
53,209,cooking_pot,./Images/cooking_pot/e1_s2.jpg,1,1,5876,1,2
53,209,cooking_pot,./Images/cooking_pot/e2_s1.jpg,0,1,5876,2,1
53,210,coffeemug,./Images/coffeemug/e1_s2.jpg,1,1,3093,1,2
53,210,coffeemug,./Images/coffeemug/e2_s2.jpg,0,1,3093,2,2
53,211,paper_cup,./Images/paper_cup/e1_s2.jpg,1,2,5700,1,2
53,211,paper_cup,./Images/paper_cup/e2_s2.jpg,1,2,5700,2,2
53,212,soap,./Images/soap/e1_s1.jpg,1,2,5550,1,1
53,212,soap,./Images/soap/e2_s1.jpg,1,2,5550,2,1
53,213,chip,./Images/chip/e1_s1.jpg,1,1,6099,1,1
53,213,chip,./Images/chip/e2_s2.jpg,0,1,6099,2,2
53,214,poker_chips,./Images/poker_chips/e1_s2.jpg,1,1,4443,1,2
53,214,poker_chips,./Images/poker_chips/e2_s1.jpg,0,1,4443,2,1
53,215,lemon,./Images/lemon/e1_s1.jpg,1,1,11749,1,1
53,215,lemon,./Images/lemon/e2_s1.jpg,0,1,11749,2,1
53,216,drink,./Images/drink/e2_s1.jpg,1,2,4742,2,1
53,216,drink,./Images/drink/e1_s1.jpg,1,2,4742,1,1
53,217,tape_dispenser,./Images/tape_dispenser/e2_s2.jpg,0,1,3249,2,2
53,217,tape_dispenser,./Images/tape_dispenser/e1_s2.jpg,1,1,3249,1,2
53,218,microwave,./Images/microwave/e2_s2.jpg,0,1,3379,2,2
53,218,microwave,./Images/microwave/e1_s2.jpg,1,1,3379,1,2
53,219,fridge,./Images/fridge/e2_s2.jpg,0,0,2903,2,2
53,219,fridge,./Images/fridge/e1_s2.jpg,0,0,2903,1,2
53,220,dryer,./Images/dryer/e2_s2.jpg,1,2,2918,2,2
53,220,dryer,./Images/dryer/e1_s2.jpg,1,2,2918,1,2
53,221,yarn,./Images/yarn/e2_s2.jpg,0,1,3198,2,2
53,221,yarn,./Images/yarn/e1_s1.jpg,1,1,3198,1,1
53,222,usb_key,./Images/usb_key/e2_s1.jpg,0,0,2943,2,1
53,222,usb_key,./Images/usb_key/e1_s1.jpg,0,0,2943,1,1
53,223,umbrella,./Images/umbrella/e1_s2.jpg,1,1,2616,1,2
53,223,umbrella,./Images/umbrella/e2_s2.jpg,0,1,2616,2,2
53,224,oj,./Images/oj/e2_s1.jpg,1,2,2119,2,1
53,224,oj,./Images/oj/e1_s2.jpg,1,2,2119,1,2
53,225,clocks,./Images/clocks/e1_s1.jpg,1,2,1928,1,1
53,225,clocks,./Images/clocks/e2_s2.jpg,1,2,1928,2,2
53,226,coins,./Images/coins/e1_s2.jpg,1,2,1956,1,2
53,226,coins,./Images/coins/e2_s1.jpg,1,2,1956,2,1
53,227,sugar_bowl,./Images/sugar_bowl/e2_s1.jpg,1,2,5144,2,1
53,227,sugar_bowl,./Images/sugar_bowl/e1_s2.jpg,1,2,5144,1,2
53,228,corkscrew,./Images/corkscrew/e2_s2.jpg,0,1,2918,2,2
53,228,corkscrew,./Images/corkscrew/e1_s1.jpg,1,1,2918,1,1
53,229,tictac,./Images/tictac/e2_s1.jpg,1,1,2616,2,1
53,229,tictac,./Images/tictac/e1_s2.jpg,0,1,2616,1,2
53,230,headphone_small,./Images/headphone_small/e2_s2.jpg,0,0,2713,2,2
53,230,headphone_small,./Images/headphone_small/e1_s2.jpg,0,0,2713,1,2
53,231,cardbox,./Images/cardbox/e2_s1.jpg,1,1,2283,2,1
53,231,cardbox,./Images/cardbox/e1_s1.jpg,0,1,2283,1,1
53,232,donut,./Images/donut/e1_s2.jpg,1,1,2526,1,2
53,232,donut,./Images/donut/e2_s2.jpg,0,1,2526,2,2
53,233,phone_antique,./Images/phone_antique/e2_s1.jpg,0,0,2131,2,1
53,233,phone_antique,./Images/phone_antique/e1_s1.jpg,0,0,2131,1,1
53,234,gummy,./Images/gummy/e1_s1.jpg,1,2,2935,1,1
53,234,gummy,./Images/gummy/e2_s2.jpg,1,2,2935,2,2
53,235,wallet,./Images/wallet/e1_s2.jpg,1,2,2889,1,2
53,235,wallet,./Images/wallet/e2_s2.jpg,1,2,2889,2,2
53,236,lotion,./Images/lotion/e2_s2.jpg,1,2,9440,2,2
53,236,lotion,./Images/lotion/e1_s2.jpg,1,2,9440,1,2
53,237,file_box,./Images/file_box/e2_s2.jpg,0,0,2922,2,2
53,237,file_box,./Images/file_box/e1_s2.jpg,0,0,2922,1,2
53,238,tea_pot,./Images/tea_pot/e2_s2.jpg,1,2,2733,2,2
53,238,tea_pot,./Images/tea_pot/e1_s2.jpg,1,2,2733,1,2
53,239,gift_box,./Images/gift_box/e1_s2.jpg,1,2,2814,1,2
53,239,gift_box,./Images/gift_box/e2_s2.jpg,1,2,2814,2,2
53,240,flask,./Images/flask/e2_s2.jpg,1,2,4253,2,2
53,240,flask,./Images/flask/e1_s2.jpg,1,2,4253,1,2
53,241,lottery_ticket,./Images/lottery_ticket/e2_s2.jpg,0,1,2397,2,2
53,241,lottery_ticket,./Images/lottery_ticket/e1_s2.jpg,1,1,2397,1,2
53,242,dresser,./Images/dresser/e1_s1.jpg,1,2,2259,1,1
53,242,dresser,./Images/dresser/e2_s2.jpg,1,2,2259,2,2
53,243,shoe,./Images/shoe/e1_s2.jpg,1,2,2226,1,2
53,243,shoe,./Images/shoe/e2_s1.jpg,1,2,2226,2,1
53,244,hand_puppet,./Images/hand_puppet/e2_s2.jpg,1,1,2150,2,2
53,244,hand_puppet,./Images/hand_puppet/e1_s2.jpg,0,1,2150,1,2
53,245,chapstick,./Images/chapstick/e2_s1.jpg,1,2,2266,2,1
53,245,chapstick,./Images/chapstick/e1_s1.jpg,1,2,2266,1,1
53,246,glass_orange,./Images/glass_orange/e1_s2.jpg,0,1,2205,1,2
53,246,glass_orange,./Images/glass_orange/e2_s2.jpg,1,1,2205,2,2
53,247,scanner,./Images/scanner/e2_s1.jpg,1,1,2018,2,1
53,247,scanner,./Images/scanner/e1_s2.jpg,0,1,2018,1,2
53,248,sharpie_pens,./Images/sharpie_pens/e2_s1.jpg,0,1,1911,2,1
53,248,sharpie_pens,./Images/sharpie_pens/e1_s1.jpg,1,1,1911,1,1
53,249,chips,./Images/chips/e2_s1.jpg,0,1,2917,2,1
53,249,chips,./Images/chips/e1_s1.jpg,1,1,2917,1,1
53,250,bills,./Images/bills/e2_s1.jpg,1,2,3299,2,1
53,250,bills,./Images/bills/e1_s1.jpg,1,2,3299,1,1
53,251,hourglass,./Images/hourglass/e2_s1.jpg,0,1,2385,2,1
53,251,hourglass,./Images/hourglass/e1_s1.jpg,1,1,2385,1,1
53,252,peanut_butter,./Images/peanut_butter/e2_s1.jpg,1,2,1890,2,1
53,252,peanut_butter,./Images/peanut_butter/e1_s2.jpg,1,2,1890,1,2
53,253,sugar_paper,./Images/sugar_paper/e2_s2.jpg,0,0,1652,2,2
53,253,sugar_paper,./Images/sugar_paper/e1_s2.jpg,0,0,1652,1,2
53,254,baseball_glove,./Images/baseball_glove/e1_s1.jpg,0,1,1890,1,1
53,254,baseball_glove,./Images/baseball_glove/e2_s2.jpg,1,1,1890,2,2
53,255,breadbox,./Images/breadbox/e1_s1.jpg,0,1,2379,1,1
53,255,breadbox,./Images/breadbox/e2_s1.jpg,1,1,2379,2,1
53,256,pen,./Images/pen/e2_s1.jpg,1,1,2465,2,1
53,256,pen,./Images/pen/e1_s1.jpg,0,1,2465,1,1
53,257,pail,./Images/pail/e2_s2.jpg,1,1,1903,2,2
53,257,pail,./Images/pail/e1_s1.jpg,0,1,1903,1,1
53,258,book,./Images/book/e1_s1.jpg,1,1,38891,1,1
53,258,book,./Images/book/e2_s1.jpg,0,1,38891,2,1
53,259,book_object,./Images/book_object/e2_s2.jpg,0,1,2185,2,2
53,259,book_object,./Images/book_object/e1_s1.jpg,1,1,2185,1,1
53,260,tool_box,./Images/tool_box/e2_s1.jpg,1,2,1537,2,1
53,260,tool_box,./Images/tool_box/e1_s2.jpg,1,2,1537,1,2
53,261,chair_recliner,./Images/chair_recliner/e1_s2.jpg,0,0,1561,1,2
53,261,chair_recliner,./Images/chair_recliner/e2_s1.jpg,0,0,1561,2,1
53,262,scissors,./Images/scissors/e2_s2.jpg,1,2,3093,2,2
53,262,scissors,./Images/scissors/e1_s1.jpg,1,2,3093,1,1
53,263,theater_seats,./Images/theater_seats/e1_s1.jpg,0,0,1850,1,1
53,263,theater_seats,./Images/theater_seats/e2_s2.jpg,0,0,1850,2,2
53,264,canopener,./Images/canopener/e2_s1.jpg,1,1,2013,2,1
53,264,canopener,./Images/canopener/e1_s1.jpg,0,1,2013,1,1
53,265,apple,./Images/apple/e1_s2.jpg,1,2,1765,1,2
53,265,apple,./Images/apple/e2_s1.jpg,1,2,1765,2,1
53,266,accordion,./Images/accordion/e2_s2.jpg,0,1,2885,2,2
53,266,accordion,./Images/accordion/e1_s2.jpg,1,1,2885,1,2
53,267,cell,./Images/cell/e1_s2.jpg,1,1,4125,1,2
53,267,cell,./Images/cell/e2_s2.jpg,0,1,4125,2,2
53,268,laptop,./Images/laptop/e2_s2.jpg,1,2,1801,2,2
53,268,laptop,./Images/laptop/e1_s1.jpg,1,2,1801,1,1
53,269,file_folder,./Images/file_folder/e2_s2.jpg,1,2,1895,2,2
53,269,file_folder,./Images/file_folder/e1_s1.jpg,1,2,1895,1,1
53,270,typewriter,./Images/typewriter/e1_s1.jpg,0,1,1679,1,1
53,270,typewriter,./Images/typewriter/e2_s1.jpg,1,1,1679,2,1
53,271,chocolate_bar,./Images/chocolate_bar/e1_s1.jpg,1,2,1719,1,1
53,271,chocolate_bar,./Images/chocolate_bar/e2_s1.jpg,1,2,1719,2,1
53,272,menorah,./Images/menorah/e1_s2.jpg,0,0,18841,1,2
53,272,menorah,./Images/menorah/e2_s2.jpg,0,0,18841,2,2
53,273,cabinet,./Images/cabinet/e2_s2.jpg,1,1,2145,2,2
53,273,cabinet,./Images/cabinet/e1_s1.jpg,0,1,2145,1,1
53,274,toy_truck,./Images/toy_truck/e1_s1.jpg,0,1,3495,1,1
53,274,toy_truck,./Images/toy_truck/e2_s2.jpg,1,1,3495,2,2
53,275,backpack,./Images/backpack/e2_s1.jpg,1,1,1639,2,1
53,275,backpack,./Images/backpack/e1_s1.jpg,0,1,1639,1,1
53,276,cereal,./Images/cereal/e2_s2.jpg,0,0,1808,2,2
53,276,cereal,./Images/cereal/e1_s2.jpg,0,0,1808,1,2
53,277,reeses,./Images/reeses/e2_s2.jpg,1,1,1637,2,2
53,277,reeses,./Images/reeses/e1_s2.jpg,0,1,1637,1,2
53,278,phone,./Images/phone/e1_s1.jpg,1,2,1609,1,1
53,278,phone,./Images/phone/e2_s2.jpg,1,2,1609,2,2
53,279,watch,./Images/watch/e1_s2.jpg,0,1,1502,1,2
53,279,watch,./Images/watch/e2_s2.jpg,1,1,1502,2,2
53,280,aabacus,./Images/aabacus/e2_s1.jpg,1,2,1839,2,1
53,280,aabacus,./Images/aabacus/e1_s1.jpg,1,2,1839,1,1
53,281,bottle_perfume,./Images/bottle_perfume/e2_s2.jpg,1,1,1694,2,2
53,281,bottle_perfume,./Images/bottle_perfume/e1_s1.jpg,0,1,1694,1,1
53,282,cookie,./Images/cookie/e2_s1.jpg,1,1,1939,2,1
53,282,cookie,./Images/cookie/e1_s2.jpg,0,1,1939,1,2
53,283,tissues,./Images/tissues/e1_s1.jpg,1,2,1573,1,1
53,283,tissues,./Images/tissues/e2_s2.jpg,1,2,1573,2,2
53,284,car,./Images/car/e1_s2.jpg,0,0,1732,1,2
53,284,car,./Images/car/e2_s2.jpg,0,0,1732,2,2
53,285,toilet,./Images/toilet/e2_s1.jpg,1,1,1627,2,1
53,285,toilet,./Images/toilet/e1_s2.jpg,0,1,1627,1,2
53,286,mailbox,./Images/mailbox/e1_s2.jpg,0,0,2276,1,2
53,286,mailbox,./Images/mailbox/e2_s2.jpg,0,0,2276,2,2
53,287,small_box,./Images/small_box/e2_s1.jpg,1,2,1838,2,1
53,287,small_box,./Images/small_box/e1_s1.jpg,1,2,1838,1,1
53,288,leather_bag,./Images/leather_bag/e2_s2.jpg,0,0,1683,2,2
53,288,leather_bag,./Images/leather_bag/e1_s2.jpg,0,0,1683,1,2
53,289,cabbage,./Images/cabbage/e2_s2.jpg,1,2,2065,2,2
53,289,cabbage,./Images/cabbage/e1_s2.jpg,1,2,2065,1,2
53,290,tricycle,./Images/tricycle/e1_s2.jpg,0,0,1605,1,2
53,290,tricycle,./Images/tricycle/e2_s1.jpg,0,0,1605,2,1
53,291,chocolate,./Images/chocolate/e1_s2.jpg,0,0,1533,1,2
53,291,chocolate,./Images/chocolate/e2_s1.jpg,0,0,1533,2,1
53,292,menus,./Images/menus/e2_s2.jpg,0,1,1774,2,2
53,292,menus,./Images/menus/e1_s2.jpg,1,1,1774,1,2
53,293,keys,./Images/keys/e1_s1.jpg,0,1,1684,1,1
53,293,keys,./Images/keys/e2_s1.jpg,1,1,1684,2,1
53,294,altoid,./Images/altoid/e1_s2.jpg,1,2,1732,1,2
53,294,altoid,./Images/altoid/e2_s2.jpg,1,2,1732,2,2
53,295,sponge,./Images/sponge/e2_s1.jpg,1,1,1685,2,1
53,295,sponge,./Images/sponge/e1_s2.jpg,0,1,1685,1,2
53,296,kettle,./Images/kettle/e1_s2.jpg,0,0,1764,1,2
53,296,kettle,./Images/kettle/e2_s1.jpg,0,0,1764,2,1
53,297,garlic_press,./Images/garlic_press/e1_s1.jpg,0,1,1985,1,1
53,297,garlic_press,./Images/garlic_press/e2_s2.jpg,1,1,1985,2,2
53,298,cocktail_umbrella,./Images/cocktail_umbrella/e1_s1.jpg,1,2,1624,1,1
53,298,cocktail_umbrella,./Images/cocktail_umbrella/e2_s2.jpg,1,2,1624,2,2
53,299,pie,./Images/pie/e2_s1.jpg,0,0,1632,2,1
53,299,pie,./Images/pie/e1_s2.jpg,0,0,1632,1,2
53,300,bottle_liquid,./Images/bottle_liquid/e2_s1.jpg,0,0,1605,2,1
53,300,bottle_liquid,./Images/bottle_liquid/e1_s1.jpg,0,0,1605,1,1
53,301,container_open,./Images/container_open/e2_s2.jpg,0,1,1553,2,2
53,301,container_open,./Images/container_open/e1_s1.jpg,1,1,1553,1,1
53,302,metronome,./Images/metronome/e1_s2.jpg,0,0,1600,1,2
53,302,metronome,./Images/metronome/e2_s1.jpg,0,0,1600,2,1
53,303,mixer,./Images/mixer/e1_s1.jpg,0,1,1482,1,1
53,303,mixer,./Images/mixer/e2_s2.jpg,1,1,1482,2,2
53,304,notebook,./Images/notebook/e1_s2.jpg,0,0,1675,1,2
53,304,notebook,./Images/notebook/e2_s1.jpg,0,0,1675,2,1
53,305,plastic_bottle,./Images/plastic_bottle/e2_s2.jpg,0,0,1433,2,2
53,305,plastic_bottle,./Images/plastic_bottle/e1_s2.jpg,0,0,1433,1,2
44,206,book,./Images/book/e2_s2.jpg,0,1,8470.29999999702,2,2
44,206,book,./Images/book/e1_s2.jpg,1,1,8470.29999999702,1,2
44,207,chips,./Images/chips/e1_s1.jpg,1,2,4330,1,1
44,207,chips,./Images/chips/e2_s1.jpg,1,2,4330,2,1
44,208,mustard,./Images/mustard/e1_s1.jpg,1,2,6013.5,1,1
44,208,mustard,./Images/mustard/e2_s1.jpg,1,2,6013.5,2,1
44,209,bottle_perfume,./Images/bottle_perfume/e1_s1.jpg,0,1,5430.30000001192,1,1
44,209,bottle_perfume,./Images/bottle_perfume/e2_s1.jpg,1,1,5430.30000001192,2,1
44,210,metronome,./Images/metronome/e1_s1.jpg,1,1,4980.59999999404,1,1
44,210,metronome,./Images/metronome/e2_s2.jpg,0,1,4980.59999999404,2,2
44,211,lottery_ticket,./Images/lottery_ticket/e2_s1.jpg,1,1,9247.09999999404,2,1
44,211,lottery_ticket,./Images/lottery_ticket/e1_s2.jpg,0,1,9247.09999999404,1,2
44,212,reeses,./Images/reeses/e1_s2.jpg,1,2,7613.5,1,2
44,212,reeses,./Images/reeses/e2_s2.jpg,1,2,7613.5,2,2
44,213,tricycle,./Images/tricycle/e1_s1.jpg,0,0,7347.70000000298,1,1
44,213,tricycle,./Images/tricycle/e2_s1.jpg,0,0,7347.70000000298,2,1
44,214,donut,./Images/donut/e1_s1.jpg,1,2,2247.70000000298,1,1
44,214,donut,./Images/donut/e2_s1.jpg,1,2,2247.70000000298,2,1
44,215,pie,./Images/pie/e1_s1.jpg,1,2,2530.20000000298,1,1
44,215,pie,./Images/pie/e2_s2.jpg,1,2,2530.20000000298,2,2
44,216,laptop,./Images/laptop/e2_s2.jpg,0,0,4646.70000000298,2,2
44,216,laptop,./Images/laptop/e1_s2.jpg,0,0,4646.70000000298,1,2
44,217,hourglass,./Images/hourglass/e1_s1.jpg,1,1,6113.29999999702,1,1
44,217,hourglass,./Images/hourglass/e2_s2.jpg,0,1,6113.29999999702,2,2
44,218,chip,./Images/chip/e1_s1.jpg,1,2,4546.70000000298,1,1
44,218,chip,./Images/chip/e2_s1.jpg,1,2,4546.70000000298,2,1
44,219,gift_box,./Images/gift_box/e1_s1.jpg,1,2,2480,1,1
44,219,gift_box,./Images/gift_box/e2_s1.jpg,1,2,2480,2,1
44,220,chocolate_bar,./Images/chocolate_bar/e2_s2.jpg,1,2,7363,2,2
44,220,chocolate_bar,./Images/chocolate_bar/e1_s1.jpg,1,2,7363,1,1
44,221,bills,./Images/bills/e1_s1.jpg,1,1,4130.30000001192,1,1
44,221,bills,./Images/bills/e2_s1.jpg,0,1,4130.30000001192,2,1
44,222,lunchbox,./Images/lunchbox/e2_s1.jpg,1,1,3630.10000000894,2,1
44,222,lunchbox,./Images/lunchbox/e1_s2.jpg,0,1,3630.10000000894,1,2
44,223,cardbox,./Images/cardbox/e1_s2.jpg,1,1,7396.69999998808,1,2
44,223,cardbox,./Images/cardbox/e2_s1.jpg,0,1,7396.69999998808,2,1
44,224,cookie,./Images/cookie/e2_s1.jpg,1,2,2746.39999999106,2,1
44,224,cookie,./Images/cookie/e1_s1.jpg,1,2,2746.39999999106,1,1
44,225,garlic_press,./Images/garlic_press/e2_s2.jpg,1,2,3063.20000000298,2,2
44,225,garlic_press,./Images/garlic_press/e1_s2.jpg,1,2,3063.20000000298,1,2
44,226,notebook,./Images/notebook/e2_s1.jpg,1,2,6846.39999999106,2,1
44,226,notebook,./Images/notebook/e1_s2.jpg,1,2,6846.39999999106,1,2
44,227,yarn,./Images/yarn/e1_s2.jpg,1,2,5863.80000001192,1,2
44,227,yarn,./Images/yarn/e2_s2.jpg,1,2,5863.80000001192,2,2
44,228,gummy,./Images/gummy/e1_s2.jpg,1,1,7213.20000000298,1,2
44,228,gummy,./Images/gummy/e2_s2.jpg,0,1,7213.20000000298,2,2
44,229,menus,./Images/menus/e2_s2.jpg,0,1,5030,2,2
44,229,menus,./Images/menus/e1_s1.jpg,1,1,5030,1,1
44,230,peanut_butter,./Images/peanut_butter/e1_s1.jpg,1,2,5380.70000000298,1,1
44,230,peanut_butter,./Images/peanut_butter/e2_s1.jpg,1,2,5380.70000000298,2,1
44,231,scissors,./Images/scissors/e2_s1.jpg,0,0,4763.20000000298,2,1
44,231,scissors,./Images/scissors/e1_s1.jpg,0,0,4763.20000000298,1,1
44,232,cabinet,./Images/cabinet/e2_s2.jpg,0,0,2780.70000000298,2,2
44,232,cabinet,./Images/cabinet/e1_s1.jpg,0,0,2780.70000000298,1,1
44,233,theater_seats,./Images/theater_seats/e2_s1.jpg,1,2,7530.59999999404,2,1
44,233,theater_seats,./Images/theater_seats/e1_s2.jpg,1,2,7530.59999999404,1,2
44,234,cabbage,./Images/cabbage/e2_s2.jpg,1,2,2063.40000000596,2,2
44,234,cabbage,./Images/cabbage/e1_s1.jpg,1,2,2063.40000000596,1,1
44,235,bottle_liquid,./Images/bottle_liquid/e2_s1.jpg,0,0,2547.30000001192,2,1
44,235,bottle_liquid,./Images/bottle_liquid/e1_s2.jpg,0,0,2547.30000001192,1,2
44,236,sharpie_pens,./Images/sharpie_pens/e1_s2.jpg,0,1,2047.20000000298,1,2
44,236,sharpie_pens,./Images/sharpie_pens/e2_s1.jpg,1,1,2047.20000000298,2,1
44,237,dryer,./Images/dryer/e2_s2.jpg,1,2,4246.5,2,2
44,237,dryer,./Images/dryer/e1_s1.jpg,1,2,4246.5,1,1
44,238,locks,./Images/locks/e1_s2.jpg,1,2,3980.5,1,2
44,238,locks,./Images/locks/e2_s2.jpg,1,2,3980.5,2,2
44,239,drink,./Images/drink/e2_s2.jpg,0,0,6763.70000000298,2,2
44,239,drink,./Images/drink/e1_s1.jpg,0,0,6763.70000000298,1,1
44,240,plastic_bottle,./Images/plastic_bottle/e2_s1.jpg,0,1,3263.90000000596,2,1
44,240,plastic_bottle,./Images/plastic_bottle/e1_s1.jpg,1,1,3263.90000000596,1,1
44,241,chocolate,./Images/chocolate/e1_s1.jpg,0,1,3963.19999998808,1,1
44,241,chocolate,./Images/chocolate/e2_s1.jpg,1,1,3963.19999998808,2,1
44,242,toilet,./Images/toilet/e1_s2.jpg,0,1,5030.29999999702,1,2
44,242,toilet,./Images/toilet/e2_s1.jpg,1,1,5030.29999999702,2,1
44,243,toy_truck,./Images/toy_truck/e2_s2.jpg,1,1,2413.20000000298,2,2
44,243,toy_truck,./Images/toy_truck/e1_s1.jpg,0,1,2413.20000000298,1,1
44,244,dresser,./Images/dresser/e2_s1.jpg,1,2,2979.90000000596,2,1
44,244,dresser,./Images/dresser/e1_s2.jpg,1,2,2979.90000000596,1,2
44,245,cell,./Images/cell/e2_s2.jpg,0,0,2480.20000000298,2,2
44,245,cell,./Images/cell/e1_s1.jpg,0,0,2480.20000000298,1,1
44,246,accordion,./Images/accordion/e2_s2.jpg,0,0,3313.70000000298,2,2
44,246,accordion,./Images/accordion/e1_s2.jpg,0,0,3313.70000000298,1,2
44,247,keys,./Images/keys/e2_s2.jpg,1,1,3181,2,2
44,247,keys,./Images/keys/e1_s1.jpg,0,1,3181,1,1
44,248,menorah,./Images/menorah/e2_s1.jpg,1,2,4330.40000000596,2,1
44,248,menorah,./Images/menorah/e1_s2.jpg,1,2,4330.40000000596,1,2
44,249,lotion,./Images/lotion/e2_s2.jpg,1,1,2496.79999999702,2,2
44,249,lotion,./Images/lotion/e1_s1.jpg,0,1,2496.79999999702,1,1
44,250,tool_box,./Images/tool_box/e2_s2.jpg,0,0,1929.90000000596,2,2
44,250,tool_box,./Images/tool_box/e1_s2.jpg,0,0,1929.90000000596,1,2
44,251,umbrella,./Images/umbrella/e1_s1.jpg,1,2,2930,1,1
44,251,umbrella,./Images/umbrella/e2_s1.jpg,1,2,2930,2,1
44,252,book_object,./Images/book_object/e2_s2.jpg,1,2,3629.90000000596,2,2
44,252,book_object,./Images/book_object/e1_s2.jpg,1,2,3629.90000000596,1,2
44,253,typewriter,./Images/typewriter/e2_s2.jpg,1,2,2513,2,2
44,253,typewriter,./Images/typewriter/e1_s1.jpg,1,2,2513,1,1
44,254,usb_key,./Images/usb_key/e2_s1.jpg,1,1,4647,2,1
44,254,usb_key,./Images/usb_key/e1_s2.jpg,0,1,4647,1,2
44,255,leather_bag,./Images/leather_bag/e2_s1.jpg,0,0,1746.70000000298,2,1
44,255,leather_bag,./Images/leather_bag/e1_s1.jpg,0,0,1746.70000000298,1,1
44,256,microwave,./Images/microwave/e1_s1.jpg,1,2,4130.29999999702,1,1
44,256,microwave,./Images/microwave/e2_s1.jpg,1,2,4130.29999999702,2,1
44,257,corkscrew,./Images/corkscrew/e2_s1.jpg,1,1,2863.20000000298,2,1
44,257,corkscrew,./Images/corkscrew/e1_s2.jpg,0,1,2863.20000000298,1,2
44,258,coffeemug,./Images/coffeemug/e2_s1.jpg,1,2,2563.39999999106,2,1
44,258,coffeemug,./Images/coffeemug/e1_s2.jpg,1,2,2563.39999999106,1,2
44,259,oj,./Images/oj/e2_s2.jpg,1,2,4379.90000000596,2,2
44,259,oj,./Images/oj/e1_s2.jpg,1,2,4379.90000000596,1,2
44,260,cocktail_umbrella,./Images/cocktail_umbrella/e1_s2.jpg,1,2,3380,1,2
44,260,cocktail_umbrella,./Images/cocktail_umbrella/e2_s1.jpg,1,2,3380,2,1
44,261,phone_antique,./Images/phone_antique/e1_s2.jpg,1,1,2047.09999999404,1,2
44,261,phone_antique,./Images/phone_antique/e2_s2.jpg,0,1,2047.09999999404,2,2
44,262,backpack,./Images/backpack/e2_s1.jpg,0,1,4413.5,2,1
44,262,backpack,./Images/backpack/e1_s1.jpg,1,1,4413.5,1,1
44,263,flask,./Images/flask/e1_s1.jpg,1,1,3047.20000000298,1,1
44,263,flask,./Images/flask/e2_s2.jpg,0,1,3047.20000000298,2,2
44,264,paper_cup,./Images/paper_cup/e1_s1.jpg,1,2,2046.80000001192,1,1
44,264,paper_cup,./Images/paper_cup/e2_s1.jpg,1,2,2046.80000001192,2,1
44,265,pail,./Images/pail/e1_s1.jpg,0,1,3347.5,1,1
44,265,pail,./Images/pail/e2_s1.jpg,1,1,3347.5,2,1
44,266,fridge,./Images/fridge/e2_s1.jpg,1,2,2130.19999998808,2,1
44,266,fridge,./Images/fridge/e1_s1.jpg,1,2,2130.19999998808,1,1
44,267,chapstick,./Images/chapstick/e2_s2.jpg,1,2,4480.10000000894,2,2
44,267,chapstick,./Images/chapstick/e1_s1.jpg,1,2,4480.10000000894,1,1
44,268,sugar_bowl,./Images/sugar_bowl/e1_s2.jpg,0,1,2230,1,2
44,268,sugar_bowl,./Images/sugar_bowl/e2_s1.jpg,1,1,2230,2,1
44,269,watch,./Images/watch/e2_s1.jpg,0,1,3379.79999999702,2,1
44,269,watch,./Images/watch/e1_s1.jpg,1,1,3379.79999999702,1,1
44,270,mixer,./Images/mixer/e1_s2.jpg,1,2,3830.80000001192,1,2
44,270,mixer,./Images/mixer/e2_s1.jpg,1,2,3830.80000001192,2,1
44,271,car,./Images/car/e2_s1.jpg,1,1,3779.90000000596,2,1
44,271,car,./Images/car/e1_s1.jpg,0,1,3779.90000000596,1,1
44,272,sponge,./Images/sponge/e1_s2.jpg,1,2,2930.40000000596,1,2
44,272,sponge,./Images/sponge/e2_s1.jpg,1,2,2930.40000000596,2,1
44,273,sugar_paper,./Images/sugar_paper/e2_s1.jpg,1,2,2563.60000000894,2,1
44,273,sugar_paper,./Images/sugar_paper/e1_s2.jpg,1,2,2563.60000000894,1,2
44,274,soap,./Images/soap/e2_s2.jpg,1,2,4563.59999999404,2,2
44,274,soap,./Images/soap/e1_s1.jpg,1,2,4563.59999999404,1,1
44,275,cooking_pot,./Images/cooking_pot/e1_s2.jpg,1,1,3147.20000000298,1,2
44,275,cooking_pot,./Images/cooking_pot/e2_s1.jpg,0,1,3147.20000000298,2,1
44,276,tictac,./Images/tictac/e2_s1.jpg,1,2,3880.19999998808,2,1
44,276,tictac,./Images/tictac/e1_s2.jpg,1,2,3880.19999998808,1,2
44,277,apple,./Images/apple/e1_s2.jpg,1,2,2013.79999999702,1,2
44,277,apple,./Images/apple/e2_s2.jpg,1,2,2013.79999999702,2,2
44,278,coins,./Images/coins/e2_s2.jpg,1,1,2464.20000000298,2,2
44,278,coins,./Images/coins/e1_s2.jpg,0,1,2464.20000000298,1,2
44,279,clocks,./Images/clocks/e2_s1.jpg,1,1,2879.10000000894,2,1
44,279,clocks,./Images/clocks/e1_s1.jpg,0,1,2879.10000000894,1,1
44,280,glass_orange,./Images/glass_orange/e1_s1.jpg,1,1,3298.10000000894,1,1
44,280,glass_orange,./Images/glass_orange/e2_s2.jpg,0,1,3298.10000000894,2,2
44,281,tissues,./Images/tissues/e2_s1.jpg,1,1,4746.40000000596,2,1
44,281,tissues,./Images/tissues/e1_s1.jpg,0,1,4746.40000000596,1,1
44,282,pen,./Images/pen/e1_s1.jpg,1,2,3715.5,1,1
44,282,pen,./Images/pen/e2_s2.jpg,1,2,3715.5,2,2
44,283,wallet,./Images/wallet/e1_s1.jpg,1,1,2580,1,1
44,283,wallet,./Images/wallet/e2_s2.jpg,0,1,2580,2,2
44,284,breadbox,./Images/breadbox/e2_s1.jpg,1,2,2630.60000000894,2,1
44,284,breadbox,./Images/breadbox/e1_s1.jpg,1,2,2630.60000000894,1,1
44,285,hand_puppet,./Images/hand_puppet/e1_s1.jpg,1,2,2097.5,1,1
44,285,hand_puppet,./Images/hand_puppet/e2_s1.jpg,1,2,2097.5,2,1
44,286,tape_dispenser,./Images/tape_dispenser/e1_s2.jpg,1,1,2331.09999999404,1,2
44,286,tape_dispenser,./Images/tape_dispenser/e2_s2.jpg,0,1,2331.09999999404,2,2
44,287,aabacus,./Images/aabacus/e2_s2.jpg,0,1,2915.10000000894,2,2
44,287,aabacus,./Images/aabacus/e1_s2.jpg,1,1,2915.10000000894,1,2
44,288,phone,./Images/phone/e2_s2.jpg,1,1,2231.59999999404,2,2
44,288,phone,./Images/phone/e1_s2.jpg,0,1,2231.59999999404,1,2
44,289,canopener,./Images/canopener/e1_s1.jpg,0,1,2962.79999999702,1,1
44,289,canopener,./Images/canopener/e2_s2.jpg,1,1,2962.79999999702,2,2
44,290,lemon,./Images/lemon/e1_s1.jpg,1,2,3014.90000000596,1,1
44,290,lemon,./Images/lemon/e2_s2.jpg,1,2,3014.90000000596,2,2
44,291,headphone_small,./Images/headphone_small/e1_s2.jpg,0,0,5798.30000001192,1,2
44,291,headphone_small,./Images/headphone_small/e2_s2.jpg,0,0,5798.30000001192,2,2
44,292,shoe,./Images/shoe/e2_s1.jpg,1,2,2681.09999999404,2,1
44,292,shoe,./Images/shoe/e1_s2.jpg,1,2,2681.09999999404,1,2
44,293,small_box,./Images/small_box/e2_s2.jpg,0,0,3812.5,2,2
44,293,small_box,./Images/small_box/e1_s1.jpg,0,0,3812.5,1,1
44,294,cereal,./Images/cereal/e2_s1.jpg,0,1,5515.59999999404,2,1
44,294,cereal,./Images/cereal/e1_s2.jpg,1,1,5515.59999999404,1,2
44,295,poker_chips,./Images/poker_chips/e1_s1.jpg,0,1,3330.40000000596,1,1
44,295,poker_chips,./Images/poker_chips/e2_s1.jpg,1,1,3330.40000000596,2,1
44,296,container_open,./Images/container_open/e1_s1.jpg,1,1,2330.5,1,1
44,296,container_open,./Images/container_open/e2_s2.jpg,0,1,2330.5,2,2
44,297,mailbox,./Images/mailbox/e2_s1.jpg,1,1,2630,2,1
44,297,mailbox,./Images/mailbox/e1_s1.jpg,0,1,2630,1,1
44,298,kettle,./Images/kettle/e1_s1.jpg,1,1,2213.29999999702,1,1
44,298,kettle,./Images/kettle/e2_s1.jpg,0,1,2213.29999999702,2,1
44,299,baseball_glove,./Images/baseball_glove/e1_s2.jpg,1,2,5313.20000000298,1,2
44,299,baseball_glove,./Images/baseball_glove/e2_s1.jpg,1,2,5313.20000000298,2,1
44,300,tea_pot,./Images/tea_pot/e1_s1.jpg,1,1,3096.90000000596,1,1
44,300,tea_pot,./Images/tea_pot/e2_s2.jpg,0,1,3096.90000000596,2,2
44,301,file_box,./Images/file_box/e2_s1.jpg,1,2,1746.70000000298,2,1
44,301,file_box,./Images/file_box/e1_s2.jpg,1,2,1746.70000000298,1,2
44,302,file_folder,./Images/file_folder/e2_s1.jpg,1,1,2762.89999999106,2,1
44,302,file_folder,./Images/file_folder/e1_s1.jpg,0,1,2762.89999999106,1,1
44,303,altoid,./Images/altoid/e1_s1.jpg,1,1,2063.5,1,1
44,303,altoid,./Images/altoid/e2_s1.jpg,0,1,2063.5,2,1
44,304,scanner,./Images/scanner/e1_s1.jpg,1,1,2496.79999999702,1,1
44,304,scanner,./Images/scanner/e2_s2.jpg,0,1,2496.79999999702,2,2
44,305,chair_recliner,./Images/chair_recliner/e2_s2.jpg,1,1,3213.30000001192,2,2
44,305,chair_recliner,./Images/chair_recliner/e1_s2.jpg,0,1,3213.30000001192,1,2
6,206,drink,./Images/drink/e2_s1.jpg,0,1,5524.70000004768,2,1
6,206,drink,./Images/drink/e1_s2.jpg,1,1,5524.70000004768,1,2
6,207,cell,./Images/cell/e2_s1.jpg,1,2,3197.79999995232,2,1
6,207,cell,./Images/cell/e1_s1.jpg,1,2,3197.79999995232,1,1
6,208,tricycle,./Images/tricycle/e2_s2.jpg,0,1,3180.70000004768,2,2
6,208,tricycle,./Images/tricycle/e1_s1.jpg,1,1,3180.70000004768,1,1
6,209,toilet,./Images/toilet/e1_s1.jpg,1,2,2797.09999990463,1,1
6,209,toilet,./Images/toilet/e2_s2.jpg,1,2,2797.09999990463,2,2
6,210,gift_box,./Images/gift_box/e2_s2.jpg,1,2,2698.80000019074,2,2
6,210,gift_box,./Images/gift_box/e1_s1.jpg,1,2,2698.80000019074,1,1
6,211,chocolate_bar,./Images/chocolate_bar/e2_s1.jpg,1,1,2663.29999995232,2,1
6,211,chocolate_bar,./Images/chocolate_bar/e1_s2.jpg,0,1,2663.29999995232,1,2
6,212,mailbox,./Images/mailbox/e2_s1.jpg,0,0,3980.20000004768,2,1
6,212,mailbox,./Images/mailbox/e1_s1.jpg,0,0,3980.20000004768,1,1
6,213,glass_orange,./Images/glass_orange/e1_s1.jpg,1,1,3298.20000004768,1,1
6,213,glass_orange,./Images/glass_orange/e2_s1.jpg,0,1,3298.20000004768,2,1
6,214,donut,./Images/donut/e2_s1.jpg,1,2,5480.90000009537,2,1
6,214,donut,./Images/donut/e1_s2.jpg,1,2,5480.90000009537,1,2
6,215,tissues,./Images/tissues/e2_s2.jpg,0,1,3297.5,2,2
6,215,tissues,./Images/tissues/e1_s1.jpg,1,1,3297.5,1,1
6,216,car,./Images/car/e1_s1.jpg,0,0,3498.20000004768,1,1
6,216,car,./Images/car/e2_s2.jpg,0,0,3498.20000004768,2,2
6,217,dryer,./Images/dryer/e1_s2.jpg,1,2,4313.89999985695,1,2
6,217,dryer,./Images/dryer/e2_s2.jpg,1,2,4313.89999985695,2,2
6,218,backpack,./Images/backpack/e2_s1.jpg,1,2,3514.5,2,1
6,218,backpack,./Images/backpack/e1_s2.jpg,1,2,3514.5,1,2
6,219,chocolate,./Images/chocolate/e1_s2.jpg,1,2,2613.90000009537,1,2
6,219,chocolate,./Images/chocolate/e2_s1.jpg,1,2,2613.90000009537,2,1
6,220,mixer,./Images/mixer/e2_s2.jpg,0,0,10447.5,2,2
6,220,mixer,./Images/mixer/e1_s1.jpg,0,0,10447.5,1,1
6,221,pie,./Images/pie/e2_s1.jpg,1,2,4481.09999990463,2,1
6,221,pie,./Images/pie/e1_s1.jpg,1,2,4481.09999990463,1,1
6,222,cocktail_umbrella,./Images/cocktail_umbrella/e1_s1.jpg,1,2,3030.30000019074,1,1
6,222,cocktail_umbrella,./Images/cocktail_umbrella/e2_s1.jpg,1,2,3030.30000019074,2,1
6,223,aabacus,./Images/aabacus/e1_s2.jpg,0,0,3314.59999990463,1,2
6,223,aabacus,./Images/aabacus/e2_s2.jpg,0,0,3314.59999990463,2,2
6,224,bottle_perfume,./Images/bottle_perfume/e1_s2.jpg,0,1,3597.39999985695,1,2
6,224,bottle_perfume,./Images/bottle_perfume/e2_s2.jpg,1,1,3597.39999985695,2,2
6,225,corkscrew,./Images/corkscrew/e1_s1.jpg,1,2,2747.59999990463,1,1
6,225,corkscrew,./Images/corkscrew/e2_s2.jpg,1,2,2747.59999990463,2,2
6,226,chips,./Images/chips/e1_s2.jpg,0,1,4330.39999985695,1,2
6,226,chips,./Images/chips/e2_s1.jpg,1,1,4330.39999985695,2,1
6,227,watch,./Images/watch/e2_s2.jpg,0,1,2247,2,2
6,227,watch,./Images/watch/e1_s1.jpg,1,1,2247,1,1
6,228,coffeemug,./Images/coffeemug/e2_s2.jpg,0,1,2048.20000004768,2,2
6,228,coffeemug,./Images/coffeemug/e1_s2.jpg,1,1,2048.20000004768,1,2
6,229,lunchbox,./Images/lunchbox/e1_s1.jpg,1,2,2530.10000014305,1,1
6,229,lunchbox,./Images/lunchbox/e2_s2.jpg,1,2,2530.10000014305,2,2
6,230,pail,./Images/pail/e1_s1.jpg,1,2,2129.60000014305,1,1
6,230,pail,./Images/pail/e2_s2.jpg,1,2,2129.60000014305,2,2
6,231,container_open,./Images/container_open/e2_s2.jpg,1,2,2447.70000004768,2,2
6,231,container_open,./Images/container_open/e1_s2.jpg,1,2,2447.70000004768,1,2
6,232,dresser,./Images/dresser/e1_s1.jpg,0,1,2230.20000004768,1,1
6,232,dresser,./Images/dresser/e2_s2.jpg,1,1,2230.20000004768,2,2
6,233,file_box,./Images/file_box/e2_s2.jpg,1,1,1698.29999995232,2,2
6,233,file_box,./Images/file_box/e1_s1.jpg,0,1,1698.29999995232,1,1
6,234,tape_dispenser,./Images/tape_dispenser/e2_s1.jpg,1,2,2063.59999990463,2,1
6,234,tape_dispenser,./Images/tape_dispenser/e1_s1.jpg,1,2,2063.59999990463,1,1
6,235,sharpie_pens,./Images/sharpie_pens/e1_s1.jpg,1,2,1714.5,1,1
6,235,sharpie_pens,./Images/sharpie_pens/e2_s1.jpg,1,2,1714.5,2,1
6,236,clocks,./Images/clocks/e1_s2.jpg,1,1,2513.30000019074,1,2
6,236,clocks,./Images/clocks/e2_s1.jpg,0,1,2513.30000019074,2,1
6,237,sugar_paper,./Images/sugar_paper/e1_s1.jpg,1,1,1997.5,1,1
6,237,sugar_paper,./Images/sugar_paper/e2_s2.jpg,0,1,1997.5,2,2
6,238,chair_recliner,./Images/chair_recliner/e2_s2.jpg,1,1,2547.70000004768,2,2
6,238,chair_recliner,./Images/chair_recliner/e1_s1.jpg,0,1,2547.70000004768,1,1
6,239,keys,./Images/keys/e1_s1.jpg,1,2,2246.20000004768,1,1
6,239,keys,./Images/keys/e2_s1.jpg,1,2,2246.20000004768,2,1
6,240,theater_seats,./Images/theater_seats/e1_s2.jpg,1,1,1915.09999990463,1,2
6,240,theater_seats,./Images/theater_seats/e2_s2.jpg,0,1,1915.09999990463,2,2
6,241,oj,./Images/oj/e2_s2.jpg,1,1,2797.29999995232,2,2
6,241,oj,./Images/oj/e1_s1.jpg,0,1,2797.29999995232,1,1
6,242,canopener,./Images/canopener/e1_s1.jpg,0,1,1945.79999995232,1,1
6,242,canopener,./Images/canopener/e2_s2.jpg,1,1,1945.79999995232,2,2
6,243,chapstick,./Images/chapstick/e1_s1.jpg,0,1,2413.80000019073,1,1
6,243,chapstick,./Images/chapstick/e2_s1.jpg,1,1,2413.80000019073,2,1
6,244,coins,./Images/coins/e2_s1.jpg,1,2,3246.80000019074,2,1
6,244,coins,./Images/coins/e1_s2.jpg,1,2,3246.80000019074,1,2
6,245,small_box,./Images/small_box/e2_s2.jpg,1,2,2847.20000004768,2,2
6,245,small_box,./Images/small_box/e1_s1.jpg,1,2,2847.20000004768,1,1
6,246,menorah,./Images/menorah/e1_s2.jpg,1,2,2631.5,1,2
6,246,menorah,./Images/menorah/e2_s1.jpg,1,2,2631.5,2,1
6,247,garlic_press,./Images/garlic_press/e1_s1.jpg,1,1,3181.10000014305,1,1
6,247,garlic_press,./Images/garlic_press/e2_s1.jpg,0,1,3181.10000014305,2,1
6,248,sponge,./Images/sponge/e1_s2.jpg,1,2,2265.20000004768,1,2
6,248,sponge,./Images/sponge/e2_s1.jpg,1,2,2265.20000004768,2,1
6,249,soap,./Images/soap/e2_s2.jpg,1,2,3063.20000004768,2,2
6,249,soap,./Images/soap/e1_s1.jpg,1,2,3063.20000004768,1,1
6,250,typewriter,./Images/typewriter/e1_s2.jpg,0,1,2130.5,1,2
6,250,typewriter,./Images/typewriter/e2_s2.jpg,1,1,2130.5,2,2
6,251,menus,./Images/menus/e2_s2.jpg,0,1,3597.5,2,2
6,251,menus,./Images/menus/e1_s1.jpg,1,1,3597.5,1,1
6,252,cooking_pot,./Images/cooking_pot/e1_s1.jpg,0,1,2513.79999995232,1,1
6,252,cooking_pot,./Images/cooking_pot/e2_s2.jpg,1,1,2513.79999995232,2,2
6,253,hourglass,./Images/hourglass/e2_s2.jpg,1,2,2313.90000009537,2,2
6,253,hourglass,./Images/hourglass/e1_s1.jpg,1,2,2313.90000009537,1,1
6,254,umbrella,./Images/umbrella/e2_s1.jpg,1,2,2481.20000004768,2,1
6,254,umbrella,./Images/umbrella/e1_s2.jpg,1,2,2481.20000004768,1,2
6,255,baseball_glove,./Images/baseball_glove/e1_s1.jpg,1,2,2947.10000014305,1,1
6,255,baseball_glove,./Images/baseball_glove/e2_s2.jpg,1,2,2947.10000014305,2,2
6,256,headphone_small,./Images/headphone_small/e1_s2.jpg,0,1,2665,1,2
6,256,headphone_small,./Images/headphone_small/e2_s1.jpg,1,1,2665,2,1
6,257,fridge,./Images/fridge/e2_s1.jpg,1,2,2180.40000009537,2,1
6,257,fridge,./Images/fridge/e1_s1.jpg,1,2,2180.40000009537,1,1
6,258,shoe,./Images/shoe/e1_s1.jpg,1,2,2647.30000019074,1,1
6,258,shoe,./Images/shoe/e2_s1.jpg,1,2,2647.30000019074,2,1
6,259,phone_antique,./Images/phone_antique/e1_s2.jpg,0,1,3547.20000004768,1,2
6,259,phone_antique,./Images/phone_antique/e2_s2.jpg,1,1,3547.20000004768,2,2
6,260,hand_puppet,./Images/hand_puppet/e1_s2.jpg,1,2,2664.69999980927,1,2
6,260,hand_puppet,./Images/hand_puppet/e2_s1.jpg,1,2,2664.69999980927,2,1
6,261,tool_box,./Images/tool_box/e1_s1.jpg,1,1,3247.59999990463,1,1
6,261,tool_box,./Images/tool_box/e2_s2.jpg,0,1,3247.59999990463,2,2
6,262,file_folder,./Images/file_folder/e2_s1.jpg,1,2,2214.70000004768,2,1
6,262,file_folder,./Images/file_folder/e1_s2.jpg,1,2,2214.70000004768,1,2
6,263,laptop,./Images/laptop/e1_s1.jpg,1,2,2080.10000014305,1,1
6,263,laptop,./Images/laptop/e2_s2.jpg,1,2,2080.10000014305,2,2
6,264,cabbage,./Images/cabbage/e1_s1.jpg,1,2,2148.20000004768,1,1
6,264,cabbage,./Images/cabbage/e2_s1.jpg,1,2,2148.20000004768,2,1
6,265,tictac,./Images/tictac/e2_s1.jpg,1,2,2629.80000019074,2,1
6,265,tictac,./Images/tictac/e1_s2.jpg,1,2,2629.80000019074,1,2
6,266,scanner,./Images/scanner/e2_s1.jpg,1,1,2113,2,1
6,266,scanner,./Images/scanner/e1_s2.jpg,0,1,2113,1,2
6,267,flask,./Images/flask/e2_s2.jpg,0,1,1797.20000004768,2,2
6,267,flask,./Images/flask/e1_s2.jpg,1,1,1797.20000004768,1,2
6,268,gummy,./Images/gummy/e2_s2.jpg,1,2,2347.40000009537,2,2
6,268,gummy,./Images/gummy/e1_s1.jpg,1,2,2347.40000009537,1,1
6,269,plastic_bottle,./Images/plastic_bottle/e2_s2.jpg,1,1,2446.30000019074,2,2
6,269,plastic_bottle,./Images/plastic_bottle/e1_s1.jpg,0,1,2446.30000019074,1,1
6,270,lotion,./Images/lotion/e1_s2.jpg,0,1,4781.39999985695,1,2
6,270,lotion,./Images/lotion/e2_s2.jpg,1,1,4781.39999985695,2,2
6,271,toy_truck,./Images/toy_truck/e2_s2.jpg,0,1,1699.10000014305,2,2
6,271,toy_truck,./Images/toy_truck/e1_s1.jpg,1,1,1699.10000014305,1,1
6,272,notebook,./Images/notebook/e1_s1.jpg,1,1,2329.60000014305,1,1
6,272,notebook,./Images/notebook/e2_s1.jpg,0,1,2329.60000014305,2,1
6,273,cabinet,./Images/cabinet/e1_s2.jpg,1,2,1730.70000004768,1,2
6,273,cabinet,./Images/cabinet/e2_s2.jpg,1,2,1730.70000004768,2,2
6,274,altoid,./Images/altoid/e1_s2.jpg,1,1,2514.69999980927,1,2
6,274,altoid,./Images/altoid/e2_s1.jpg,0,1,2514.69999980927,2,1
6,275,usb_key,./Images/usb_key/e2_s1.jpg,1,2,2930,2,1
6,275,usb_key,./Images/usb_key/e1_s2.jpg,1,2,2930,1,2
6,276,accordion,./Images/accordion/e1_s2.jpg,0,1,2680.90000009537,1,2
6,276,accordion,./Images/accordion/e2_s1.jpg,1,1,2680.90000009537,2,1
6,277,scissors,./Images/scissors/e1_s1.jpg,1,1,1997.70000004768,1,1
6,277,scissors,./Images/scissors/e2_s2.jpg,0,1,1997.70000004768,2,2
6,278,locks,./Images/locks/e1_s2.jpg,1,1,3030.40000009537,1,2
6,278,locks,./Images/locks/e2_s1.jpg,0,1,3030.40000009537,2,1
6,279,peanut_butter,./Images/peanut_butter/e2_s2.jpg,0,0,2365.09999990463,2,2
6,279,peanut_butter,./Images/peanut_butter/e1_s1.jpg,0,0,2365.09999990463,1,1
6,280,reeses,./Images/reeses/e2_s2.jpg,1,2,1878.40000009537,2,2
6,280,reeses,./Images/reeses/e1_s1.jpg,1,2,1878.40000009537,1,1
6,281,poker_chips,./Images/poker_chips/e2_s1.jpg,1,1,3131,2,1
6,281,poker_chips,./Images/poker_chips/e1_s2.jpg,0,1,3131,1,2
6,282,cookie,./Images/cookie/e1_s1.jpg,1,2,2662.89999985695,1,1
6,282,cookie,./Images/cookie/e2_s2.jpg,1,2,2662.89999985695,2,2
6,283,mustard,./Images/mustard/e1_s2.jpg,1,2,2165.20000004768,1,2
6,283,mustard,./Images/mustard/e2_s1.jpg,1,2,2165.20000004768,2,1
6,284,paper_cup,./Images/paper_cup/e2_s1.jpg,1,2,2464,2,1
6,284,paper_cup,./Images/paper_cup/e1_s1.jpg,1,2,2464,1,1
6,285,book_object,./Images/book_object/e2_s2.jpg,1,2,2214,2,2
6,285,book_object,./Images/book_object/e1_s1.jpg,1,2,2214,1,1
6,286,metronome,./Images/metronome/e2_s2.jpg,0,1,2029.69999980927,2,2
6,286,metronome,./Images/metronome/e1_s1.jpg,1,1,2029.69999980927,1,1
6,287,apple,./Images/apple/e1_s2.jpg,1,2,1514.70000004768,1,2
6,287,apple,./Images/apple/e2_s1.jpg,1,2,1514.70000004768,2,1
6,288,cereal,./Images/cereal/e1_s1.jpg,1,2,2330.79999995232,1,1
6,288,cereal,./Images/cereal/e2_s1.jpg,1,2,2330.79999995232,2,1
6,289,leather_bag,./Images/leather_bag/e1_s2.jpg,1,2,2680.5,1,2
6,289,leather_bag,./Images/leather_bag/e2_s1.jpg,1,2,2680.5,2,1
6,290,lottery_ticket,./Images/lottery_ticket/e2_s1.jpg,1,1,3013.70000004768,2,1
6,290,lottery_ticket,./Images/lottery_ticket/e1_s1.jpg,0,1,3013.70000004768,1,1
6,291,lemon,./Images/lemon/e2_s1.jpg,1,2,1697.90000009537,2,1
6,291,lemon,./Images/lemon/e1_s2.jpg,1,2,1697.90000009537,1,2
6,292,wallet,./Images/wallet/e2_s2.jpg,0,1,2564,2,2
6,292,wallet,./Images/wallet/e1_s1.jpg,1,1,2564,1,1
6,293,bottle_liquid,./Images/bottle_liquid/e2_s1.jpg,1,2,1897.09999990463,2,1
6,293,bottle_liquid,./Images/bottle_liquid/e1_s2.jpg,1,2,1897.09999990463,1,2
6,294,yarn,./Images/yarn/e2_s2.jpg,1,2,1831,2,2
6,294,yarn,./Images/yarn/e1_s1.jpg,1,2,1831,1,1
6,295,sugar_bowl,./Images/sugar_bowl/e1_s1.jpg,1,1,3715,1,1
6,295,sugar_bowl,./Images/sugar_bowl/e2_s2.jpg,0,1,3715,2,2
6,296,microwave,./Images/microwave/e1_s1.jpg,1,2,1979.80000019074,1,1
6,296,microwave,./Images/microwave/e2_s2.jpg,1,2,1979.80000019074,2,2
6,297,pen,./Images/pen/e1_s2.jpg,1,1,3214.39999985695,1,2
6,297,pen,./Images/pen/e2_s1.jpg,0,1,3214.39999985695,2,1
6,298,kettle,./Images/kettle/e1_s1.jpg,0,0,2064.70000004768,1,1
6,298,kettle,./Images/kettle/e2_s2.jpg,0,0,2064.70000004768,2,2
6,299,book,./Images/book/e1_s2.jpg,1,1,1829,1,2
6,299,book,./Images/book/e2_s1.jpg,0,1,1829,2,1
6,300,chip,./Images/chip/e1_s2.jpg,1,1,3181,1,2
6,300,chip,./Images/chip/e2_s1.jpg,0,1,3181,2,1
6,301,cardbox,./Images/cardbox/e1_s2.jpg,0,0,2615.09999990463,1,2
6,301,cardbox,./Images/cardbox/e2_s2.jpg,0,0,2615.09999990463,2,2
6,302,bills,./Images/bills/e1_s1.jpg,1,2,1878.19999980927,1,1
6,302,bills,./Images/bills/e2_s2.jpg,1,2,1878.19999980927,2,2
6,303,phone,./Images/phone/e1_s1.jpg,1,2,3148,1,1
6,303,phone,./Images/phone/e2_s2.jpg,1,2,3148,2,2
6,304,breadbox,./Images/breadbox/e2_s1.jpg,1,1,2448,2,1
6,304,breadbox,./Images/breadbox/e1_s2.jpg,0,1,2448,1,2
6,305,tea_pot,./Images/tea_pot/e1_s2.jpg,0,1,3012.70000004768,1,2
6,305,tea_pot,./Images/tea_pot/e2_s1.jpg,1,1,3012.70000004768,2,1
60,206,bottle_liquid,./Images/bottle_liquid/e1_s2.jpg,1,2,11266.3999998569,1,2
60,206,bottle_liquid,./Images/bottle_liquid/e2_s2.jpg,1,2,11266.3999998569,2,2
60,207,cooking_pot,./Images/cooking_pot/e2_s2.jpg,1,2,7553.70000004768,2,2
60,207,cooking_pot,./Images/cooking_pot/e1_s2.jpg,1,2,7553.70000004768,1,2
60,208,bills,./Images/bills/e1_s2.jpg,0,1,2222.89999985695,1,2
60,208,bills,./Images/bills/e2_s2.jpg,1,1,2222.89999985695,2,2
60,209,clocks,./Images/clocks/e1_s1.jpg,0,1,3205.90000009537,1,1
60,209,clocks,./Images/clocks/e2_s1.jpg,1,1,3205.90000009537,2,1
60,210,cardbox,./Images/cardbox/e2_s2.jpg,0,0,3068.40000009537,2,2
60,210,cardbox,./Images/cardbox/e1_s2.jpg,0,0,3068.40000009537,1,2
60,211,plastic_bottle,./Images/plastic_bottle/e2_s2.jpg,1,2,2535.5,2,2
60,211,plastic_bottle,./Images/plastic_bottle/e1_s1.jpg,1,2,2535.5,1,1
60,212,gift_box,./Images/gift_box/e2_s2.jpg,1,1,3439.90000009537,2,2
60,212,gift_box,./Images/gift_box/e1_s2.jpg,0,1,3439.90000009537,1,2
60,213,pen,./Images/pen/e2_s2.jpg,0,1,3457.89999985695,2,2
60,213,pen,./Images/pen/e1_s2.jpg,1,1,3457.89999985695,1,2
60,214,chips,./Images/chips/e2_s1.jpg,1,2,2650,2,1
60,214,chips,./Images/chips/e1_s1.jpg,1,2,2650,1,1
60,215,accordion,./Images/accordion/e1_s1.jpg,1,1,4069.09999990463,1,1
60,215,accordion,./Images/accordion/e2_s1.jpg,0,1,4069.09999990463,2,1
60,216,apple,./Images/apple/e2_s1.jpg,1,2,1918,2,1
60,216,apple,./Images/apple/e1_s1.jpg,1,2,1918,1,1
60,217,hourglass,./Images/hourglass/e2_s2.jpg,0,1,3524.5,2,2
60,217,hourglass,./Images/hourglass/e1_s1.jpg,1,1,3524.5,1,1
60,218,cookie,./Images/cookie/e2_s1.jpg,1,2,2693.69999980927,2,1
60,218,cookie,./Images/cookie/e1_s1.jpg,1,2,2693.69999980927,1,1
60,219,aabacus,./Images/aabacus/e1_s2.jpg,1,2,3541.79999995232,1,2
60,219,aabacus,./Images/aabacus/e2_s1.jpg,1,2,3541.79999995232,2,1
60,220,file_box,./Images/file_box/e1_s1.jpg,0,1,3713.70000004768,1,1
60,220,file_box,./Images/file_box/e2_s2.jpg,1,1,3713.70000004768,2,2
60,221,chocolate_bar,./Images/chocolate_bar/e2_s1.jpg,1,2,2971.5,2,1
60,221,chocolate_bar,./Images/chocolate_bar/e1_s1.jpg,1,2,2971.5,1,1
60,222,toy_truck,./Images/toy_truck/e2_s1.jpg,1,2,2375.20000004768,2,1
60,222,toy_truck,./Images/toy_truck/e1_s2.jpg,1,2,2375.20000004768,1,2
60,223,leather_bag,./Images/leather_bag/e2_s1.jpg,1,1,4141.29999995232,2,1
60,223,leather_bag,./Images/leather_bag/e1_s1.jpg,0,1,4141.29999995232,1,1
60,224,mailbox,./Images/mailbox/e1_s1.jpg,1,2,3335.59999990463,1,1
60,224,mailbox,./Images/mailbox/e2_s1.jpg,1,2,3335.59999990463,2,1
60,225,reeses,./Images/reeses/e2_s2.jpg,1,2,2876,2,2
60,225,reeses,./Images/reeses/e1_s2.jpg,1,2,2876,1,2
60,226,lunchbox,./Images/lunchbox/e2_s1.jpg,0,1,3598.40000009537,2,1
60,226,lunchbox,./Images/lunchbox/e1_s2.jpg,1,1,3598.40000009537,1,2
60,227,laptop,./Images/laptop/e1_s1.jpg,1,1,2698.89999985695,1,1
60,227,laptop,./Images/laptop/e2_s1.jpg,0,1,2698.89999985695,2,1
60,228,drink,./Images/drink/e1_s1.jpg,1,2,2890.80000019074,1,1
60,228,drink,./Images/drink/e2_s1.jpg,1,2,2890.80000019074,2,1
60,229,garlic_press,./Images/garlic_press/e2_s2.jpg,1,2,3307.59999990463,2,2
60,229,garlic_press,./Images/garlic_press/e1_s2.jpg,1,2,3307.59999990463,1,2
60,230,lottery_ticket,./Images/lottery_ticket/e1_s2.jpg,1,2,4519.5,1,2
60,230,lottery_ticket,./Images/lottery_ticket/e2_s1.jpg,1,2,4519.5,2,1
60,231,usb_key,./Images/usb_key/e2_s1.jpg,1,2,3063,2,1
60,231,usb_key,./Images/usb_key/e1_s2.jpg,1,2,3063,1,2
60,232,locks,./Images/locks/e1_s2.jpg,1,2,1875.70000004768,1,2
60,232,locks,./Images/locks/e2_s1.jpg,1,2,1875.70000004768,2,1
60,233,kettle,./Images/kettle/e1_s2.jpg,1,2,2195.90000009537,1,2
60,233,kettle,./Images/kettle/e2_s1.jpg,1,2,2195.90000009537,2,1
60,234,corkscrew,./Images/corkscrew/e2_s2.jpg,1,2,2466,2,2
60,234,corkscrew,./Images/corkscrew/e1_s2.jpg,1,2,2466,1,2
60,235,headphone_small,./Images/headphone_small/e2_s2.jpg,1,2,2112.5,2,2
60,235,headphone_small,./Images/headphone_small/e1_s2.jpg,1,2,2112.5,1,2
60,236,breadbox,./Images/breadbox/e1_s2.jpg,1,2,3966.29999995232,1,2
60,236,breadbox,./Images/breadbox/e2_s2.jpg,1,2,3966.29999995232,2,2
60,237,umbrella,./Images/umbrella/e1_s1.jpg,0,1,3013,1,1
60,237,umbrella,./Images/umbrella/e2_s1.jpg,1,1,3013,2,1
60,238,coffeemug,./Images/coffeemug/e2_s1.jpg,1,2,3237.20000004768,2,1
60,238,coffeemug,./Images/coffeemug/e1_s2.jpg,1,2,3237.20000004768,1,2
60,239,cabinet,./Images/cabinet/e1_s1.jpg,0,1,2128.40000009537,1,1
60,239,cabinet,./Images/cabinet/e2_s2.jpg,1,1,2128.40000009537,2,2
60,240,phone_antique,./Images/phone_antique/e2_s2.jpg,0,0,2302.30000019074,2,2
60,240,phone_antique,./Images/phone_antique/e1_s2.jpg,0,0,2302.30000019074,1,2
60,241,mixer,./Images/mixer/e2_s1.jpg,1,2,3331.29999995232,2,1
60,241,mixer,./Images/mixer/e1_s1.jpg,1,2,3331.29999995232,1,1
60,242,menorah,./Images/menorah/e2_s1.jpg,0,0,3210.69999980927,2,1
60,242,menorah,./Images/menorah/e1_s1.jpg,0,0,3210.69999980927,1,1
60,243,tool_box,./Images/tool_box/e1_s2.jpg,1,2,2198.40000009537,1,2
60,243,tool_box,./Images/tool_box/e2_s2.jpg,1,2,2198.40000009537,2,2
60,244,wallet,./Images/wallet/e2_s2.jpg,1,2,2420.09999990463,2,2
60,244,wallet,./Images/wallet/e1_s1.jpg,1,2,2420.09999990463,1,1
60,245,book,./Images/book/e1_s1.jpg,1,1,2990.80000019074,1,1
60,245,book,./Images/book/e2_s2.jpg,0,1,2990.80000019074,2,2
60,246,baseball_glove,./Images/baseball_glove/e1_s1.jpg,1,2,2561.10000014305,1,1
60,246,baseball_glove,./Images/baseball_glove/e2_s1.jpg,1,2,2561.10000014305,2,1
60,247,hand_puppet,./Images/hand_puppet/e1_s2.jpg,0,1,2219.29999995232,1,2
60,247,hand_puppet,./Images/hand_puppet/e2_s2.jpg,1,1,2219.29999995232,2,2
60,248,glass_orange,./Images/glass_orange/e2_s1.jpg,1,2,3421.89999985695,2,1
60,248,glass_orange,./Images/glass_orange/e1_s1.jpg,1,2,3421.89999985695,1,1
60,249,coins,./Images/coins/e2_s1.jpg,1,2,2886.40000009537,2,1
60,249,coins,./Images/coins/e1_s1.jpg,1,2,2886.40000009537,1,1
60,250,scanner,./Images/scanner/e1_s1.jpg,1,2,4825.89999985695,1,1
60,250,scanner,./Images/scanner/e2_s2.jpg,1,2,4825.89999985695,2,2
60,251,paper_cup,./Images/paper_cup/e1_s1.jpg,1,1,2483.60000014305,1,1
60,251,paper_cup,./Images/paper_cup/e2_s2.jpg,0,1,2483.60000014305,2,2
60,252,chapstick,./Images/chapstick/e1_s2.jpg,1,2,3538,1,2
60,252,chapstick,./Images/chapstick/e2_s1.jpg,1,2,3538,2,1
60,253,gummy,./Images/gummy/e1_s2.jpg,1,1,2176.09999990463,1,2
60,253,gummy,./Images/gummy/e2_s1.jpg,0,1,2176.09999990463,2,1
60,254,pie,./Images/pie/e2_s1.jpg,1,2,1737.79999995232,2,1
60,254,pie,./Images/pie/e1_s1.jpg,1,2,1737.79999995232,1,1
60,255,car,./Images/car/e2_s1.jpg,1,2,2428.80000019074,2,1
60,255,car,./Images/car/e1_s1.jpg,1,2,2428.80000019074,1,1
60,256,dresser,./Images/dresser/e2_s2.jpg,0,1,1722.59999990463,2,2
60,256,dresser,./Images/dresser/e1_s2.jpg,1,1,1722.59999990463,1,2
60,257,backpack,./Images/backpack/e1_s2.jpg,1,1,2213.70000004768,1,2
60,257,backpack,./Images/backpack/e2_s2.jpg,0,1,2213.70000004768,2,2
60,258,tictac,./Images/tictac/e1_s1.jpg,1,1,3275.39999985695,1,1
60,258,tictac,./Images/tictac/e2_s1.jpg,0,1,3275.39999985695,2,1
60,259,metronome,./Images/metronome/e1_s1.jpg,1,2,2181.09999990463,1,1
60,259,metronome,./Images/metronome/e2_s1.jpg,1,2,2181.09999990463,2,1
60,260,yarn,./Images/yarn/e1_s2.jpg,1,2,2435.60000014305,1,2
60,260,yarn,./Images/yarn/e2_s2.jpg,1,2,2435.60000014305,2,2
60,261,lemon,./Images/lemon/e1_s1.jpg,1,1,1764.89999985695,1,1
60,261,lemon,./Images/lemon/e2_s1.jpg,0,1,1764.89999985695,2,1
60,262,sugar_bowl,./Images/sugar_bowl/e1_s1.jpg,0,1,2448,1,1
60,262,sugar_bowl,./Images/sugar_bowl/e2_s1.jpg,1,1,2448,2,1
60,263,soap,./Images/soap/e2_s2.jpg,1,2,4126.90000009537,2,2
60,263,soap,./Images/soap/e1_s1.jpg,1,2,4126.90000009537,1,1
60,264,small_box,./Images/small_box/e1_s2.jpg,0,1,2060,1,2
60,264,small_box,./Images/small_box/e2_s2.jpg,1,1,2060,2,2
60,265,mustard,./Images/mustard/e1_s2.jpg,1,1,3197.39999985695,1,2
60,265,mustard,./Images/mustard/e2_s2.jpg,0,1,3197.39999985695,2,2
60,266,lotion,./Images/lotion/e2_s2.jpg,0,1,4020.79999995232,2,2
60,266,lotion,./Images/lotion/e1_s2.jpg,1,1,4020.79999995232,1,2
60,267,menus,./Images/menus/e2_s2.jpg,0,1,3220.89999985695,2,2
60,267,menus,./Images/menus/e1_s2.jpg,1,1,3220.89999985695,1,2
60,268,toilet,./Images/toilet/e2_s2.jpg,1,1,3600.79999995232,2,2
60,268,toilet,./Images/toilet/e1_s2.jpg,0,1,3600.79999995232,1,2
60,269,theater_seats,./Images/theater_seats/e1_s1.jpg,1,1,2216.90000009537,1,1
60,269,theater_seats,./Images/theater_seats/e2_s1.jpg,0,1,2216.90000009537,2,1
60,270,dryer,./Images/dryer/e2_s2.jpg,1,2,3162.90000009537,2,2
60,270,dryer,./Images/dryer/e1_s1.jpg,1,2,3162.90000009537,1,1
60,271,book_object,./Images/book_object/e2_s1.jpg,1,2,2866.30000019074,2,1
60,271,book_object,./Images/book_object/e1_s1.jpg,1,2,2866.30000019074,1,1
60,272,bottle_perfume,./Images/bottle_perfume/e1_s1.jpg,1,2,2248.59999990463,1,1
60,272,bottle_perfume,./Images/bottle_perfume/e2_s2.jpg,1,2,2248.59999990463,2,2
60,273,oj,./Images/oj/e1_s2.jpg,1,1,2583.79999995232,1,2
60,273,oj,./Images/oj/e2_s2.jpg,0,1,2583.79999995232,2,2
60,274,shoe,./Images/shoe/e2_s1.jpg,1,2,2675.10000014305,2,1
60,274,shoe,./Images/shoe/e1_s1.jpg,1,2,2675.10000014305,1,1
60,275,cell,./Images/cell/e1_s1.jpg,1,2,3890.59999990463,1,1
60,275,cell,./Images/cell/e2_s2.jpg,1,2,3890.59999990463,2,2
60,276,donut,./Images/donut/e1_s2.jpg,1,2,2073,1,2
60,276,donut,./Images/donut/e2_s1.jpg,1,2,2073,2,1
60,277,cocktail_umbrella,./Images/cocktail_umbrella/e2_s2.jpg,1,1,2228.29999995232,2,2
60,277,cocktail_umbrella,./Images/cocktail_umbrella/e1_s1.jpg,0,1,2228.29999995232,1,1
60,278,watch,./Images/watch/e2_s2.jpg,0,1,3988.39999985695,2,2
60,278,watch,./Images/watch/e1_s1.jpg,1,1,3988.39999985695,1,1
60,279,keys,./Images/keys/e1_s2.jpg,1,2,2241.40000009537,1,2
60,279,keys,./Images/keys/e2_s1.jpg,1,2,2241.40000009537,2,1
60,280,tricycle,./Images/tricycle/e2_s1.jpg,0,0,1834.70000004768,2,1
60,280,tricycle,./Images/tricycle/e1_s2.jpg,0,0,1834.70000004768,1,2
60,281,microwave,./Images/microwave/e2_s1.jpg,1,1,3526.79999995232,2,1
60,281,microwave,./Images/microwave/e1_s2.jpg,0,1,3526.79999995232,1,2
60,282,canopener,./Images/canopener/e2_s2.jpg,1,1,2302.40000009537,2,2
60,282,canopener,./Images/canopener/e1_s2.jpg,0,1,2302.40000009537,1,2
60,283,container_open,./Images/container_open/e1_s2.jpg,1,1,1621.29999995232,1,2
60,283,container_open,./Images/container_open/e2_s1.jpg,0,1,1621.29999995232,2,1
60,284,tea_pot,./Images/tea_pot/e1_s1.jpg,0,0,1861.09999990463,1,1
60,284,tea_pot,./Images/tea_pot/e2_s1.jpg,0,0,1861.09999990463,2,1
60,285,chair_recliner,./Images/chair_recliner/e2_s2.jpg,1,1,2047.5,2,2
60,285,chair_recliner,./Images/chair_recliner/e1_s2.jpg,0,1,2047.5,1,2
60,286,tissues,./Images/tissues/e1_s2.jpg,1,1,1650.30000019073,1,2
60,286,tissues,./Images/tissues/e2_s2.jpg,0,1,1650.30000019073,2,2
60,287,peanut_butter,./Images/peanut_butter/e1_s2.jpg,1,2,2934.5,1,2
60,287,peanut_butter,./Images/peanut_butter/e2_s1.jpg,1,2,2934.5,2,1
60,288,sharpie_pens,./Images/sharpie_pens/e1_s2.jpg,0,1,1983.40000009537,1,2
60,288,sharpie_pens,./Images/sharpie_pens/e2_s2.jpg,1,1,1983.40000009537,2,2
60,289,flask,./Images/flask/e2_s2.jpg,0,0,1241,2,2
60,289,flask,./Images/flask/e1_s1.jpg,0,0,1241,1,1
60,290,pail,./Images/pail/e1_s1.jpg,1,2,1932.29999995232,1,1
60,290,pail,./Images/pail/e2_s1.jpg,1,2,1932.29999995232,2,1
60,291,file_folder,./Images/file_folder/e1_s2.jpg,1,1,3046.5,1,2
60,291,file_folder,./Images/file_folder/e2_s1.jpg,0,1,3046.5,2,1
60,292,phone,./Images/phone/e1_s2.jpg,0,1,3132.60000014305,1,2
60,292,phone,./Images/phone/e2_s1.jpg,1,1,3132.60000014305,2,1
60,293,chocolate,./Images/chocolate/e1_s2.jpg,1,2,2497.20000004768,1,2
60,293,chocolate,./Images/chocolate/e2_s2.jpg,1,2,2497.20000004768,2,2
60,294,sugar_paper,./Images/sugar_paper/e2_s2.jpg,0,1,2032.5,2,2
60,294,sugar_paper,./Images/sugar_paper/e1_s2.jpg,1,1,2032.5,1,2
60,295,typewriter,./Images/typewriter/e2_s2.jpg,0,0,2158.29999995232,2,2
60,295,typewriter,./Images/typewriter/e1_s2.jpg,0,0,2158.29999995232,1,2
60,296,cereal,./Images/cereal/e2_s2.jpg,1,1,1972.90000009537,2,2
60,296,cereal,./Images/cereal/e1_s1.jpg,0,1,1972.90000009537,1,1
60,297,fridge,./Images/fridge/e2_s2.jpg,1,2,2345.5,2,2
60,297,fridge,./Images/fridge/e1_s1.jpg,1,2,2345.5,1,1
60,298,altoid,./Images/altoid/e1_s2.jpg,1,1,2212.39999985695,1,2
60,298,altoid,./Images/altoid/e2_s2.jpg,0,1,2212.39999985695,2,2
60,299,sponge,./Images/sponge/e1_s2.jpg,1,1,1918.79999995232,1,2
60,299,sponge,./Images/sponge/e2_s2.jpg,0,1,1918.79999995232,2,2
60,300,notebook,./Images/notebook/e1_s2.jpg,0,1,2503,1,2
60,300,notebook,./Images/notebook/e2_s1.jpg,1,1,2503,2,1
60,301,cabbage,./Images/cabbage/e2_s1.jpg,1,2,3098.10000014305,2,1
60,301,cabbage,./Images/cabbage/e1_s1.jpg,1,2,3098.10000014305,1,1
60,302,poker_chips,./Images/poker_chips/e1_s2.jpg,1,2,2182.5,1,2
60,302,poker_chips,./Images/poker_chips/e2_s2.jpg,1,2,2182.5,2,2
60,303,scissors,./Images/scissors/e2_s2.jpg,0,1,1670.5,2,2
60,303,scissors,./Images/scissors/e1_s1.jpg,1,1,1670.5,1,1
60,304,tape_dispenser,./Images/tape_dispenser/e1_s2.jpg,0,0,4357.10000014305,1,2
60,304,tape_dispenser,./Images/tape_dispenser/e2_s1.jpg,0,0,4357.10000014305,2,1
60,305,chip,./Images/chip/e1_s1.jpg,1,2,2352.39999985695,1,1
60,305,chip,./Images/chip/e2_s1.jpg,1,2,2352.39999985695,2,1
16,206,fridge,./Images/fridge/e2_s2.jpg,1,2,4300.70000004768,2,2
16,206,fridge,./Images/fridge/e1_s1.jpg,1,2,4300.70000004768,1,1
16,207,file_folder,./Images/file_folder/e2_s1.jpg,1,2,5400,2,1
16,207,file_folder,./Images/file_folder/e1_s2.jpg,1,2,5400,1,2
16,208,metronome,./Images/metronome/e1_s2.jpg,0,0,8380.69999998808,1,2
16,208,metronome,./Images/metronome/e2_s1.jpg,0,0,8380.69999998808,2,1
16,209,tricycle,./Images/tricycle/e2_s2.jpg,0,1,6310.39999997616,2,2
16,209,tricycle,./Images/tricycle/e1_s1.jpg,1,1,6310.39999997616,1,1
16,210,lottery_ticket,./Images/lottery_ticket/e1_s1.jpg,0,0,12303.9000000358,1,1
16,210,lottery_ticket,./Images/lottery_ticket/e2_s2.jpg,0,0,12303.9000000358,2,2
16,211,scanner,./Images/scanner/e1_s2.jpg,1,2,3534.5,1,2
16,211,scanner,./Images/scanner/e2_s1.jpg,1,2,3534.5,2,1
16,212,bottle_perfume,./Images/bottle_perfume/e1_s2.jpg,1,2,5553.39999997616,1,2
16,212,bottle_perfume,./Images/bottle_perfume/e2_s1.jpg,1,2,5553.39999997616,2,1
16,213,lemon,./Images/lemon/e1_s1.jpg,1,2,5004.89999997616,1,1
16,213,lemon,./Images/lemon/e2_s2.jpg,1,2,5004.89999997616,2,2
16,214,book,./Images/book/e1_s2.jpg,1,2,12657.1999999881,1,2
16,214,book,./Images/book/e2_s1.jpg,1,2,12657.1999999881,2,1
16,215,chair_recliner,./Images/chair_recliner/e2_s2.jpg,1,2,4846.80000001192,2,2
16,215,chair_recliner,./Images/chair_recliner/e1_s1.jpg,1,2,4846.80000001192,1,1
16,216,umbrella,./Images/umbrella/e2_s2.jpg,1,2,5604.69999998808,2,2
16,216,umbrella,./Images/umbrella/e1_s1.jpg,1,2,5604.69999998808,1,1
16,217,altoid,./Images/altoid/e2_s2.jpg,1,2,5651.5,2,2
16,217,altoid,./Images/altoid/e1_s2.jpg,1,2,5651.5,1,2
16,218,watch,./Images/watch/e2_s1.jpg,0,1,18321,2,1
16,218,watch,./Images/watch/e1_s2.jpg,1,1,18321,1,2
16,219,drink,./Images/drink/e1_s1.jpg,0,1,8698.40000003576,1,1
16,219,drink,./Images/drink/e2_s2.jpg,1,1,8698.40000003576,2,2
16,220,lotion,./Images/lotion/e2_s2.jpg,0,0,4930,2,2
16,220,lotion,./Images/lotion/e1_s1.jpg,0,0,4930,1,1
16,221,wallet,./Images/wallet/e1_s2.jpg,1,2,5815,1,2
16,221,wallet,./Images/wallet/e2_s2.jpg,1,2,5815,2,2
16,222,leather_bag,./Images/leather_bag/e1_s2.jpg,0,0,14622.5,1,2
16,222,leather_bag,./Images/leather_bag/e2_s1.jpg,0,0,14622.5,2,1
16,223,phone,./Images/phone/e2_s1.jpg,1,1,13600.1000000238,2,1
16,223,phone,./Images/phone/e1_s2.jpg,0,1,13600.1000000238,1,2
16,224,corkscrew,./Images/corkscrew/e1_s2.jpg,0,1,7603.19999998808,1,2
16,224,corkscrew,./Images/corkscrew/e2_s1.jpg,1,1,7603.19999998808,2,1
16,225,accordion,./Images/accordion/e2_s2.jpg,1,1,8977.19999998808,2,2
16,225,accordion,./Images/accordion/e1_s1.jpg,0,1,8977.19999998808,1,1
16,226,chocolate,./Images/chocolate/e2_s1.jpg,1,2,4536.39999997616,2,1
16,226,chocolate,./Images/chocolate/e1_s2.jpg,1,2,4536.39999997616,1,2
16,227,locks,./Images/locks/e2_s2.jpg,1,2,8417.90000003576,2,2
16,227,locks,./Images/locks/e1_s1.jpg,1,2,8417.90000003576,1,1
16,228,menus,./Images/menus/e1_s1.jpg,1,1,5980,1,1
16,228,menus,./Images/menus/e2_s2.jpg,0,1,5980,2,2
16,229,file_box,./Images/file_box/e2_s2.jpg,1,2,10386,2,2
16,229,file_box,./Images/file_box/e1_s1.jpg,1,2,10386,1,1
16,230,phone_antique,./Images/phone_antique/e2_s1.jpg,1,1,12052.4000000358,2,1
16,230,phone_antique,./Images/phone_antique/e1_s1.jpg,0,1,12052.4000000358,1,1
16,231,garlic_press,./Images/garlic_press/e1_s1.jpg,1,2,13114.3999999762,1,1
16,231,garlic_press,./Images/garlic_press/e2_s1.jpg,1,2,13114.3999999762,2,1
16,232,cabbage,./Images/cabbage/e2_s2.jpg,1,2,11007.2000000477,2,2
16,232,cabbage,./Images/cabbage/e1_s2.jpg,1,2,11007.2000000477,1,2
16,233,notebook,./Images/notebook/e2_s1.jpg,0,1,14527,2,1
16,233,notebook,./Images/notebook/e1_s2.jpg,1,1,14527,1,2
16,234,plastic_bottle,./Images/plastic_bottle/e2_s1.jpg,1,1,19113,2,1
16,234,plastic_bottle,./Images/plastic_bottle/e1_s1.jpg,0,1,19113,1,1
16,235,cereal,./Images/cereal/e1_s1.jpg,1,2,3837.80000001192,1,1
16,235,cereal,./Images/cereal/e2_s1.jpg,1,2,3837.80000001192,2,1
16,236,cookie,./Images/cookie/e2_s1.jpg,1,2,5298.89999997616,2,1
16,236,cookie,./Images/cookie/e1_s1.jpg,1,2,5298.89999997616,1,1
16,237,tape_dispenser,./Images/tape_dispenser/e2_s2.jpg,0,1,5541.39999997616,2,2
16,237,tape_dispenser,./Images/tape_dispenser/e1_s2.jpg,1,1,5541.39999997616,1,2
16,238,small_box,./Images/small_box/e1_s1.jpg,1,1,7474.30000001192,1,1
16,238,small_box,./Images/small_box/e2_s1.jpg,0,1,7474.30000001192,2,1
16,239,bills,./Images/bills/e2_s2.jpg,1,2,2203,2,2
16,239,bills,./Images/bills/e1_s2.jpg,1,2,2203,1,2
16,240,aabacus,./Images/aabacus/e1_s2.jpg,1,2,5479.5,1,2
16,240,aabacus,./Images/aabacus/e2_s2.jpg,1,2,5479.5,2,2
16,241,glass_orange,./Images/glass_orange/e1_s2.jpg,1,1,8365.90000003576,1,2
16,241,glass_orange,./Images/glass_orange/e2_s2.jpg,0,1,8365.90000003576,2,2
16,242,hourglass,./Images/hourglass/e1_s1.jpg,0,1,7235.10000002384,1,1
16,242,hourglass,./Images/hourglass/e2_s1.jpg,1,1,7235.10000002384,2,1
16,243,hand_puppet,./Images/hand_puppet/e1_s1.jpg,1,1,4583.60000002384,1,1
16,243,hand_puppet,./Images/hand_puppet/e2_s1.jpg,0,1,4583.60000002384,2,1
16,244,cardbox,./Images/cardbox/e1_s1.jpg,0,0,7595.89999997616,1,1
16,244,cardbox,./Images/cardbox/e2_s1.jpg,0,0,7595.89999997616,2,1
16,245,tissues,./Images/tissues/e1_s1.jpg,1,2,2007.60000002384,1,1
16,245,tissues,./Images/tissues/e2_s1.jpg,1,2,2007.60000002384,2,1
16,246,tool_box,./Images/tool_box/e1_s1.jpg,1,2,3989.80000001192,1,1
16,246,tool_box,./Images/tool_box/e2_s2.jpg,1,2,3989.80000001192,2,2
16,247,yarn,./Images/yarn/e1_s1.jpg,1,1,3178.89999997616,1,1
16,247,yarn,./Images/yarn/e2_s2.jpg,0,1,3178.89999997616,2,2
16,248,reeses,./Images/reeses/e2_s1.jpg,1,2,3156.30000001192,2,1
16,248,reeses,./Images/reeses/e1_s1.jpg,1,2,3156.30000001192,1,1
16,249,paper_cup,./Images/paper_cup/e2_s1.jpg,1,2,2417.40000003576,2,1
16,249,paper_cup,./Images/paper_cup/e1_s1.jpg,1,2,2417.40000003576,1,1
16,250,soap,./Images/soap/e1_s2.jpg,1,2,4058.19999998808,1,2
16,250,soap,./Images/soap/e2_s2.jpg,1,2,4058.19999998808,2,2
16,251,sharpie_pens,./Images/sharpie_pens/e1_s1.jpg,0,1,11510.8000000119,1,1
16,251,sharpie_pens,./Images/sharpie_pens/e2_s1.jpg,1,1,11510.8000000119,2,1
16,252,coins,./Images/coins/e2_s1.jpg,1,2,16557.1999999881,2,1
16,252,coins,./Images/coins/e1_s2.jpg,1,2,16557.1999999881,1,2
16,253,laptop,./Images/laptop/e1_s1.jpg,0,1,8473.30000001192,1,1
16,253,laptop,./Images/laptop/e2_s1.jpg,1,1,8473.30000001192,2,1
16,254,flask,./Images/flask/e2_s2.jpg,1,2,7260.89999997616,2,2
16,254,flask,./Images/flask/e1_s2.jpg,1,2,7260.89999997616,1,2
16,255,container_open,./Images/container_open/e1_s1.jpg,1,2,6233.5,1,1
16,255,container_open,./Images/container_open/e2_s1.jpg,1,2,6233.5,2,1
16,256,toilet,./Images/toilet/e2_s1.jpg,0,0,12354.5,2,1
16,256,toilet,./Images/toilet/e1_s2.jpg,0,0,12354.5,1,2
16,257,chapstick,./Images/chapstick/e1_s1.jpg,1,2,20119.4000000358,1,1
16,257,chapstick,./Images/chapstick/e2_s2.jpg,1,2,20119.4000000358,2,2
16,258,cocktail_umbrella,./Images/cocktail_umbrella/e2_s2.jpg,0,1,7430.39999997616,2,2
16,258,cocktail_umbrella,./Images/cocktail_umbrella/e1_s2.jpg,1,1,7430.39999997616,1,2
16,259,lunchbox,./Images/lunchbox/e1_s1.jpg,1,2,10839.6000000238,1,1
16,259,lunchbox,./Images/lunchbox/e2_s1.jpg,1,2,10839.6000000238,2,1
16,260,sponge,./Images/sponge/e1_s1.jpg,0,0,5912.79999995232,1,1
16,260,sponge,./Images/sponge/e2_s1.jpg,0,0,5912.79999995232,2,1
16,261,tictac,./Images/tictac/e1_s1.jpg,1,1,4369.39999997616,1,1
16,261,tictac,./Images/tictac/e2_s1.jpg,0,1,4369.39999997616,2,1
16,262,shoe,./Images/shoe/e2_s1.jpg,0,0,9549.5,2,1
16,262,shoe,./Images/shoe/e1_s2.jpg,0,0,9549.5,1,2
16,263,menorah,./Images/menorah/e1_s1.jpg,1,2,9152.5,1,1
16,263,menorah,./Images/menorah/e2_s2.jpg,1,2,9152.5,2,2
16,264,kettle,./Images/kettle/e2_s1.jpg,1,2,24562.1999999881,2,1
16,264,kettle,./Images/kettle/e1_s1.jpg,1,2,24562.1999999881,1,1
16,265,keys,./Images/keys/e1_s1.jpg,0,1,3932.79999995232,1,1
16,265,keys,./Images/keys/e2_s1.jpg,1,1,3932.79999995232,2,1
16,266,clocks,./Images/clocks/e2_s2.jpg,1,1,7143,2,2
16,266,clocks,./Images/clocks/e1_s2.jpg,0,1,7143,1,2
16,267,cell,./Images/cell/e1_s2.jpg,1,2,3984.5,1,2
16,267,cell,./Images/cell/e2_s2.jpg,1,2,3984.5,2,2
16,268,gift_box,./Images/gift_box/e1_s1.jpg,1,2,3456.80000001192,1,1
16,268,gift_box,./Images/gift_box/e2_s1.jpg,1,2,3456.80000001192,2,1
16,269,scissors,./Images/scissors/e1_s1.jpg,1,2,4862.40000003576,1,1
16,269,scissors,./Images/scissors/e2_s1.jpg,1,2,4862.40000003576,2,1
16,270,backpack,./Images/backpack/e2_s1.jpg,1,1,4887.80000001192,2,1
16,270,backpack,./Images/backpack/e1_s1.jpg,0,1,4887.80000001192,1,1
16,271,cabinet,./Images/cabinet/e2_s1.jpg,1,1,4687.19999998808,2,1
16,271,cabinet,./Images/cabinet/e1_s1.jpg,0,1,4687.19999998808,1,1
16,272,pen,./Images/pen/e1_s2.jpg,1,2,6963,1,2
16,272,pen,./Images/pen/e2_s2.jpg,1,2,6963,2,2
16,273,pie,./Images/pie/e2_s2.jpg,1,2,7028,2,2
16,273,pie,./Images/pie/e1_s1.jpg,1,2,7028,1,1
16,274,headphone_small,./Images/headphone_small/e1_s1.jpg,1,2,12526.6000000238,1,1
16,274,headphone_small,./Images/headphone_small/e2_s2.jpg,1,2,12526.6000000238,2,2
16,275,microwave,./Images/microwave/e1_s1.jpg,0,0,5025.5,1,1
16,275,microwave,./Images/microwave/e2_s1.jpg,0,0,5025.5,2,1
16,276,chips,./Images/chips/e2_s1.jpg,1,2,3024,2,1
16,276,chips,./Images/chips/e1_s1.jpg,1,2,3024,1,1
16,277,sugar_bowl,./Images/sugar_bowl/e2_s1.jpg,0,1,8569.19999998808,2,1
16,277,sugar_bowl,./Images/sugar_bowl/e1_s1.jpg,1,1,8569.19999998808,1,1
16,278,cooking_pot,./Images/cooking_pot/e2_s1.jpg,1,2,4189.79999995232,2,1
16,278,cooking_pot,./Images/cooking_pot/e1_s1.jpg,1,2,4189.79999995232,1,1
16,279,mustard,./Images/mustard/e1_s2.jpg,1,2,5558.69999998808,1,2
16,279,mustard,./Images/mustard/e2_s2.jpg,1,2,5558.69999998808,2,2
16,280,chip,./Images/chip/e1_s1.jpg,1,2,2851.19999998808,1,1
16,280,chip,./Images/chip/e2_s1.jpg,1,2,2851.19999998808,2,1
16,281,pail,./Images/pail/e2_s2.jpg,0,0,14321.8000000119,2,2
16,281,pail,./Images/pail/e1_s1.jpg,0,0,14321.8000000119,1,1
16,282,usb_key,./Images/usb_key/e1_s2.jpg,1,2,6828,1,2
16,282,usb_key,./Images/usb_key/e2_s2.jpg,1,2,6828,2,2
16,283,mixer,./Images/mixer/e1_s2.jpg,0,0,7757.79999995232,1,2
16,283,mixer,./Images/mixer/e2_s1.jpg,0,0,7757.79999995232,2,1
16,284,theater_seats,./Images/theater_seats/e2_s2.jpg,0,1,4417.09999996424,2,2
16,284,theater_seats,./Images/theater_seats/e1_s2.jpg,1,1,4417.09999996424,1,2
16,285,baseball_glove,./Images/baseball_glove/e2_s2.jpg,1,2,6469.5,2,2
16,285,baseball_glove,./Images/baseball_glove/e1_s1.jpg,1,2,6469.5,1,1
16,286,book_object,./Images/book_object/e2_s2.jpg,1,2,3541.59999996424,2,2
16,286,book_object,./Images/book_object/e1_s2.jpg,1,2,3541.59999996424,1,2
16,287,apple,./Images/apple/e2_s1.jpg,1,2,2128.10000002384,2,1
16,287,apple,./Images/apple/e1_s1.jpg,1,2,2128.10000002384,1,1
16,288,mailbox,./Images/mailbox/e1_s2.jpg,1,2,3350.79999995232,1,2
16,288,mailbox,./Images/mailbox/e2_s2.jpg,1,2,3350.79999995232,2,2
16,289,peanut_butter,./Images/peanut_butter/e1_s2.jpg,1,2,28684,1,2
16,289,peanut_butter,./Images/peanut_butter/e2_s1.jpg,1,2,28684,2,1
16,290,gummy,./Images/gummy/e1_s1.jpg,1,1,2317.5,1,1
16,290,gummy,./Images/gummy/e2_s1.jpg,0,1,2317.5,2,1
16,291,typewriter,./Images/typewriter/e2_s1.jpg,0,1,16620.7999999523,2,1
16,291,typewriter,./Images/typewriter/e1_s2.jpg,1,1,16620.7999999523,1,2
16,292,dryer,./Images/dryer/e1_s1.jpg,0,1,20538,1,1
16,292,dryer,./Images/dryer/e2_s1.jpg,1,1,20538,2,1
16,293,coffeemug,./Images/coffeemug/e1_s2.jpg,1,2,7143.80000001192,1,2
16,293,coffeemug,./Images/coffeemug/e2_s2.jpg,1,2,7143.80000001192,2,2
16,294,tea_pot,./Images/tea_pot/e2_s1.jpg,0,0,32726.6000000238,2,1
16,294,tea_pot,./Images/tea_pot/e1_s1.jpg,0,0,32726.6000000238,1,1
16,295,canopener,./Images/canopener/e1_s1.jpg,0,1,10287.5,1,1
16,295,canopener,./Images/canopener/e2_s2.jpg,1,1,10287.5,2,2
16,296,oj,./Images/oj/e2_s1.jpg,1,2,24465.8999999762,2,1
16,296,oj,./Images/oj/e1_s2.jpg,1,2,24465.8999999762,1,2
16,297,dresser,./Images/dresser/e1_s1.jpg,1,1,4949.10000002384,1,1
16,297,dresser,./Images/dresser/e2_s1.jpg,0,1,4949.10000002384,2,1
16,298,donut,./Images/donut/e1_s2.jpg,1,2,3481.5,1,2
16,298,donut,./Images/donut/e2_s2.jpg,1,2,3481.5,2,2
16,299,bottle_liquid,./Images/bottle_liquid/e2_s2.jpg,1,2,3713.19999998808,2,2
16,299,bottle_liquid,./Images/bottle_liquid/e1_s2.jpg,1,2,3713.19999998808,1,2
16,300,toy_truck,./Images/toy_truck/e2_s1.jpg,1,2,8610.79999995232,2,1
16,300,toy_truck,./Images/toy_truck/e1_s1.jpg,1,2,8610.79999995232,1,1
16,301,chocolate_bar,./Images/chocolate_bar/e1_s1.jpg,1,2,3344.5,1,1
16,301,chocolate_bar,./Images/chocolate_bar/e2_s1.jpg,1,2,3344.5,2,1
16,302,sugar_paper,./Images/sugar_paper/e2_s1.jpg,1,1,5210.90000003576,2,1
16,302,sugar_paper,./Images/sugar_paper/e1_s1.jpg,0,1,5210.90000003576,1,1
16,303,breadbox,./Images/breadbox/e1_s1.jpg,1,2,2669.10000002384,1,1
16,303,breadbox,./Images/breadbox/e2_s1.jpg,1,2,2669.10000002384,2,1
16,304,poker_chips,./Images/poker_chips/e2_s2.jpg,0,1,7214.30000001192,2,2
16,304,poker_chips,./Images/poker_chips/e1_s2.jpg,1,1,7214.30000001192,1,2
16,305,car,./Images/car/e2_s1.jpg,1,2,2376,2,1
16,305,car,./Images/car/e1_s1.jpg,1,2,2376,1,1
72,206,baseball_glove,./Images/baseball_glove/e2_s2.jpg,1,1,3795.99999999994,2,2
72,206,baseball_glove,./Images/baseball_glove/e1_s1.jpg,0,1,3795.99999999994,1,1
72,207,container_open,./Images/container_open/e1_s1.jpg,1,2,3450,1,1
72,207,container_open,./Images/container_open/e2_s2.jpg,1,2,3450,2,2
72,208,coffeemug,./Images/coffeemug/e2_s1.jpg,1,1,4450,2,1
72,208,coffeemug,./Images/coffeemug/e1_s2.jpg,0,1,4450,1,2
72,209,theater_seats,./Images/theater_seats/e2_s1.jpg,1,2,4769.99999999994,2,1
72,209,theater_seats,./Images/theater_seats/e1_s2.jpg,1,2,4769.99999999994,1,2
72,210,file_box,./Images/file_box/e1_s1.jpg,1,2,2671,1,1
72,210,file_box,./Images/file_box/e2_s1.jpg,1,2,2671,2,1
72,211,glass_orange,./Images/glass_orange/e1_s2.jpg,1,2,5569,1,2
72,211,glass_orange,./Images/glass_orange/e2_s1.jpg,1,2,5569,2,1
72,212,gift_box,./Images/gift_box/e1_s2.jpg,1,2,6521,1,2
72,212,gift_box,./Images/gift_box/e2_s1.jpg,1,2,6521,2,1
72,213,gummy,./Images/gummy/e1_s2.jpg,1,1,2751,1,2
72,213,gummy,./Images/gummy/e2_s1.jpg,0,1,2751,2,1
72,214,toy_truck,./Images/toy_truck/e1_s1.jpg,0,1,2806,1,1
72,214,toy_truck,./Images/toy_truck/e2_s2.jpg,1,1,2806,2,2
72,215,lemon,./Images/lemon/e1_s2.jpg,1,2,3517,1,2
72,215,lemon,./Images/lemon/e2_s1.jpg,1,2,3517,2,1
72,216,sugar_paper,./Images/sugar_paper/e2_s1.jpg,1,1,2455.00000000006,2,1
72,216,sugar_paper,./Images/sugar_paper/e1_s2.jpg,0,1,2455.00000000006,1,2
72,217,reeses,./Images/reeses/e2_s2.jpg,0,1,4819.99999999994,2,2
72,217,reeses,./Images/reeses/e1_s2.jpg,1,1,4819.99999999994,1,2
72,218,phone,./Images/phone/e1_s2.jpg,1,2,2400,1,2
72,218,phone,./Images/phone/e2_s1.jpg,1,2,2400,2,1
72,219,notebook,./Images/notebook/e1_s1.jpg,1,2,2490.00000000006,1,1
72,219,notebook,./Images/notebook/e2_s2.jpg,1,2,2490.00000000006,2,2
72,220,book_object,./Images/book_object/e2_s2.jpg,1,2,4467.00000000006,2,2
72,220,book_object,./Images/book_object/e1_s1.jpg,1,2,4467.00000000006,1,1
72,221,cabinet,./Images/cabinet/e1_s2.jpg,1,2,2504,1,2
72,221,cabinet,./Images/cabinet/e2_s1.jpg,1,2,2504,2,1
72,222,apple,./Images/apple/e1_s1.jpg,1,2,2420,1,1
72,222,apple,./Images/apple/e2_s2.jpg,1,2,2420,2,2
72,223,menorah,./Images/menorah/e2_s2.jpg,1,2,3772,2,2
72,223,menorah,./Images/menorah/e1_s2.jpg,1,2,3772,1,2
72,224,laptop,./Images/laptop/e2_s1.jpg,0,0,2536,2,1
72,224,laptop,./Images/laptop/e1_s2.jpg,0,0,2536,1,2
72,225,tea_pot,./Images/tea_pot/e1_s1.jpg,1,2,2419.99999999994,1,1
72,225,tea_pot,./Images/tea_pot/e2_s1.jpg,1,2,2419.99999999994,2,1
72,226,flask,./Images/flask/e2_s2.jpg,1,2,2654,2,2
72,226,flask,./Images/flask/e1_s1.jpg,1,2,2654,1,1
72,227,watch,./Images/watch/e1_s2.jpg,0,0,3337,1,2
72,227,watch,./Images/watch/e2_s1.jpg,0,0,3337,2,1
72,228,dresser,./Images/dresser/e2_s1.jpg,0,1,2337,2,1
72,228,dresser,./Images/dresser/e1_s2.jpg,1,1,2337,1,2
72,229,bills,./Images/bills/e2_s2.jpg,1,2,1990,2,2
72,229,bills,./Images/bills/e1_s1.jpg,1,2,1990,1,1
72,230,cooking_pot,./Images/cooking_pot/e2_s1.jpg,0,1,3386.00000000006,2,1
72,230,cooking_pot,./Images/cooking_pot/e1_s2.jpg,1,1,3386.00000000006,1,2
72,231,cell,./Images/cell/e1_s2.jpg,1,2,2486,1,2
72,231,cell,./Images/cell/e2_s2.jpg,1,2,2486,2,2
72,232,scanner,./Images/scanner/e2_s2.jpg,1,2,3238,2,2
72,232,scanner,./Images/scanner/e1_s1.jpg,1,2,3238,1,1
72,233,metronome,./Images/metronome/e1_s1.jpg,1,2,2687.00000000012,1,1
72,233,metronome,./Images/metronome/e2_s2.jpg,1,2,2687.00000000012,2,2
72,234,chocolate_bar,./Images/chocolate_bar/e1_s1.jpg,0,1,3569,1,1
72,234,chocolate_bar,./Images/chocolate_bar/e2_s1.jpg,1,1,3569,2,1
72,235,umbrella,./Images/umbrella/e1_s2.jpg,1,1,2353,1,2
72,235,umbrella,./Images/umbrella/e2_s1.jpg,0,1,2353,2,1
72,236,chip,./Images/chip/e1_s1.jpg,1,2,1754,1,1
72,236,chip,./Images/chip/e2_s1.jpg,1,2,1754,2,1
72,237,oj,./Images/oj/e2_s2.jpg,0,0,2372.00000000012,2,2
72,237,oj,./Images/oj/e1_s1.jpg,0,0,2372.00000000012,1,1
72,238,backpack,./Images/backpack/e1_s1.jpg,1,2,3353.99999999988,1,1
72,238,backpack,./Images/backpack/e2_s2.jpg,1,2,3353.99999999988,2,2
72,239,leather_bag,./Images/leather_bag/e2_s1.jpg,0,0,3522.00000000012,2,1
72,239,leather_bag,./Images/leather_bag/e1_s2.jpg,0,0,3522.00000000012,1,2
72,240,small_box,./Images/small_box/e2_s1.jpg,0,1,2522,2,1
72,240,small_box,./Images/small_box/e1_s2.jpg,1,1,2522,1,2
72,241,shoe,./Images/shoe/e1_s2.jpg,0,1,2385,1,2
72,241,shoe,./Images/shoe/e2_s2.jpg,1,1,2385,2,2
72,242,sponge,./Images/sponge/e2_s2.jpg,0,0,2438,2,2
72,242,sponge,./Images/sponge/e1_s1.jpg,0,0,2438,1,1
72,243,wallet,./Images/wallet/e1_s1.jpg,1,2,2104,1,1
72,243,wallet,./Images/wallet/e2_s1.jpg,1,2,2104,2,1
72,244,chips,./Images/chips/e1_s2.jpg,1,2,2686,1,2
72,244,chips,./Images/chips/e2_s1.jpg,1,2,2686,2,1
72,245,tissues,./Images/tissues/e1_s2.jpg,0,0,2521,1,2
72,245,tissues,./Images/tissues/e2_s1.jpg,0,0,2521,2,1
72,246,drink,./Images/drink/e2_s2.jpg,0,0,1955.00000000012,2,2
72,246,drink,./Images/drink/e1_s1.jpg,0,0,1955.00000000012,1,1
72,247,locks,./Images/locks/e2_s1.jpg,1,2,1738,2,1
72,247,locks,./Images/locks/e1_s1.jpg,1,2,1738,1,1
72,248,pen,./Images/pen/e1_s2.jpg,1,2,1857,1,2
72,248,pen,./Images/pen/e2_s2.jpg,1,2,1857,2,2
72,249,kettle,./Images/kettle/e2_s2.jpg,0,0,1972,2,2
72,249,kettle,./Images/kettle/e1_s2.jpg,0,0,1972,1,2
72,250,poker_chips,./Images/poker_chips/e2_s2.jpg,1,2,1905,2,2
72,250,poker_chips,./Images/poker_chips/e1_s1.jpg,1,2,1905,1,1
72,251,aabacus,./Images/aabacus/e2_s1.jpg,1,2,2354,2,1
72,251,aabacus,./Images/aabacus/e1_s1.jpg,1,2,2354,1,1
72,252,coins,./Images/coins/e1_s2.jpg,1,2,1587,1,2
72,252,coins,./Images/coins/e2_s2.jpg,1,2,1587,2,2
72,253,soap,./Images/soap/e2_s2.jpg,0,1,2341,2,2
72,253,soap,./Images/soap/e1_s1.jpg,1,1,2341,1,1
72,254,fridge,./Images/fridge/e2_s1.jpg,1,2,1803.00000000012,2,1
72,254,fridge,./Images/fridge/e1_s1.jpg,1,2,1803.00000000012,1,1
72,255,cabbage,./Images/cabbage/e1_s1.jpg,1,2,1585.00000000012,1,1
72,255,cabbage,./Images/cabbage/e2_s1.jpg,1,2,1585.00000000012,2,1
72,256,hourglass,./Images/hourglass/e1_s2.jpg,1,2,2018,1,2
72,256,hourglass,./Images/hourglass/e2_s2.jpg,1,2,2018,2,2
72,257,cookie,./Images/cookie/e2_s1.jpg,1,2,1637,2,1
72,257,cookie,./Images/cookie/e1_s1.jpg,1,2,1637,1,1
72,258,chocolate,./Images/chocolate/e1_s2.jpg,1,2,3438,1,2
72,258,chocolate,./Images/chocolate/e2_s2.jpg,1,2,3438,2,2
72,259,clocks,./Images/clocks/e2_s2.jpg,1,2,2636,2,2
72,259,clocks,./Images/clocks/e1_s2.jpg,1,2,2636,1,2
72,260,plastic_bottle,./Images/plastic_bottle/e2_s1.jpg,0,0,3572,2,1
72,260,plastic_bottle,./Images/plastic_bottle/e1_s1.jpg,0,0,3572,1,1
72,261,dryer,./Images/dryer/e2_s2.jpg,1,1,3169,2,2
72,261,dryer,./Images/dryer/e1_s1.jpg,0,1,3169,1,1
72,262,tictac,./Images/tictac/e2_s1.jpg,1,1,1455,2,1
72,262,tictac,./Images/tictac/e1_s1.jpg,0,1,1455,1,1
72,263,car,./Images/car/e1_s1.jpg,0,1,2073,1,1
72,263,car,./Images/car/e2_s2.jpg,1,1,2073,2,2
72,264,pail,./Images/pail/e1_s2.jpg,0,0,2287,1,2
72,264,pail,./Images/pail/e2_s2.jpg,0,0,2287,2,2
72,265,chair_recliner,./Images/chair_recliner/e2_s2.jpg,1,1,1724,2,2
72,265,chair_recliner,./Images/chair_recliner/e1_s2.jpg,0,1,1724,1,2
72,266,peanut_butter,./Images/peanut_butter/e2_s1.jpg,1,1,1903,2,1
72,266,peanut_butter,./Images/peanut_butter/e1_s1.jpg,0,1,1903,1,1
72,267,cardbox,./Images/cardbox/e2_s1.jpg,1,1,1920,2,1
72,267,cardbox,./Images/cardbox/e1_s1.jpg,0,1,1920,1,1
72,268,breadbox,./Images/breadbox/e1_s1.jpg,1,2,2437,1,1
72,268,breadbox,./Images/breadbox/e2_s2.jpg,1,2,2437,2,2
72,269,paper_cup,./Images/paper_cup/e1_s1.jpg,1,2,1519.99999999988,1,1
72,269,paper_cup,./Images/paper_cup/e2_s1.jpg,1,2,1519.99999999988,2,1
72,270,cereal,./Images/cereal/e2_s2.jpg,1,2,1870,2,2
72,270,cereal,./Images/cereal/e1_s2.jpg,1,2,1870,1,2
72,271,usb_key,./Images/usb_key/e2_s2.jpg,1,1,1737.99999999988,2,2
72,271,usb_key,./Images/usb_key/e1_s1.jpg,0,1,1737.99999999988,1,1
72,272,hand_puppet,./Images/hand_puppet/e1_s1.jpg,0,1,2455,1,1
72,272,hand_puppet,./Images/hand_puppet/e2_s1.jpg,1,1,2455,2,1
72,273,mustard,./Images/mustard/e1_s1.jpg,0,0,2422,1,1
72,273,mustard,./Images/mustard/e2_s1.jpg,0,0,2422,2,1
72,274,toilet,./Images/toilet/e1_s2.jpg,0,0,2053,1,2
72,274,toilet,./Images/toilet/e2_s1.jpg,0,0,2053,2,1
72,275,keys,./Images/keys/e1_s2.jpg,0,1,1539,1,2
72,275,keys,./Images/keys/e2_s1.jpg,1,1,1539,2,1
72,276,lunchbox,./Images/lunchbox/e2_s2.jpg,1,2,2805,2,2
72,276,lunchbox,./Images/lunchbox/e1_s2.jpg,1,2,2805,1,2
72,277,file_folder,./Images/file_folder/e1_s1.jpg,1,1,2336,1,1
72,277,file_folder,./Images/file_folder/e2_s1.jpg,0,1,2336,2,1
72,278,tricycle,./Images/tricycle/e1_s2.jpg,1,2,3106,1,2
72,278,tricycle,./Images/tricycle/e2_s2.jpg,1,2,3106,2,2
72,279,cocktail_umbrella,./Images/cocktail_umbrella/e1_s1.jpg,0,1,1939,1,1
72,279,cocktail_umbrella,./Images/cocktail_umbrella/e2_s1.jpg,1,1,1939,2,1
72,280,book,./Images/book/e2_s1.jpg,1,2,2420,2,1
72,280,book,./Images/book/e1_s2.jpg,1,2,2420,1,2
72,281,altoid,./Images/altoid/e2_s1.jpg,1,2,1708,2,1
72,281,altoid,./Images/altoid/e1_s1.jpg,1,2,1708,1,1
72,282,phone_antique,./Images/phone_antique/e2_s1.jpg,1,1,1706,2,1
72,282,phone_antique,./Images/phone_antique/e1_s1.jpg,0,1,1706,1,1
72,283,menus,./Images/menus/e1_s2.jpg,1,2,3089,1,2
72,283,menus,./Images/menus/e2_s2.jpg,1,2,3089,2,2
72,284,corkscrew,./Images/corkscrew/e1_s2.jpg,1,2,2573.99999999988,1,2
72,284,corkscrew,./Images/corkscrew/e2_s1.jpg,1,2,2573.99999999988,2,1
72,285,typewriter,./Images/typewriter/e1_s1.jpg,0,1,1837,1,1
72,285,typewriter,./Images/typewriter/e2_s2.jpg,1,1,1837,2,2
72,286,headphone_small,./Images/headphone_small/e1_s1.jpg,1,2,1555.99999999988,1,1
72,286,headphone_small,./Images/headphone_small/e2_s1.jpg,1,2,1555.99999999988,2,1
72,287,accordion,./Images/accordion/e1_s2.jpg,1,2,1704,1,2
72,287,accordion,./Images/accordion/e2_s2.jpg,1,2,1704,2,2
72,288,yarn,./Images/yarn/e2_s1.jpg,1,2,2254.99999999988,2,1
72,288,yarn,./Images/yarn/e1_s1.jpg,1,2,2254.99999999988,1,1
72,289,scissors,./Images/scissors/e1_s1.jpg,1,2,2738,1,1
72,289,scissors,./Images/scissors/e2_s1.jpg,1,2,2738,2,1
72,290,sugar_bowl,./Images/sugar_bowl/e2_s2.jpg,0,0,4921,2,2
72,290,sugar_bowl,./Images/sugar_bowl/e1_s1.jpg,0,0,4921,1,1
72,291,chapstick,./Images/chapstick/e2_s2.jpg,1,1,2207,2,2
72,291,chapstick,./Images/chapstick/e1_s1.jpg,0,1,2207,1,1
72,292,canopener,./Images/canopener/e2_s1.jpg,0,1,2974,2,1
72,292,canopener,./Images/canopener/e1_s1.jpg,1,1,2974,1,1
72,293,bottle_liquid,./Images/bottle_liquid/e1_s1.jpg,0,1,1889,1,1
72,293,bottle_liquid,./Images/bottle_liquid/e2_s1.jpg,1,1,1889,2,1
72,294,donut,./Images/donut/e1_s1.jpg,0,1,2320,1,1
72,294,donut,./Images/donut/e2_s1.jpg,1,1,2320,2,1
72,295,lottery_ticket,./Images/lottery_ticket/e1_s1.jpg,1,1,2055,1,1
72,295,lottery_ticket,./Images/lottery_ticket/e2_s1.jpg,0,1,2055,2,1
72,296,lotion,./Images/lotion/e2_s1.jpg,1,2,1672,2,1
72,296,lotion,./Images/lotion/e1_s1.jpg,1,2,1672,1,1
72,297,tape_dispenser,./Images/tape_dispenser/e2_s2.jpg,0,1,2924,2,2
72,297,tape_dispenser,./Images/tape_dispenser/e1_s1.jpg,1,1,2924,1,1
72,298,pie,./Images/pie/e1_s1.jpg,1,2,1954,1,1
72,298,pie,./Images/pie/e2_s1.jpg,1,2,1954,2,1
72,299,mixer,./Images/mixer/e2_s1.jpg,0,0,1689,2,1
72,299,mixer,./Images/mixer/e1_s1.jpg,0,0,1689,1,1
72,300,bottle_perfume,./Images/bottle_perfume/e2_s2.jpg,0,1,2491,2,2
72,300,bottle_perfume,./Images/bottle_perfume/e1_s2.jpg,1,1,2491,1,2
72,301,microwave,./Images/microwave/e2_s1.jpg,0,1,1770,2,1
72,301,microwave,./Images/microwave/e1_s1.jpg,1,1,1770,1,1
72,302,garlic_press,./Images/garlic_press/e2_s1.jpg,0,0,2208.00000000012,2,1
72,302,garlic_press,./Images/garlic_press/e1_s2.jpg,0,0,2208.00000000012,1,2
72,303,sharpie_pens,./Images/sharpie_pens/e2_s1.jpg,0,1,3388,2,1
72,303,sharpie_pens,./Images/sharpie_pens/e1_s1.jpg,1,1,3388,1,1
72,304,tool_box,./Images/tool_box/e1_s2.jpg,1,2,2122.99999999988,1,2
72,304,tool_box,./Images/tool_box/e2_s1.jpg,1,2,2122.99999999988,2,1
72,305,mailbox,./Images/mailbox/e1_s1.jpg,1,2,2506,1,1
72,305,mailbox,./Images/mailbox/e2_s2.jpg,1,2,2506,2,2
1,206,book,./Images/book/e2_s2.jpg,1,2,13704,2,2
1,206,book,./Images/book/e1_s1.jpg,1,2,13704,1,1
1,207,laptop,./Images/laptop/e2_s2.jpg,0,0,12888,2,2
1,207,laptop,./Images/laptop/e1_s1.jpg,0,0,12888,1,1
1,208,toy_truck,./Images/toy_truck/e2_s2.jpg,1,2,4512,2,2
1,208,toy_truck,./Images/toy_truck/e1_s2.jpg,1,2,4512,1,2
1,209,lunchbox,./Images/lunchbox/e2_s1.jpg,1,2,4025.99999999994,2,1
1,209,lunchbox,./Images/lunchbox/e1_s1.jpg,1,2,4025.99999999994,1,1
1,210,accordion,./Images/accordion/e2_s2.jpg,1,2,2782,2,2
1,210,accordion,./Images/accordion/e1_s2.jpg,1,2,2782,1,2
1,211,reeses,./Images/reeses/e2_s2.jpg,1,2,3919.99999999994,2,2
1,211,reeses,./Images/reeses/e1_s1.jpg,1,2,3919.99999999994,1,1
1,212,metronome,./Images/metronome/e1_s2.jpg,1,2,3720.00000000006,1,2
1,212,metronome,./Images/metronome/e2_s1.jpg,1,2,3720.00000000006,2,1
1,213,chocolate,./Images/chocolate/e2_s2.jpg,1,2,5017,2,2
1,213,chocolate,./Images/chocolate/e1_s1.jpg,1,2,5017,1,1
1,214,bottle_perfume,./Images/bottle_perfume/e1_s2.jpg,1,2,2615,1,2
1,214,bottle_perfume,./Images/bottle_perfume/e2_s2.jpg,1,2,2615,2,2
1,215,clocks,./Images/clocks/e1_s2.jpg,1,2,3086,1,2
1,215,clocks,./Images/clocks/e2_s2.jpg,1,2,3086,2,2
1,216,cabbage,./Images/cabbage/e2_s1.jpg,1,2,2564.99999999988,2,1
1,216,cabbage,./Images/cabbage/e1_s2.jpg,1,2,2564.99999999988,1,2
1,217,tape_dispenser,./Images/tape_dispenser/e2_s1.jpg,1,2,3189,2,1
1,217,tape_dispenser,./Images/tape_dispenser/e1_s1.jpg,1,2,3189,1,1
1,218,cookie,./Images/cookie/e2_s1.jpg,1,2,2875,2,1
1,218,cookie,./Images/cookie/e1_s2.jpg,1,2,2875,1,2
1,219,cereal,./Images/cereal/e1_s1.jpg,1,2,3751.00000000012,1,1
1,219,cereal,./Images/cereal/e2_s1.jpg,1,2,3751.00000000012,2,1
1,220,tictac,./Images/tictac/e2_s1.jpg,0,0,4703,2,1
1,220,tictac,./Images/tictac/e1_s1.jpg,0,0,4703,1,1
1,221,chip,./Images/chip/e2_s2.jpg,1,2,2434,2,2
1,221,chip,./Images/chip/e1_s2.jpg,1,2,2434,1,2
1,222,dryer,./Images/dryer/e1_s2.jpg,1,2,2129,1,2
1,222,dryer,./Images/dryer/e2_s2.jpg,1,2,2129,2,2
1,223,lotion,./Images/lotion/e1_s1.jpg,1,2,2787,1,1
1,223,lotion,./Images/lotion/e2_s2.jpg,1,2,2787,2,2
1,224,umbrella,./Images/umbrella/e2_s2.jpg,1,2,2988.00000000012,2,2
1,224,umbrella,./Images/umbrella/e1_s1.jpg,1,2,2988.00000000012,1,1
1,225,coffeemug,./Images/coffeemug/e1_s1.jpg,1,2,5299,1,1
1,225,coffeemug,./Images/coffeemug/e2_s2.jpg,1,2,5299,2,2
1,226,usb_key,./Images/usb_key/e2_s1.jpg,0,0,5010,2,1
1,226,usb_key,./Images/usb_key/e1_s2.jpg,0,0,5010,1,2
1,227,menus,./Images/menus/e2_s2.jpg,1,2,4647,2,2
1,227,menus,./Images/menus/e1_s2.jpg,1,2,4647,1,2
1,228,file_folder,./Images/file_folder/e1_s2.jpg,0,0,5815,1,2
1,228,file_folder,./Images/file_folder/e2_s1.jpg,0,0,5815,2,1
1,229,headphone_small,./Images/headphone_small/e1_s1.jpg,1,2,1704,1,1
1,229,headphone_small,./Images/headphone_small/e2_s1.jpg,1,2,1704,2,1
1,230,gummy,./Images/gummy/e1_s1.jpg,1,2,4652,1,1
1,230,gummy,./Images/gummy/e2_s1.jpg,1,2,4652,2,1
1,231,container_open,./Images/container_open/e1_s2.jpg,1,2,7251,1,2
1,231,container_open,./Images/container_open/e2_s1.jpg,1,2,7251,2,1
1,232,tool_box,./Images/tool_box/e2_s1.jpg,0,1,5300,2,1
1,232,tool_box,./Images/tool_box/e1_s1.jpg,1,1,5300,1,1
1,233,sponge,./Images/sponge/e2_s1.jpg,1,1,2919,2,1
1,233,sponge,./Images/sponge/e1_s1.jpg,0,1,2919,1,1
1,234,cooking_pot,./Images/cooking_pot/e2_s1.jpg,1,2,5449,2,1
1,234,cooking_pot,./Images/cooking_pot/e1_s1.jpg,1,2,5449,1,1
1,235,cocktail_umbrella,./Images/cocktail_umbrella/e1_s1.jpg,0,1,5639.00000000012,1,1
1,235,cocktail_umbrella,./Images/cocktail_umbrella/e2_s1.jpg,1,1,5639.00000000012,2,1
1,236,poker_chips,./Images/poker_chips/e1_s1.jpg,1,2,3496,1,1
1,236,poker_chips,./Images/poker_chips/e2_s2.jpg,1,2,3496,2,2
1,237,theater_seats,./Images/theater_seats/e1_s2.jpg,1,2,2434,1,2
1,237,theater_seats,./Images/theater_seats/e2_s1.jpg,1,2,2434,2,1
1,238,scissors,./Images/scissors/e1_s2.jpg,1,1,4141,1,2
1,238,scissors,./Images/scissors/e2_s1.jpg,0,1,4141,2,1
1,239,gift_box,./Images/gift_box/e1_s1.jpg,1,2,2827,1,1
1,239,gift_box,./Images/gift_box/e2_s1.jpg,1,2,2827,2,1
1,240,altoid,./Images/altoid/e2_s1.jpg,1,2,6854,2,1
1,240,altoid,./Images/altoid/e1_s2.jpg,1,2,6854,1,2
1,241,sharpie_pens,./Images/sharpie_pens/e2_s2.jpg,1,2,3140,2,2
1,241,sharpie_pens,./Images/sharpie_pens/e1_s2.jpg,1,2,3140,1,2
1,242,hand_puppet,./Images/hand_puppet/e2_s2.jpg,1,2,2590,2,2
1,242,hand_puppet,./Images/hand_puppet/e1_s1.jpg,1,2,2590,1,1
1,243,pie,./Images/pie/e1_s2.jpg,1,2,3385,1,2
1,243,pie,./Images/pie/e2_s1.jpg,1,2,3385,2,1
1,244,keys,./Images/keys/e1_s2.jpg,1,2,5522,1,2
1,244,keys,./Images/keys/e2_s2.jpg,1,2,5522,2,2
1,245,pen,./Images/pen/e2_s2.jpg,1,2,4207,2,2
1,245,pen,./Images/pen/e1_s1.jpg,1,2,4207,1,1
1,246,tissues,./Images/tissues/e2_s1.jpg,1,2,1920,2,1
1,246,tissues,./Images/tissues/e1_s1.jpg,1,2,1920,1,1
1,247,bills,./Images/bills/e2_s1.jpg,1,2,1709,2,1
1,247,bills,./Images/bills/e1_s1.jpg,1,2,1709,1,1
1,248,breadbox,./Images/breadbox/e2_s1.jpg,0,1,2625,2,1
1,248,breadbox,./Images/breadbox/e1_s2.jpg,1,1,2625,1,2
1,249,leather_bag,./Images/leather_bag/e1_s1.jpg,0,1,5463,1,1
1,249,leather_bag,./Images/leather_bag/e2_s1.jpg,1,1,5463,2,1
1,250,shoe,./Images/shoe/e2_s1.jpg,1,1,3706.00000000012,2,1
1,250,shoe,./Images/shoe/e1_s1.jpg,0,1,3706.00000000012,1,1
1,251,menorah,./Images/menorah/e2_s2.jpg,1,2,2462,2,2
1,251,menorah,./Images/menorah/e1_s2.jpg,1,2,2462,1,2
1,252,canopener,./Images/canopener/e2_s1.jpg,1,2,4165,2,1
1,252,canopener,./Images/canopener/e1_s2.jpg,1,2,4165,1,2
1,253,wallet,./Images/wallet/e2_s2.jpg,1,2,1802,2,2
1,253,wallet,./Images/wallet/e1_s2.jpg,1,2,1802,1,2
1,254,glass_orange,./Images/glass_orange/e2_s1.jpg,1,1,2336,2,1
1,254,glass_orange,./Images/glass_orange/e1_s2.jpg,0,1,2336,1,2
1,255,chips,./Images/chips/e2_s1.jpg,1,2,2144,2,1
1,255,chips,./Images/chips/e1_s1.jpg,1,2,2144,1,1
1,256,notebook,./Images/notebook/e1_s2.jpg,0,0,5544,1,2
1,256,notebook,./Images/notebook/e2_s1.jpg,0,0,5544,2,1
1,257,book_object,./Images/book_object/e1_s1.jpg,1,2,2280,1,1
1,257,book_object,./Images/book_object/e2_s1.jpg,1,2,2280,2,1
1,258,watch,./Images/watch/e2_s1.jpg,1,1,1834,2,1
1,258,watch,./Images/watch/e1_s1.jpg,0,1,1834,1,1
1,259,toilet,./Images/toilet/e2_s1.jpg,1,1,2785,2,1
1,259,toilet,./Images/toilet/e1_s2.jpg,0,1,2785,1,2
1,260,chocolate_bar,./Images/chocolate_bar/e1_s1.jpg,1,2,3658,1,1
1,260,chocolate_bar,./Images/chocolate_bar/e2_s2.jpg,1,2,3658,2,2
1,261,backpack,./Images/backpack/e2_s2.jpg,1,2,1830.00000000012,2,2
1,261,backpack,./Images/backpack/e1_s1.jpg,1,2,1830.00000000012,1,1
1,262,small_box,./Images/small_box/e1_s2.jpg,1,2,2494,1,2
1,262,small_box,./Images/small_box/e2_s1.jpg,1,2,2494,2,1
1,263,coins,./Images/coins/e1_s2.jpg,0,1,4632,1,2
1,263,coins,./Images/coins/e2_s1.jpg,1,1,4632,2,1
1,264,drink,./Images/drink/e2_s1.jpg,1,2,3911,2,1
1,264,drink,./Images/drink/e1_s1.jpg,1,2,3911,1,1
1,265,hourglass,./Images/hourglass/e1_s1.jpg,1,2,4399,1,1
1,265,hourglass,./Images/hourglass/e2_s1.jpg,1,2,4399,2,1
1,266,tricycle,./Images/tricycle/e1_s2.jpg,1,1,2864,1,2
1,266,tricycle,./Images/tricycle/e2_s2.jpg,0,1,2864,2,2
1,267,chair_recliner,./Images/chair_recliner/e2_s2.jpg,1,2,2402,2,2
1,267,chair_recliner,./Images/chair_recliner/e1_s1.jpg,1,2,2402,1,1
1,268,cell,./Images/cell/e2_s1.jpg,1,2,1774,2,1
1,268,cell,./Images/cell/e1_s1.jpg,1,2,1774,1,1
1,269,yarn,./Images/yarn/e2_s1.jpg,1,2,2417.00000000012,2,1
1,269,yarn,./Images/yarn/e1_s1.jpg,1,2,2417.00000000012,1,1
1,270,microwave,./Images/microwave/e2_s2.jpg,1,1,2062,2,2
1,270,microwave,./Images/microwave/e1_s1.jpg,0,1,2062,1,1
1,271,baseball_glove,./Images/baseball_glove/e1_s1.jpg,0,1,4380,1,1
1,271,baseball_glove,./Images/baseball_glove/e2_s2.jpg,1,1,4380,2,2
1,272,lottery_ticket,./Images/lottery_ticket/e1_s1.jpg,1,2,2454.99999999988,1,1
1,272,lottery_ticket,./Images/lottery_ticket/e2_s1.jpg,1,2,2454.99999999988,2,1
1,273,phone,./Images/phone/e1_s1.jpg,1,1,4138,1,1
1,273,phone,./Images/phone/e2_s1.jpg,0,1,4138,2,1
1,274,bottle_liquid,./Images/bottle_liquid/e2_s2.jpg,1,2,3536.00000000012,2,2
1,274,bottle_liquid,./Images/bottle_liquid/e1_s1.jpg,1,2,3536.00000000012,1,1
1,275,garlic_press,./Images/garlic_press/e2_s2.jpg,1,2,3092,2,2
1,275,garlic_press,./Images/garlic_press/e1_s2.jpg,1,2,3092,1,2
1,276,fridge,./Images/fridge/e1_s1.jpg,1,2,2523,1,1
1,276,fridge,./Images/fridge/e2_s1.jpg,1,2,2523,2,1
1,277,donut,./Images/donut/e2_s2.jpg,1,2,4946,2,2
1,277,donut,./Images/donut/e1_s1.jpg,1,2,4946,1,1
1,278,tea_pot,./Images/tea_pot/e2_s1.jpg,1,2,7016,2,1
1,278,tea_pot,./Images/tea_pot/e1_s1.jpg,1,2,7016,1,1
1,279,flask,./Images/flask/e2_s1.jpg,1,2,2690,2,1
1,279,flask,./Images/flask/e1_s1.jpg,1,2,2690,1,1
1,280,phone_antique,./Images/phone_antique/e1_s1.jpg,1,2,7546.99999999988,1,1
1,280,phone_antique,./Images/phone_antique/e2_s1.jpg,1,2,7546.99999999988,2,1
1,281,soap,./Images/soap/e1_s2.jpg,0,1,5656,1,2
1,281,soap,./Images/soap/e2_s2.jpg,1,1,5656,2,2
1,282,aabacus,./Images/aabacus/e1_s2.jpg,0,1,2608,1,2
1,282,aabacus,./Images/aabacus/e2_s2.jpg,1,1,2608,2,2
1,283,sugar_bowl,./Images/sugar_bowl/e2_s2.jpg,1,2,4477.00000000012,2,2
1,283,sugar_bowl,./Images/sugar_bowl/e1_s1.jpg,1,2,4477.00000000012,1,1
1,284,paper_cup,./Images/paper_cup/e1_s2.jpg,1,2,1878.99999999988,1,2
1,284,paper_cup,./Images/paper_cup/e2_s1.jpg,1,2,1878.99999999988,2,1
1,285,typewriter,./Images/typewriter/e1_s1.jpg,1,2,3632,1,1
1,285,typewriter,./Images/typewriter/e2_s1.jpg,1,2,3632,2,1
1,286,corkscrew,./Images/corkscrew/e2_s1.jpg,1,2,3007,2,1
1,286,corkscrew,./Images/corkscrew/e1_s2.jpg,1,2,3007,1,2
1,287,oj,./Images/oj/e2_s1.jpg,1,2,4688.99999999988,2,1
1,287,oj,./Images/oj/e1_s2.jpg,1,2,4688.99999999988,1,2
1,288,locks,./Images/locks/e1_s2.jpg,1,2,1572,1,2
1,288,locks,./Images/locks/e2_s2.jpg,1,2,1572,2,2
1,289,mailbox,./Images/mailbox/e2_s2.jpg,0,1,3504,2,2
1,289,mailbox,./Images/mailbox/e1_s1.jpg,1,1,3504,1,1
1,290,car,./Images/car/e2_s1.jpg,1,2,3180,2,1
1,290,car,./Images/car/e1_s1.jpg,1,2,3180,1,1
1,291,lemon,./Images/lemon/e1_s1.jpg,1,2,2971,1,1
1,291,lemon,./Images/lemon/e2_s2.jpg,1,2,2971,2,2
1,292,scanner,./Images/scanner/e2_s1.jpg,1,2,3269,2,1
1,292,scanner,./Images/scanner/e1_s1.jpg,1,2,3269,1,1
1,293,cardbox,./Images/cardbox/e1_s2.jpg,1,2,1959.00000000012,1,2
1,293,cardbox,./Images/cardbox/e2_s2.jpg,1,2,1959.00000000012,2,2
1,294,peanut_butter,./Images/peanut_butter/e2_s1.jpg,0,1,5918,2,1
1,294,peanut_butter,./Images/peanut_butter/e1_s1.jpg,1,1,5918,1,1
1,295,pail,./Images/pail/e1_s1.jpg,0,0,3284,1,1
1,295,pail,./Images/pail/e2_s2.jpg,0,0,3284,2,2
1,296,sugar_paper,./Images/sugar_paper/e1_s2.jpg,1,1,3000,1,2
1,296,sugar_paper,./Images/sugar_paper/e2_s1.jpg,0,1,3000,2,1
1,297,mustard,./Images/mustard/e1_s1.jpg,1,2,3499,1,1
1,297,mustard,./Images/mustard/e2_s1.jpg,1,2,3499,2,1
1,298,kettle,./Images/kettle/e2_s1.jpg,1,2,3073,2,1
1,298,kettle,./Images/kettle/e1_s2.jpg,1,2,3073,1,2
1,299,cabinet,./Images/cabinet/e1_s1.jpg,1,2,3189,1,1
1,299,cabinet,./Images/cabinet/e2_s2.jpg,1,2,3189,2,2
1,300,dresser,./Images/dresser/e1_s2.jpg,1,1,2187,1,2
1,300,dresser,./Images/dresser/e2_s2.jpg,0,1,2187,2,2
1,301,plastic_bottle,./Images/plastic_bottle/e2_s1.jpg,0,1,4363,2,1
1,301,plastic_bottle,./Images/plastic_bottle/e1_s1.jpg,1,1,4363,1,1
1,302,mixer,./Images/mixer/e1_s2.jpg,0,1,3356,1,2
1,302,mixer,./Images/mixer/e2_s2.jpg,1,1,3356,2,2
1,303,apple,./Images/apple/e1_s2.jpg,1,2,5618.99999999988,1,2
1,303,apple,./Images/apple/e2_s1.jpg,1,2,5618.99999999988,2,1
1,304,file_box,./Images/file_box/e1_s1.jpg,1,2,4391.00000000012,1,1
1,304,file_box,./Images/file_box/e2_s1.jpg,1,2,4391.00000000012,2,1
1,305,chapstick,./Images/chapstick/e2_s1.jpg,1,2,2481.99999999988,2,1
1,305,chapstick,./Images/chapstick/e1_s1.jpg,1,2,2481.99999999988,1,1
41,206,lunchbox,./Images/lunchbox/e2_s2.jpg,1,1,7447,2,2
41,206,lunchbox,./Images/lunchbox/e1_s2.jpg,0,1,7447,1,2
41,207,yarn,./Images/yarn/e2_s1.jpg,0,1,5053.99999999988,2,1
41,207,yarn,./Images/yarn/e1_s2.jpg,1,1,5053.99999999988,1,2
41,208,glass_orange,./Images/glass_orange/e1_s1.jpg,1,2,3305.99999999988,1,1
41,208,glass_orange,./Images/glass_orange/e2_s1.jpg,1,2,3305.99999999988,2,1
41,209,pie,./Images/pie/e1_s2.jpg,1,2,2707,1,2
41,209,pie,./Images/pie/e2_s1.jpg,1,2,2707,2,1
41,210,locks,./Images/locks/e1_s2.jpg,0,1,4054,1,2
41,210,locks,./Images/locks/e2_s1.jpg,1,1,4054,2,1
41,211,wallet,./Images/wallet/e2_s2.jpg,1,2,2937,2,2
41,211,wallet,./Images/wallet/e1_s1.jpg,1,2,2937,1,1
41,212,chocolate,./Images/chocolate/e1_s1.jpg,0,1,2688,1,1
41,212,chocolate,./Images/chocolate/e2_s1.jpg,1,1,2688,2,1
41,213,metronome,./Images/metronome/e1_s2.jpg,0,1,2423,1,2
41,213,metronome,./Images/metronome/e2_s1.jpg,1,1,2423,2,1
41,214,bills,./Images/bills/e2_s2.jpg,1,2,2255,2,2
41,214,bills,./Images/bills/e1_s2.jpg,1,2,2255,1,2
41,215,donut,./Images/donut/e1_s1.jpg,1,1,1823.00000000012,1,1
41,215,donut,./Images/donut/e2_s1.jpg,0,1,1823.00000000012,2,1
41,216,lemon,./Images/lemon/e1_s1.jpg,1,2,1988.00000000012,1,1
41,216,lemon,./Images/lemon/e2_s2.jpg,1,2,1988.00000000012,2,2
41,217,tea_pot,./Images/tea_pot/e1_s1.jpg,0,1,2089,1,1
41,217,tea_pot,./Images/tea_pot/e2_s1.jpg,1,1,2089,2,1
41,218,backpack,./Images/backpack/e1_s2.jpg,1,1,2188,1,2
41,218,backpack,./Images/backpack/e2_s1.jpg,0,1,2188,2,1
41,219,menus,./Images/menus/e1_s1.jpg,0,0,4874,1,1
41,219,menus,./Images/menus/e2_s2.jpg,0,0,4874,2,2
41,220,tissues,./Images/tissues/e2_s2.jpg,1,1,2721,2,2
41,220,tissues,./Images/tissues/e1_s2.jpg,0,1,2721,1,2
41,221,chapstick,./Images/chapstick/e2_s1.jpg,0,1,5139.00000000012,2,1
41,221,chapstick,./Images/chapstick/e1_s2.jpg,1,1,5139.00000000012,1,2
41,222,sharpie_pens,./Images/sharpie_pens/e1_s1.jpg,1,2,2039,1,1
41,222,sharpie_pens,./Images/sharpie_pens/e2_s2.jpg,1,2,2039,2,2
41,223,headphone_small,./Images/headphone_small/e1_s2.jpg,0,1,4055,1,2
41,223,headphone_small,./Images/headphone_small/e2_s2.jpg,1,1,4055,2,2
41,224,cereal,./Images/cereal/e2_s1.jpg,0,0,4189,2,1
41,224,cereal,./Images/cereal/e1_s1.jpg,0,0,4189,1,1
41,225,soap,./Images/soap/e2_s1.jpg,1,2,3039,2,1
41,225,soap,./Images/soap/e1_s2.jpg,1,2,3039,1,2
41,226,file_folder,./Images/file_folder/e1_s1.jpg,0,1,2973,1,1
41,226,file_folder,./Images/file_folder/e2_s2.jpg,1,1,2973,2,2
41,227,mustard,./Images/mustard/e1_s2.jpg,1,2,5441,1,2
41,227,mustard,./Images/mustard/e2_s1.jpg,1,2,5441,2,1
41,228,chair_recliner,./Images/chair_recliner/e1_s1.jpg,0,1,2523,1,1
41,228,chair_recliner,./Images/chair_recliner/e2_s2.jpg,1,1,2523,2,2
41,229,reeses,./Images/reeses/e1_s1.jpg,1,2,2573,1,1
41,229,reeses,./Images/reeses/e2_s1.jpg,1,2,2573,2,1
41,230,garlic_press,./Images/garlic_press/e1_s2.jpg,1,2,2688,1,2
41,230,garlic_press,./Images/garlic_press/e2_s1.jpg,1,2,2688,2,1
41,231,flask,./Images/flask/e2_s1.jpg,1,1,1856,2,1
41,231,flask,./Images/flask/e1_s1.jpg,0,1,1856,1,1
41,232,breadbox,./Images/breadbox/e2_s2.jpg,1,2,2689,2,2
41,232,breadbox,./Images/breadbox/e1_s1.jpg,1,2,2689,1,1
41,233,cardbox,./Images/cardbox/e1_s2.jpg,1,1,3440,1,2
41,233,cardbox,./Images/cardbox/e2_s2.jpg,0,1,3440,2,2
41,234,small_box,./Images/small_box/e2_s2.jpg,1,2,1774,2,2
41,234,small_box,./Images/small_box/e1_s2.jpg,1,2,1774,1,2
41,235,canopener,./Images/canopener/e1_s1.jpg,1,1,2305.99999999988,1,1
41,235,canopener,./Images/canopener/e2_s1.jpg,0,1,2305.99999999988,2,1
41,236,watch,./Images/watch/e2_s1.jpg,1,1,2224,2,1
41,236,watch,./Images/watch/e1_s1.jpg,0,1,2224,1,1
41,237,tool_box,./Images/tool_box/e1_s2.jpg,1,1,3174,1,2
41,237,tool_box,./Images/tool_box/e2_s1.jpg,0,1,3174,2,1
41,238,mixer,./Images/mixer/e2_s2.jpg,1,2,3038,2,2
41,238,mixer,./Images/mixer/e1_s1.jpg,1,2,3038,1,1
41,239,car,./Images/car/e1_s1.jpg,1,1,2457,1,1
41,239,car,./Images/car/e2_s2.jpg,0,1,2457,2,2
41,240,container_open,./Images/container_open/e1_s2.jpg,0,1,2139,1,2
41,240,container_open,./Images/container_open/e2_s1.jpg,1,1,2139,2,1
41,241,corkscrew,./Images/corkscrew/e2_s2.jpg,1,2,5957,2,2
41,241,corkscrew,./Images/corkscrew/e1_s1.jpg,1,2,5957,1,1
41,242,book,./Images/book/e2_s1.jpg,1,2,1757,2,1
41,242,book,./Images/book/e1_s1.jpg,1,2,1757,1,1
41,243,pail,./Images/pail/e2_s1.jpg,0,1,1923,2,1
41,243,pail,./Images/pail/e1_s2.jpg,1,1,1923,1,2
41,244,hourglass,./Images/hourglass/e1_s2.jpg,1,1,4425,1,2
41,244,hourglass,./Images/hourglass/e2_s1.jpg,0,1,4425,2,1
41,245,shoe,./Images/shoe/e2_s2.jpg,1,2,2240,2,2
41,245,shoe,./Images/shoe/e1_s2.jpg,1,2,2240,1,2
41,246,book_object,./Images/book_object/e1_s1.jpg,1,2,2890,1,1
41,246,book_object,./Images/book_object/e2_s2.jpg,1,2,2890,2,2
41,247,mailbox,./Images/mailbox/e1_s1.jpg,1,2,2341,1,1
41,247,mailbox,./Images/mailbox/e2_s1.jpg,1,2,2341,2,1
41,248,dryer,./Images/dryer/e1_s2.jpg,1,2,3223,1,2
41,248,dryer,./Images/dryer/e2_s2.jpg,1,2,3223,2,2
41,249,plastic_bottle,./Images/plastic_bottle/e1_s2.jpg,0,1,2375,1,2
41,249,plastic_bottle,./Images/plastic_bottle/e2_s2.jpg,1,1,2375,2,2
41,250,accordion,./Images/accordion/e1_s2.jpg,0,0,2006,1,2
41,250,accordion,./Images/accordion/e2_s1.jpg,0,0,2006,2,1
41,251,scanner,./Images/scanner/e2_s2.jpg,0,1,2458,2,2
41,251,scanner,./Images/scanner/e1_s1.jpg,1,1,2458,1,1
41,252,tricycle,./Images/tricycle/e2_s1.jpg,0,1,3006.99999999988,2,1
41,252,tricycle,./Images/tricycle/e1_s1.jpg,1,1,3006.99999999988,1,1
41,253,chocolate_bar,./Images/chocolate_bar/e2_s1.jpg,1,2,3256,2,1
41,253,chocolate_bar,./Images/chocolate_bar/e1_s1.jpg,1,2,3256,1,1
41,254,clocks,./Images/clocks/e2_s2.jpg,0,1,1374,2,2
41,254,clocks,./Images/clocks/e1_s1.jpg,1,1,1374,1,1
41,255,umbrella,./Images/umbrella/e1_s2.jpg,1,2,4391,1,2
41,255,umbrella,./Images/umbrella/e2_s1.jpg,1,2,4391,2,1
41,256,drink,./Images/drink/e2_s1.jpg,0,1,1757,2,1
41,256,drink,./Images/drink/e1_s1.jpg,1,1,1757,1,1
41,257,toilet,./Images/toilet/e1_s1.jpg,1,2,1556,1,1
41,257,toilet,./Images/toilet/e2_s2.jpg,1,2,1556,2,2
41,258,leather_bag,./Images/leather_bag/e2_s2.jpg,0,0,2290,2,2
41,258,leather_bag,./Images/leather_bag/e1_s1.jpg,0,0,2290,1,1
41,259,scissors,./Images/scissors/e1_s2.jpg,1,1,1257,1,2
41,259,scissors,./Images/scissors/e2_s2.jpg,0,1,1257,2,2
41,260,microwave,./Images/microwave/e2_s1.jpg,0,1,2625,2,1
41,260,microwave,./Images/microwave/e1_s2.jpg,1,1,2625,1,2
41,261,gift_box,./Images/gift_box/e1_s1.jpg,1,1,1724,1,1
41,261,gift_box,./Images/gift_box/e2_s1.jpg,0,1,1724,2,1
41,262,typewriter,./Images/typewriter/e2_s1.jpg,0,1,4209,2,1
41,262,typewriter,./Images/typewriter/e1_s2.jpg,1,1,4209,1,2
41,263,cabbage,./Images/cabbage/e1_s2.jpg,1,2,2474.00000000012,1,2
41,263,cabbage,./Images/cabbage/e2_s1.jpg,1,2,2474.00000000012,2,1
41,264,toy_truck,./Images/toy_truck/e1_s2.jpg,0,0,2057,1,2
41,264,toy_truck,./Images/toy_truck/e2_s1.jpg,0,0,2057,2,1
41,265,theater_seats,./Images/theater_seats/e1_s2.jpg,0,1,1174.00000000012,1,2
41,265,theater_seats,./Images/theater_seats/e2_s2.jpg,1,1,1174.00000000012,2,2
41,266,usb_key,./Images/usb_key/e1_s1.jpg,0,1,3458,1,1
41,266,usb_key,./Images/usb_key/e2_s2.jpg,1,1,3458,2,2
41,267,poker_chips,./Images/poker_chips/e2_s2.jpg,1,1,1790,2,2
41,267,poker_chips,./Images/poker_chips/e1_s2.jpg,0,1,1790,1,2
41,268,cabinet,./Images/cabinet/e2_s2.jpg,1,1,1275,2,2
41,268,cabinet,./Images/cabinet/e1_s1.jpg,0,1,1275,1,1
41,269,chip,./Images/chip/e1_s1.jpg,0,1,3207,1,1
41,269,chip,./Images/chip/e2_s1.jpg,1,1,3207,2,1
41,270,bottle_liquid,./Images/bottle_liquid/e2_s2.jpg,0,0,1109,2,2
41,270,bottle_liquid,./Images/bottle_liquid/e1_s2.jpg,0,0,1109,1,2
41,271,chips,./Images/chips/e1_s1.jpg,1,2,1842,1,1
41,271,chips,./Images/chips/e2_s1.jpg,1,2,1842,2,1
41,272,lottery_ticket,./Images/lottery_ticket/e2_s1.jpg,0,1,2841,2,1
41,272,lottery_ticket,./Images/lottery_ticket/e1_s2.jpg,1,1,2841,1,2
41,273,tictac,./Images/tictac/e2_s1.jpg,0,0,3241,2,1
41,273,tictac,./Images/tictac/e1_s1.jpg,0,0,3241,1,1
41,274,fridge,./Images/fridge/e2_s1.jpg,0,1,1559,2,1
41,274,fridge,./Images/fridge/e1_s1.jpg,1,1,1559,1,1
41,275,lotion,./Images/lotion/e1_s1.jpg,1,2,2375,1,1
41,275,lotion,./Images/lotion/e2_s1.jpg,1,2,2375,2,1
41,276,phone,./Images/phone/e2_s2.jpg,0,0,1107.99999999988,2,2
41,276,phone,./Images/phone/e1_s2.jpg,0,0,1107.99999999988,1,2
41,277,cooking_pot,./Images/cooking_pot/e2_s1.jpg,0,1,3758.00000000012,2,1
41,277,cooking_pot,./Images/cooking_pot/e1_s1.jpg,1,1,3758.00000000012,1,1
41,278,oj,./Images/oj/e1_s1.jpg,1,1,5608,1,1
41,278,oj,./Images/oj/e2_s2.jpg,0,1,5608,2,2
41,279,tape_dispenser,./Images/tape_dispenser/e2_s1.jpg,1,2,1190.99999999988,2,1
41,279,tape_dispenser,./Images/tape_dispenser/e1_s1.jpg,1,2,1190.99999999988,1,1
41,280,paper_cup,./Images/paper_cup/e1_s2.jpg,1,2,2225,1,2
41,280,paper_cup,./Images/paper_cup/e2_s1.jpg,1,2,2225,2,1
41,281,sponge,./Images/sponge/e1_s1.jpg,1,2,2540,1,1
41,281,sponge,./Images/sponge/e2_s1.jpg,1,2,2540,2,1
41,282,peanut_butter,./Images/peanut_butter/e2_s1.jpg,0,0,3493,2,1
41,282,peanut_butter,./Images/peanut_butter/e1_s1.jpg,0,0,3493,1,1
41,283,laptop,./Images/laptop/e2_s1.jpg,1,1,2608,2,1
41,283,laptop,./Images/laptop/e1_s1.jpg,0,1,2608,1,1
41,284,cell,./Images/cell/e1_s2.jpg,0,0,2308,1,2
41,284,cell,./Images/cell/e2_s2.jpg,0,0,2308,2,2
41,285,apple,./Images/apple/e1_s1.jpg,0,1,1942,1,1
41,285,apple,./Images/apple/e2_s1.jpg,1,1,1942,2,1
41,286,cookie,./Images/cookie/e1_s2.jpg,1,2,3292.00000000012,1,2
41,286,cookie,./Images/cookie/e2_s2.jpg,1,2,3292.00000000012,2,2
41,287,coins,./Images/coins/e1_s1.jpg,0,0,1376,1,1
41,287,coins,./Images/coins/e2_s1.jpg,0,0,1376,2,1
41,288,menorah,./Images/menorah/e2_s1.jpg,1,2,2792,2,1
41,288,menorah,./Images/menorah/e1_s1.jpg,1,2,2792,1,1
41,289,aabacus,./Images/aabacus/e1_s2.jpg,1,2,4125,1,2
41,289,aabacus,./Images/aabacus/e2_s2.jpg,1,2,4125,2,2
41,290,hand_puppet,./Images/hand_puppet/e2_s1.jpg,0,0,2809,2,1
41,290,hand_puppet,./Images/hand_puppet/e1_s2.jpg,0,0,2809,1,2
41,291,keys,./Images/keys/e2_s1.jpg,1,1,4857.00000000012,2,1
41,291,keys,./Images/keys/e1_s1.jpg,0,1,4857.00000000012,1,1
41,292,cocktail_umbrella,./Images/cocktail_umbrella/e1_s2.jpg,0,1,3742.00000000012,1,2
41,292,cocktail_umbrella,./Images/cocktail_umbrella/e2_s2.jpg,1,1,3742.00000000012,2,2
41,293,pen,./Images/pen/e1_s2.jpg,1,1,1959,1,2
41,293,pen,./Images/pen/e2_s2.jpg,0,1,1959,2,2
41,294,coffeemug,./Images/coffeemug/e1_s1.jpg,1,2,4092.00000000012,1,1
41,294,coffeemug,./Images/coffeemug/e2_s2.jpg,1,2,4092.00000000012,2,2
41,295,sugar_paper,./Images/sugar_paper/e1_s1.jpg,1,2,5175.00000000012,1,1
41,295,sugar_paper,./Images/sugar_paper/e2_s2.jpg,1,2,5175.00000000012,2,2
41,296,dresser,./Images/dresser/e1_s1.jpg,1,2,2726,1,1
41,296,dresser,./Images/dresser/e2_s1.jpg,1,2,2726,2,1
41,297,phone_antique,./Images/phone_antique/e2_s1.jpg,1,2,3793,2,1
41,297,phone_antique,./Images/phone_antique/e1_s1.jpg,1,2,3793,1,1
41,298,sugar_bowl,./Images/sugar_bowl/e2_s1.jpg,1,1,2375,2,1
41,298,sugar_bowl,./Images/sugar_bowl/e1_s2.jpg,0,1,2375,1,2
41,299,baseball_glove,./Images/baseball_glove/e1_s1.jpg,1,1,2327,1,1
41,299,baseball_glove,./Images/baseball_glove/e2_s2.jpg,0,1,2327,2,2
41,300,gummy,./Images/gummy/e1_s2.jpg,1,2,2058.00000000012,1,2
41,300,gummy,./Images/gummy/e2_s2.jpg,1,2,2058.00000000012,2,2
41,301,bottle_perfume,./Images/bottle_perfume/e1_s1.jpg,0,1,4426,1,1
41,301,bottle_perfume,./Images/bottle_perfume/e2_s1.jpg,1,1,4426,2,1
41,302,notebook,./Images/notebook/e1_s1.jpg,1,2,2293,1,1
41,302,notebook,./Images/notebook/e2_s1.jpg,1,2,2293,2,1
41,303,kettle,./Images/kettle/e1_s1.jpg,1,2,1774,1,1
41,303,kettle,./Images/kettle/e2_s2.jpg,1,2,1774,2,2
41,304,altoid,./Images/altoid/e1_s1.jpg,1,2,5176,1,1
41,304,altoid,./Images/altoid/e2_s2.jpg,1,2,5176,2,2
41,305,file_box,./Images/file_box/e2_s1.jpg,0,0,2360,2,1
41,305,file_box,./Images/file_box/e1_s1.jpg,0,0,2360,1,1
50,206,chapstick,./Images/chapstick/e1_s2.jpg,1,2,12771.6999999881,1,2
50,206,chapstick,./Images/chapstick/e2_s1.jpg,1,2,12771.6999999881,2,1
50,207,menorah,./Images/menorah/e2_s1.jpg,1,2,14853.3999999762,2,1
50,207,menorah,./Images/menorah/e1_s1.jpg,1,2,14853.3999999762,1,1
50,208,fridge,./Images/fridge/e1_s1.jpg,1,2,6738.40000000596,1,1
50,208,fridge,./Images/fridge/e2_s2.jpg,1,2,6738.40000000596,2,2
