trial_index,category,final_img,correct,tot_correct,rt_last,participant
206,locks,./Images/locks/e1_s2.jpg,0,1,43823,13
206,locks,./Images/locks/e2_s2.jpg,1,1,43823,13
207,lunchbox,./Images/lunchbox/e2_s2.jpg,1,1,6870,13
207,lunchbox,./Images/lunchbox/e1_s1.jpg,0,1,6870,13
208,mustard,./Images/mustard/e1_s1.jpg,0,0,4701,13
208,mustard,./Images/mustard/e2_s1.jpg,0,0,4701,13
209,cooking_pot,./Images/cooking_pot/e1_s2.jpg,1,1,5876,13
209,cooking_pot,./Images/cooking_pot/e2_s1.jpg,0,1,5876,13
210,coffeemug,./Images/coffeemug/e1_s2.jpg,1,1,3093,13
210,coffeemug,./Images/coffeemug/e2_s2.jpg,0,1,3093,13
211,paper_cup,./Images/paper_cup/e1_s2.jpg,1,2,5700,13
211,paper_cup,./Images/paper_cup/e2_s2.jpg,1,2,5700,13
212,soap,./Images/soap/e1_s1.jpg,1,2,5550,13
212,soap,./Images/soap/e2_s1.jpg,1,2,5550,13
213,chip,./Images/chip/e1_s1.jpg,1,1,6099,13
213,chip,./Images/chip/e2_s2.jpg,0,1,6099,13
214,poker_chips,./Images/poker_chips/e1_s2.jpg,1,1,4443,13
214,poker_chips,./Images/poker_chips/e2_s1.jpg,0,1,4443,13
215,lemon,./Images/lemon/e1_s1.jpg,1,1,11749,13
215,lemon,./Images/lemon/e2_s1.jpg,0,1,11749,13
216,drink,./Images/drink/e2_s1.jpg,1,2,4742,13
216,drink,./Images/drink/e1_s1.jpg,1,2,4742,13
217,tape_dispenser,./Images/tape_dispenser/e2_s2.jpg,0,1,3249,13
217,tape_dispenser,./Images/tape_dispenser/e1_s2.jpg,1,1,3249,13
218,microwave,./Images/microwave/e2_s2.jpg,0,1,3379,13
218,microwave,./Images/microwave/e1_s2.jpg,1,1,3379,13
219,fridge,./Images/fridge/e2_s2.jpg,0,0,2903,13
219,fridge,./Images/fridge/e1_s2.jpg,0,0,2903,13
220,dryer,./Images/dryer/e2_s2.jpg,1,2,2918,13
220,dryer,./Images/dryer/e1_s2.jpg,1,2,2918,13
221,yarn,./Images/yarn/e2_s2.jpg,0,1,3198,13
221,yarn,./Images/yarn/e1_s1.jpg,1,1,3198,13
222,usb_key,./Images/usb_key/e2_s1.jpg,0,0,2943,13
222,usb_key,./Images/usb_key/e1_s1.jpg,0,0,2943,13
223,umbrella,./Images/umbrella/e1_s2.jpg,1,1,2616,13
223,umbrella,./Images/umbrella/e2_s2.jpg,0,1,2616,13
224,oj,./Images/oj/e2_s1.jpg,1,2,2119,13
224,oj,./Images/oj/e1_s2.jpg,1,2,2119,13
225,clocks,./Images/clocks/e1_s1.jpg,1,2,1928,13
225,clocks,./Images/clocks/e2_s2.jpg,1,2,1928,13
226,coins,./Images/coins/e1_s2.jpg,1,2,1956,13
226,coins,./Images/coins/e2_s1.jpg,1,2,1956,13
227,sugar_bowl,./Images/sugar_bowl/e2_s1.jpg,1,2,5144,13
227,sugar_bowl,./Images/sugar_bowl/e1_s2.jpg,1,2,5144,13
228,corkscrew,./Images/corkscrew/e2_s2.jpg,0,1,2918,13
228,corkscrew,./Images/corkscrew/e1_s1.jpg,1,1,2918,13
229,tictac,./Images/tictac/e2_s1.jpg,1,1,2616,13
229,tictac,./Images/tictac/e1_s2.jpg,0,1,2616,13
230,headphone_small,./Images/headphone_small/e2_s2.jpg,0,0,2713,13
230,headphone_small,./Images/headphone_small/e1_s2.jpg,0,0,2713,13
231,cardbox,./Images/cardbox/e2_s1.jpg,1,1,2283,13
231,cardbox,./Images/cardbox/e1_s1.jpg,0,1,2283,13
232,donut,./Images/donut/e1_s2.jpg,1,1,2526,13
232,donut,./Images/donut/e2_s2.jpg,0,1,2526,13
233,phone_antique,./Images/phone_antique/e2_s1.jpg,0,0,2131,13
233,phone_antique,./Images/phone_antique/e1_s1.jpg,0,0,2131,13
234,gummy,./Images/gummy/e1_s1.jpg,1,2,2935,13
234,gummy,./Images/gummy/e2_s2.jpg,1,2,2935,13
235,wallet,./Images/wallet/e1_s2.jpg,1,2,2889,13
235,wallet,./Images/wallet/e2_s2.jpg,1,2,2889,13
236,lotion,./Images/lotion/e2_s2.jpg,1,2,9440,13
236,lotion,./Images/lotion/e1_s2.jpg,1,2,9440,13
237,file_box,./Images/file_box/e2_s2.jpg,0,0,2922,13
237,file_box,./Images/file_box/e1_s2.jpg,0,0,2922,13
238,tea_pot,./Images/tea_pot/e2_s2.jpg,1,2,2733,13
238,tea_pot,./Images/tea_pot/e1_s2.jpg,1,2,2733,13
239,gift_box,./Images/gift_box/e1_s2.jpg,1,2,2814,13
239,gift_box,./Images/gift_box/e2_s2.jpg,1,2,2814,13
240,flask,./Images/flask/e2_s2.jpg,1,2,4253,13
240,flask,./Images/flask/e1_s2.jpg,1,2,4253,13
241,lottery_ticket,./Images/lottery_ticket/e2_s2.jpg,0,1,2397,13
241,lottery_ticket,./Images/lottery_ticket/e1_s2.jpg,1,1,2397,13
242,dresser,./Images/dresser/e1_s1.jpg,1,2,2259,13
242,dresser,./Images/dresser/e2_s2.jpg,1,2,2259,13
243,shoe,./Images/shoe/e1_s2.jpg,1,2,2226,13
243,shoe,./Images/shoe/e2_s1.jpg,1,2,2226,13
244,hand_puppet,./Images/hand_puppet/e2_s2.jpg,1,1,2150,13
244,hand_puppet,./Images/hand_puppet/e1_s2.jpg,0,1,2150,13
245,chapstick,./Images/chapstick/e2_s1.jpg,1,2,2266,13
245,chapstick,./Images/chapstick/e1_s1.jpg,1,2,2266,13
246,glass_orange,./Images/glass_orange/e1_s2.jpg,0,1,2205,13
246,glass_orange,./Images/glass_orange/e2_s2.jpg,1,1,2205,13
247,scanner,./Images/scanner/e2_s1.jpg,1,1,2018,13
247,scanner,./Images/scanner/e1_s2.jpg,0,1,2018,13
248,sharpie_pens,./Images/sharpie_pens/e2_s1.jpg,0,1,1911,13
248,sharpie_pens,./Images/sharpie_pens/e1_s1.jpg,1,1,1911,13
249,chips,./Images/chips/e2_s1.jpg,0,1,2917,13
249,chips,./Images/chips/e1_s1.jpg,1,1,2917,13
250,bills,./Images/bills/e2_s1.jpg,1,2,3299,13
250,bills,./Images/bills/e1_s1.jpg,1,2,3299,13
251,hourglass,./Images/hourglass/e2_s1.jpg,0,1,2385,13
251,hourglass,./Images/hourglass/e1_s1.jpg,1,1,2385,13
252,peanut_butter,./Images/peanut_butter/e2_s1.jpg,1,2,1890,13
252,peanut_butter,./Images/peanut_butter/e1_s2.jpg,1,2,1890,13
253,sugar_paper,./Images/sugar_paper/e2_s2.jpg,0,0,1652,13
253,sugar_paper,./Images/sugar_paper/e1_s2.jpg,0,0,1652,13
254,baseball_glove,./Images/baseball_glove/e1_s1.jpg,0,1,1890,13
254,baseball_glove,./Images/baseball_glove/e2_s2.jpg,1,1,1890,13
255,breadbox,./Images/breadbox/e1_s1.jpg,0,1,2379,13
255,breadbox,./Images/breadbox/e2_s1.jpg,1,1,2379,13
256,pen,./Images/pen/e2_s1.jpg,1,1,2465,13
256,pen,./Images/pen/e1_s1.jpg,0,1,2465,13
257,pail,./Images/pail/e2_s2.jpg,1,1,1903,13
257,pail,./Images/pail/e1_s1.jpg,0,1,1903,13
258,book,./Images/book/e1_s1.jpg,1,1,38891,13
258,book,./Images/book/e2_s1.jpg,0,1,38891,13
259,book_object,./Images/book_object/e2_s2.jpg,0,1,2185,13
259,book_object,./Images/book_object/e1_s1.jpg,1,1,2185,13
260,tool_box,./Images/tool_box/e2_s1.jpg,1,2,1537,13
260,tool_box,./Images/tool_box/e1_s2.jpg,1,2,1537,13
261,chair_recliner,./Images/chair_recliner/e1_s2.jpg,0,0,1561,13
261,chair_recliner,./Images/chair_recliner/e2_s1.jpg,0,0,1561,13
262,scissors,./Images/scissors/e2_s2.jpg,1,2,3093,13
262,scissors,./Images/scissors/e1_s1.jpg,1,2,3093,13
263,theater_seats,./Images/theater_seats/e1_s1.jpg,0,0,1850,13
263,theater_seats,./Images/theater_seats/e2_s2.jpg,0,0,1850,13
264,canopener,./Images/canopener/e2_s1.jpg,1,1,2013,13
264,canopener,./Images/canopener/e1_s1.jpg,0,1,2013,13
265,apple,./Images/apple/e1_s2.jpg,1,2,1765,13
265,apple,./Images/apple/e2_s1.jpg,1,2,1765,13
266,accordion,./Images/accordion/e2_s2.jpg,0,1,2885,13
266,accordion,./Images/accordion/e1_s2.jpg,1,1,2885,13
267,cell,./Images/cell/e1_s2.jpg,1,1,4125,13
267,cell,./Images/cell/e2_s2.jpg,0,1,4125,13
268,laptop,./Images/laptop/e2_s2.jpg,1,2,1801,13
268,laptop,./Images/laptop/e1_s1.jpg,1,2,1801,13
269,file_folder,./Images/file_folder/e2_s2.jpg,1,2,1895,13
269,file_folder,./Images/file_folder/e1_s1.jpg,1,2,1895,13
270,typewriter,./Images/typewriter/e1_s1.jpg,0,1,1679,13
270,typewriter,./Images/typewriter/e2_s1.jpg,1,1,1679,13
271,chocolate_bar,./Images/chocolate_bar/e1_s1.jpg,1,2,1719,13
271,chocolate_bar,./Images/chocolate_bar/e2_s1.jpg,1,2,1719,13
272,menorah,./Images/menorah/e1_s2.jpg,0,0,18841,13
272,menorah,./Images/menorah/e2_s2.jpg,0,0,18841,13
273,cabinet,./Images/cabinet/e2_s2.jpg,1,1,2145,13
273,cabinet,./Images/cabinet/e1_s1.jpg,0,1,2145,13
274,toy_truck,./Images/toy_truck/e1_s1.jpg,0,1,3495,13
274,toy_truck,./Images/toy_truck/e2_s2.jpg,1,1,3495,13
275,backpack,./Images/backpack/e2_s1.jpg,1,1,1639,13
275,backpack,./Images/backpack/e1_s1.jpg,0,1,1639,13
276,cereal,./Images/cereal/e2_s2.jpg,0,0,1808,13
276,cereal,./Images/cereal/e1_s2.jpg,0,0,1808,13
277,reeses,./Images/reeses/e2_s2.jpg,1,1,1637,13
277,reeses,./Images/reeses/e1_s2.jpg,0,1,1637,13
278,phone,./Images/phone/e1_s1.jpg,1,2,1609,13
278,phone,./Images/phone/e2_s2.jpg,1,2,1609,13
279,watch,./Images/watch/e1_s2.jpg,0,1,1502,13
279,watch,./Images/watch/e2_s2.jpg,1,1,1502,13
280,aabacus,./Images/aabacus/e2_s1.jpg,1,2,1839,13
280,aabacus,./Images/aabacus/e1_s1.jpg,1,2,1839,13
281,bottle_perfume,./Images/bottle_perfume/e2_s2.jpg,1,1,1694,13
281,bottle_perfume,./Images/bottle_perfume/e1_s1.jpg,0,1,1694,13
282,cookie,./Images/cookie/e2_s1.jpg,1,1,1939,13
282,cookie,./Images/cookie/e1_s2.jpg,0,1,1939,13
283,tissues,./Images/tissues/e1_s1.jpg,1,2,1573,13
283,tissues,./Images/tissues/e2_s2.jpg,1,2,1573,13
284,car,./Images/car/e1_s2.jpg,0,0,1732,13
284,car,./Images/car/e2_s2.jpg,0,0,1732,13
285,toilet,./Images/toilet/e2_s1.jpg,1,1,1627,13
285,toilet,./Images/toilet/e1_s2.jpg,0,1,1627,13
286,mailbox,./Images/mailbox/e1_s2.jpg,0,0,2276,13
286,mailbox,./Images/mailbox/e2_s2.jpg,0,0,2276,13
287,small_box,./Images/small_box/e2_s1.jpg,1,2,1838,13
287,small_box,./Images/small_box/e1_s1.jpg,1,2,1838,13
288,leather_bag,./Images/leather_bag/e2_s2.jpg,0,0,1683,13
288,leather_bag,./Images/leather_bag/e1_s2.jpg,0,0,1683,13
289,cabbage,./Images/cabbage/e2_s2.jpg,1,2,2065,13
289,cabbage,./Images/cabbage/e1_s2.jpg,1,2,2065,13
290,tricycle,./Images/tricycle/e1_s2.jpg,0,0,1605,13
290,tricycle,./Images/tricycle/e2_s1.jpg,0,0,1605,13
291,chocolate,./Images/chocolate/e1_s2.jpg,0,0,1533,13
291,chocolate,./Images/chocolate/e2_s1.jpg,0,0,1533,13
292,menus,./Images/menus/e2_s2.jpg,0,1,1774,13
292,menus,./Images/menus/e1_s2.jpg,1,1,1774,13
293,keys,./Images/keys/e1_s1.jpg,0,1,1684,13
293,keys,./Images/keys/e2_s1.jpg,1,1,1684,13
294,altoid,./Images/altoid/e1_s2.jpg,1,2,1732,13
294,altoid,./Images/altoid/e2_s2.jpg,1,2,1732,13
295,sponge,./Images/sponge/e2_s1.jpg,1,1,1685,13
295,sponge,./Images/sponge/e1_s2.jpg,0,1,1685,13
296,kettle,./Images/kettle/e1_s2.jpg,0,0,1764,13
296,kettle,./Images/kettle/e2_s1.jpg,0,0,1764,13
297,garlic_press,./Images/garlic_press/e1_s1.jpg,0,1,1985,13
297,garlic_press,./Images/garlic_press/e2_s2.jpg,1,1,1985,13
298,cocktail_umbrella,./Images/cocktail_umbrella/e1_s1.jpg,1,2,1624,13
298,cocktail_umbrella,./Images/cocktail_umbrella/e2_s2.jpg,1,2,1624,13
299,pie,./Images/pie/e2_s1.jpg,0,0,1632,13
299,pie,./Images/pie/e1_s2.jpg,0,0,1632,13
300,bottle_liquid,./Images/bottle_liquid/e2_s1.jpg,0,0,1605,13
300,bottle_liquid,./Images/bottle_liquid/e1_s1.jpg,0,0,1605,13
301,container_open,./Images/container_open/e2_s2.jpg,0,1,1553,13
301,container_open,./Images/container_open/e1_s1.jpg,1,1,1553,13
302,metronome,./Images/metronome/e1_s2.jpg,0,0,1600,13
302,metronome,./Images/metronome/e2_s1.jpg,0,0,1600,13
303,mixer,./Images/mixer/e1_s1.jpg,0,1,1482,13
303,mixer,./Images/mixer/e2_s2.jpg,1,1,1482,13
304,notebook,./Images/notebook/e1_s2.jpg,0,0,1675,13
304,notebook,./Images/notebook/e2_s1.jpg,0,0,1675,13
305,plastic_bottle,./Images/plastic_bottle/e2_s2.jpg,0,0,1433,13
305,plastic_bottle,./Images/plastic_bottle/e1_s2.jpg,0,0,1433,13
206,book,./Images/book/e2_s2.jpg,0,1,8470.29999999702,41
206,book,./Images/book/e1_s2.jpg,1,1,8470.29999999702,41
207,chips,./Images/chips/e1_s1.jpg,1,2,4330,41
207,chips,./Images/chips/e2_s1.jpg,1,2,4330,41
208,mustard,./Images/mustard/e1_s1.jpg,1,2,6013.5,41
208,mustard,./Images/mustard/e2_s1.jpg,1,2,6013.5,41
209,bottle_perfume,./Images/bottle_perfume/e1_s1.jpg,0,1,5430.30000001192,41
209,bottle_perfume,./Images/bottle_perfume/e2_s1.jpg,1,1,5430.30000001192,41
210,metronome,./Images/metronome/e1_s1.jpg,1,1,4980.59999999404,41
210,metronome,./Images/metronome/e2_s2.jpg,0,1,4980.59999999404,41
211,lottery_ticket,./Images/lottery_ticket/e2_s1.jpg,1,1,9247.09999999404,41
211,lottery_ticket,./Images/lottery_ticket/e1_s2.jpg,0,1,9247.09999999404,41
212,reeses,./Images/reeses/e1_s2.jpg,1,2,7613.5,41
212,reeses,./Images/reeses/e2_s2.jpg,1,2,7613.5,41
213,tricycle,./Images/tricycle/e1_s1.jpg,0,0,7347.70000000298,41
213,tricycle,./Images/tricycle/e2_s1.jpg,0,0,7347.70000000298,41
214,donut,./Images/donut/e1_s1.jpg,1,2,2247.70000000298,41
214,donut,./Images/donut/e2_s1.jpg,1,2,2247.70000000298,41
215,pie,./Images/pie/e1_s1.jpg,1,2,2530.20000000298,41
215,pie,./Images/pie/e2_s2.jpg,1,2,2530.20000000298,41
216,laptop,./Images/laptop/e2_s2.jpg,0,0,4646.70000000298,41
216,laptop,./Images/laptop/e1_s2.jpg,0,0,4646.70000000298,41
217,hourglass,./Images/hourglass/e1_s1.jpg,1,1,6113.29999999702,41
217,hourglass,./Images/hourglass/e2_s2.jpg,0,1,6113.29999999702,41
218,chip,./Images/chip/e1_s1.jpg,1,2,4546.70000000298,41
218,chip,./Images/chip/e2_s1.jpg,1,2,4546.70000000298,41
219,gift_box,./Images/gift_box/e1_s1.jpg,1,2,2480,41
219,gift_box,./Images/gift_box/e2_s1.jpg,1,2,2480,41
220,chocolate_bar,./Images/chocolate_bar/e2_s2.jpg,1,2,7363,41
220,chocolate_bar,./Images/chocolate_bar/e1_s1.jpg,1,2,7363,41
221,bills,./Images/bills/e1_s1.jpg,1,1,4130.30000001192,41
221,bills,./Images/bills/e2_s1.jpg,0,1,4130.30000001192,41
222,lunchbox,./Images/lunchbox/e2_s1.jpg,1,1,3630.10000000894,41
222,lunchbox,./Images/lunchbox/e1_s2.jpg,0,1,3630.10000000894,41
223,cardbox,./Images/cardbox/e1_s2.jpg,1,1,7396.69999998808,41
223,cardbox,./Images/cardbox/e2_s1.jpg,0,1,7396.69999998808,41
224,cookie,./Images/cookie/e2_s1.jpg,1,2,2746.39999999106,41
224,cookie,./Images/cookie/e1_s1.jpg,1,2,2746.39999999106,41
225,garlic_press,./Images/garlic_press/e2_s2.jpg,1,2,3063.20000000298,41
225,garlic_press,./Images/garlic_press/e1_s2.jpg,1,2,3063.20000000298,41
226,notebook,./Images/notebook/e2_s1.jpg,1,2,6846.39999999106,41
226,notebook,./Images/notebook/e1_s2.jpg,1,2,6846.39999999106,41
227,yarn,./Images/yarn/e1_s2.jpg,1,2,5863.80000001192,41
227,yarn,./Images/yarn/e2_s2.jpg,1,2,5863.80000001192,41
228,gummy,./Images/gummy/e1_s2.jpg,1,1,7213.20000000298,41
228,gummy,./Images/gummy/e2_s2.jpg,0,1,7213.20000000298,41
229,menus,./Images/menus/e2_s2.jpg,0,1,5030,41
229,menus,./Images/menus/e1_s1.jpg,1,1,5030,41
230,peanut_butter,./Images/peanut_butter/e1_s1.jpg,1,2,5380.70000000298,41
230,peanut_butter,./Images/peanut_butter/e2_s1.jpg,1,2,5380.70000000298,41
231,scissors,./Images/scissors/e2_s1.jpg,0,0,4763.20000000298,41
231,scissors,./Images/scissors/e1_s1.jpg,0,0,4763.20000000298,41
232,cabinet,./Images/cabinet/e2_s2.jpg,0,0,2780.70000000298,41
232,cabinet,./Images/cabinet/e1_s1.jpg,0,0,2780.70000000298,41
233,theater_seats,./Images/theater_seats/e2_s1.jpg,1,2,7530.59999999404,41
233,theater_seats,./Images/theater_seats/e1_s2.jpg,1,2,7530.59999999404,41
234,cabbage,./Images/cabbage/e2_s2.jpg,1,2,2063.40000000596,41
234,cabbage,./Images/cabbage/e1_s1.jpg,1,2,2063.40000000596,41
235,bottle_liquid,./Images/bottle_liquid/e2_s1.jpg,0,0,2547.30000001192,41
235,bottle_liquid,./Images/bottle_liquid/e1_s2.jpg,0,0,2547.30000001192,41
236,sharpie_pens,./Images/sharpie_pens/e1_s2.jpg,0,1,2047.20000000298,41
236,sharpie_pens,./Images/sharpie_pens/e2_s1.jpg,1,1,2047.20000000298,41
237,dryer,./Images/dryer/e2_s2.jpg,1,2,4246.5,41
237,dryer,./Images/dryer/e1_s1.jpg,1,2,4246.5,41
238,locks,./Images/locks/e1_s2.jpg,1,2,3980.5,41
238,locks,./Images/locks/e2_s2.jpg,1,2,3980.5,41
239,drink,./Images/drink/e2_s2.jpg,0,0,6763.70000000298,41
239,drink,./Images/drink/e1_s1.jpg,0,0,6763.70000000298,41
240,plastic_bottle,./Images/plastic_bottle/e2_s1.jpg,0,1,3263.90000000596,41
240,plastic_bottle,./Images/plastic_bottle/e1_s1.jpg,1,1,3263.90000000596,41
241,chocolate,./Images/chocolate/e1_s1.jpg,0,1,3963.19999998808,41
241,chocolate,./Images/chocolate/e2_s1.jpg,1,1,3963.19999998808,41
242,toilet,./Images/toilet/e1_s2.jpg,0,1,5030.29999999702,41
242,toilet,./Images/toilet/e2_s1.jpg,1,1,5030.29999999702,41
243,toy_truck,./Images/toy_truck/e2_s2.jpg,1,1,2413.20000000298,41
243,toy_truck,./Images/toy_truck/e1_s1.jpg,0,1,2413.20000000298,41
244,dresser,./Images/dresser/e2_s1.jpg,1,2,2979.90000000596,41
244,dresser,./Images/dresser/e1_s2.jpg,1,2,2979.90000000596,41
245,cell,./Images/cell/e2_s2.jpg,0,0,2480.20000000298,41
245,cell,./Images/cell/e1_s1.jpg,0,0,2480.20000000298,41
246,accordion,./Images/accordion/e2_s2.jpg,0,0,3313.70000000298,41
246,accordion,./Images/accordion/e1_s2.jpg,0,0,3313.70000000298,41
247,keys,./Images/keys/e2_s2.jpg,1,1,3181,41
247,keys,./Images/keys/e1_s1.jpg,0,1,3181,41
248,menorah,./Images/menorah/e2_s1.jpg,1,2,4330.40000000596,41
248,menorah,./Images/menorah/e1_s2.jpg,1,2,4330.40000000596,41
249,lotion,./Images/lotion/e2_s2.jpg,1,1,2496.79999999702,41
249,lotion,./Images/lotion/e1_s1.jpg,0,1,2496.79999999702,41
250,tool_box,./Images/tool_box/e2_s2.jpg,0,0,1929.90000000596,41
250,tool_box,./Images/tool_box/e1_s2.jpg,0,0,1929.90000000596,41
251,umbrella,./Images/umbrella/e1_s1.jpg,1,2,2930,41
251,umbrella,./Images/umbrella/e2_s1.jpg,1,2,2930,41
252,book_object,./Images/book_object/e2_s2.jpg,1,2,3629.90000000596,41
252,book_object,./Images/book_object/e1_s2.jpg,1,2,3629.90000000596,41
253,typewriter,./Images/typewriter/e2_s2.jpg,1,2,2513,41
253,typewriter,./Images/typewriter/e1_s1.jpg,1,2,2513,41
254,usb_key,./Images/usb_key/e2_s1.jpg,1,1,4647,41
254,usb_key,./Images/usb_key/e1_s2.jpg,0,1,4647,41
255,leather_bag,./Images/leather_bag/e2_s1.jpg,0,0,1746.70000000298,41
255,leather_bag,./Images/leather_bag/e1_s1.jpg,0,0,1746.70000000298,41
256,microwave,./Images/microwave/e1_s1.jpg,1,2,4130.29999999702,41
256,microwave,./Images/microwave/e2_s1.jpg,1,2,4130.29999999702,41
257,corkscrew,./Images/corkscrew/e2_s1.jpg,1,1,2863.20000000298,41
257,corkscrew,./Images/corkscrew/e1_s2.jpg,0,1,2863.20000000298,41
258,coffeemug,./Images/coffeemug/e2_s1.jpg,1,2,2563.39999999106,41
258,coffeemug,./Images/coffeemug/e1_s2.jpg,1,2,2563.39999999106,41
259,oj,./Images/oj/e2_s2.jpg,1,2,4379.90000000596,41
259,oj,./Images/oj/e1_s2.jpg,1,2,4379.90000000596,41
260,cocktail_umbrella,./Images/cocktail_umbrella/e1_s2.jpg,1,2,3380,41
260,cocktail_umbrella,./Images/cocktail_umbrella/e2_s1.jpg,1,2,3380,41
261,phone_antique,./Images/phone_antique/e1_s2.jpg,1,1,2047.09999999404,41
261,phone_antique,./Images/phone_antique/e2_s2.jpg,0,1,2047.09999999404,41
262,backpack,./Images/backpack/e2_s1.jpg,0,1,4413.5,41
262,backpack,./Images/backpack/e1_s1.jpg,1,1,4413.5,41
263,flask,./Images/flask/e1_s1.jpg,1,1,3047.20000000298,41
263,flask,./Images/flask/e2_s2.jpg,0,1,3047.20000000298,41
264,paper_cup,./Images/paper_cup/e1_s1.jpg,1,2,2046.80000001192,41
264,paper_cup,./Images/paper_cup/e2_s1.jpg,1,2,2046.80000001192,41
265,pail,./Images/pail/e1_s1.jpg,0,1,3347.5,41
265,pail,./Images/pail/e2_s1.jpg,1,1,3347.5,41
266,fridge,./Images/fridge/e2_s1.jpg,1,2,2130.19999998808,41
266,fridge,./Images/fridge/e1_s1.jpg,1,2,2130.19999998808,41
267,chapstick,./Images/chapstick/e2_s2.jpg,1,2,4480.10000000894,41
267,chapstick,./Images/chapstick/e1_s1.jpg,1,2,4480.10000000894,41
268,sugar_bowl,./Images/sugar_bowl/e1_s2.jpg,0,1,2230,41
268,sugar_bowl,./Images/sugar_bowl/e2_s1.jpg,1,1,2230,41
269,watch,./Images/watch/e2_s1.jpg,0,1,3379.79999999702,41
269,watch,./Images/watch/e1_s1.jpg,1,1,3379.79999999702,41
270,mixer,./Images/mixer/e1_s2.jpg,1,2,3830.80000001192,41
270,mixer,./Images/mixer/e2_s1.jpg,1,2,3830.80000001192,41
271,car,./Images/car/e2_s1.jpg,1,1,3779.90000000596,41
271,car,./Images/car/e1_s1.jpg,0,1,3779.90000000596,41
272,sponge,./Images/sponge/e1_s2.jpg,1,2,2930.40000000596,41
272,sponge,./Images/sponge/e2_s1.jpg,1,2,2930.40000000596,41
273,sugar_paper,./Images/sugar_paper/e2_s1.jpg,1,2,2563.60000000894,41
273,sugar_paper,./Images/sugar_paper/e1_s2.jpg,1,2,2563.60000000894,41
274,soap,./Images/soap/e2_s2.jpg,1,2,4563.59999999404,41
274,soap,./Images/soap/e1_s1.jpg,1,2,4563.59999999404,41
275,cooking_pot,./Images/cooking_pot/e1_s2.jpg,1,1,3147.20000000298,41
275,cooking_pot,./Images/cooking_pot/e2_s1.jpg,0,1,3147.20000000298,41
276,tictac,./Images/tictac/e2_s1.jpg,1,2,3880.19999998808,41
276,tictac,./Images/tictac/e1_s2.jpg,1,2,3880.19999998808,41
277,apple,./Images/apple/e1_s2.jpg,1,2,2013.79999999702,41
277,apple,./Images/apple/e2_s2.jpg,1,2,2013.79999999702,41
278,coins,./Images/coins/e2_s2.jpg,1,1,2464.20000000298,41
278,coins,./Images/coins/e1_s2.jpg,0,1,2464.20000000298,41
279,clocks,./Images/clocks/e2_s1.jpg,1,1,2879.10000000894,41
279,clocks,./Images/clocks/e1_s1.jpg,0,1,2879.10000000894,41
280,glass_orange,./Images/glass_orange/e1_s1.jpg,1,1,3298.10000000894,41
280,glass_orange,./Images/glass_orange/e2_s2.jpg,0,1,3298.10000000894,41
281,tissues,./Images/tissues/e2_s1.jpg,1,1,4746.40000000596,41
281,tissues,./Images/tissues/e1_s1.jpg,0,1,4746.40000000596,41
282,pen,./Images/pen/e1_s1.jpg,1,2,3715.5,41
282,pen,./Images/pen/e2_s2.jpg,1,2,3715.5,41
283,wallet,./Images/wallet/e1_s1.jpg,1,1,2580,41
283,wallet,./Images/wallet/e2_s2.jpg,0,1,2580,41
284,breadbox,./Images/breadbox/e2_s1.jpg,1,2,2630.60000000894,41
284,breadbox,./Images/breadbox/e1_s1.jpg,1,2,2630.60000000894,41
285,hand_puppet,./Images/hand_puppet/e1_s1.jpg,1,2,2097.5,41
285,hand_puppet,./Images/hand_puppet/e2_s1.jpg,1,2,2097.5,41
286,tape_dispenser,./Images/tape_dispenser/e1_s2.jpg,1,1,2331.09999999404,41
286,tape_dispenser,./Images/tape_dispenser/e2_s2.jpg,0,1,2331.09999999404,41
287,aabacus,./Images/aabacus/e2_s2.jpg,0,1,2915.10000000894,41
287,aabacus,./Images/aabacus/e1_s2.jpg,1,1,2915.10000000894,41
288,phone,./Images/phone/e2_s2.jpg,1,1,2231.59999999404,41
288,phone,./Images/phone/e1_s2.jpg,0,1,2231.59999999404,41
289,canopener,./Images/canopener/e1_s1.jpg,0,1,2962.79999999702,41
289,canopener,./Images/canopener/e2_s2.jpg,1,1,2962.79999999702,41
290,lemon,./Images/lemon/e1_s1.jpg,1,2,3014.90000000596,41
290,lemon,./Images/lemon/e2_s2.jpg,1,2,3014.90000000596,41
291,headphone_small,./Images/headphone_small/e1_s2.jpg,0,0,5798.30000001192,41
291,headphone_small,./Images/headphone_small/e2_s2.jpg,0,0,5798.30000001192,41
292,shoe,./Images/shoe/e2_s1.jpg,1,2,2681.09999999404,41
292,shoe,./Images/shoe/e1_s2.jpg,1,2,2681.09999999404,41
293,small_box,./Images/small_box/e2_s2.jpg,0,0,3812.5,41
293,small_box,./Images/small_box/e1_s1.jpg,0,0,3812.5,41
294,cereal,./Images/cereal/e2_s1.jpg,0,1,5515.59999999404,41
294,cereal,./Images/cereal/e1_s2.jpg,1,1,5515.59999999404,41
295,poker_chips,./Images/poker_chips/e1_s1.jpg,0,1,3330.40000000596,41
295,poker_chips,./Images/poker_chips/e2_s1.jpg,1,1,3330.40000000596,41
296,container_open,./Images/container_open/e1_s1.jpg,1,1,2330.5,41
296,container_open,./Images/container_open/e2_s2.jpg,0,1,2330.5,41
297,mailbox,./Images/mailbox/e2_s1.jpg,1,1,2630,41
297,mailbox,./Images/mailbox/e1_s1.jpg,0,1,2630,41
298,kettle,./Images/kettle/e1_s1.jpg,1,1,2213.29999999702,41
298,kettle,./Images/kettle/e2_s1.jpg,0,1,2213.29999999702,41
299,baseball_glove,./Images/baseball_glove/e1_s2.jpg,1,2,5313.20000000298,41
299,baseball_glove,./Images/baseball_glove/e2_s1.jpg,1,2,5313.20000000298,41
300,tea_pot,./Images/tea_pot/e1_s1.jpg,1,1,3096.90000000596,41
300,tea_pot,./Images/tea_pot/e2_s2.jpg,0,1,3096.90000000596,41
301,file_box,./Images/file_box/e2_s1.jpg,1,2,1746.70000000298,41
301,file_box,./Images/file_box/e1_s2.jpg,1,2,1746.70000000298,41
302,file_folder,./Images/file_folder/e2_s1.jpg,1,1,2762.89999999106,41
302,file_folder,./Images/file_folder/e1_s1.jpg,0,1,2762.89999999106,41
303,altoid,./Images/altoid/e1_s1.jpg,1,1,2063.5,41
303,altoid,./Images/altoid/e2_s1.jpg,0,1,2063.5,41
304,scanner,./Images/scanner/e1_s1.jpg,1,1,2496.79999999702,41
304,scanner,./Images/scanner/e2_s2.jpg,0,1,2496.79999999702,41
305,chair_recliner,./Images/chair_recliner/e2_s2.jpg,1,1,3213.30000001192,41
305,chair_recliner,./Images/chair_recliner/e1_s2.jpg,0,1,3213.30000001192,41
206,drink,./Images/drink/e2_s1.jpg,0,1,5524.70000004768,23
206,drink,./Images/drink/e1_s2.jpg,1,1,5524.70000004768,23
207,cell,./Images/cell/e2_s1.jpg,1,2,3197.79999995232,23
207,cell,./Images/cell/e1_s1.jpg,1,2,3197.79999995232,23
208,tricycle,./Images/tricycle/e2_s2.jpg,0,1,3180.70000004768,23
208,tricycle,./Images/tricycle/e1_s1.jpg,1,1,3180.70000004768,23
209,toilet,./Images/toilet/e1_s1.jpg,1,2,2797.09999990463,23
209,toilet,./Images/toilet/e2_s2.jpg,1,2,2797.09999990463,23
210,gift_box,./Images/gift_box/e2_s2.jpg,1,2,2698.80000019074,23
210,gift_box,./Images/gift_box/e1_s1.jpg,1,2,2698.80000019074,23
211,chocolate_bar,./Images/chocolate_bar/e2_s1.jpg,1,1,2663.29999995232,23
211,chocolate_bar,./Images/chocolate_bar/e1_s2.jpg,0,1,2663.29999995232,23
212,mailbox,./Images/mailbox/e2_s1.jpg,0,0,3980.20000004768,23
212,mailbox,./Images/mailbox/e1_s1.jpg,0,0,3980.20000004768,23
213,glass_orange,./Images/glass_orange/e1_s1.jpg,1,1,3298.20000004768,23
213,glass_orange,./Images/glass_orange/e2_s1.jpg,0,1,3298.20000004768,23
214,donut,./Images/donut/e2_s1.jpg,1,2,5480.90000009537,23
214,donut,./Images/donut/e1_s2.jpg,1,2,5480.90000009537,23
215,tissues,./Images/tissues/e2_s2.jpg,0,1,3297.5,23
215,tissues,./Images/tissues/e1_s1.jpg,1,1,3297.5,23
216,car,./Images/car/e1_s1.jpg,0,0,3498.20000004768,23
216,car,./Images/car/e2_s2.jpg,0,0,3498.20000004768,23
217,dryer,./Images/dryer/e1_s2.jpg,1,2,4313.89999985695,23
217,dryer,./Images/dryer/e2_s2.jpg,1,2,4313.89999985695,23
218,backpack,./Images/backpack/e2_s1.jpg,1,2,3514.5,23
218,backpack,./Images/backpack/e1_s2.jpg,1,2,3514.5,23
219,chocolate,./Images/chocolate/e1_s2.jpg,1,2,2613.90000009537,23
219,chocolate,./Images/chocolate/e2_s1.jpg,1,2,2613.90000009537,23
220,mixer,./Images/mixer/e2_s2.jpg,0,0,10447.5,23
220,mixer,./Images/mixer/e1_s1.jpg,0,0,10447.5,23
221,pie,./Images/pie/e2_s1.jpg,1,2,4481.09999990463,23
221,pie,./Images/pie/e1_s1.jpg,1,2,4481.09999990463,23
222,cocktail_umbrella,./Images/cocktail_umbrella/e1_s1.jpg,1,2,3030.30000019074,23
222,cocktail_umbrella,./Images/cocktail_umbrella/e2_s1.jpg,1,2,3030.30000019074,23
223,aabacus,./Images/aabacus/e1_s2.jpg,0,0,3314.59999990463,23
223,aabacus,./Images/aabacus/e2_s2.jpg,0,0,3314.59999990463,23
224,bottle_perfume,./Images/bottle_perfume/e1_s2.jpg,0,1,3597.39999985695,23
224,bottle_perfume,./Images/bottle_perfume/e2_s2.jpg,1,1,3597.39999985695,23
225,corkscrew,./Images/corkscrew/e1_s1.jpg,1,2,2747.59999990463,23
225,corkscrew,./Images/corkscrew/e2_s2.jpg,1,2,2747.59999990463,23
226,chips,./Images/chips/e1_s2.jpg,0,1,4330.39999985695,23
226,chips,./Images/chips/e2_s1.jpg,1,1,4330.39999985695,23
227,watch,./Images/watch/e2_s2.jpg,0,1,2247,23
227,watch,./Images/watch/e1_s1.jpg,1,1,2247,23
228,coffeemug,./Images/coffeemug/e2_s2.jpg,0,1,2048.20000004768,23
228,coffeemug,./Images/coffeemug/e1_s2.jpg,1,1,2048.20000004768,23
229,lunchbox,./Images/lunchbox/e1_s1.jpg,1,2,2530.10000014305,23
229,lunchbox,./Images/lunchbox/e2_s2.jpg,1,2,2530.10000014305,23
230,pail,./Images/pail/e1_s1.jpg,1,2,2129.60000014305,23
230,pail,./Images/pail/e2_s2.jpg,1,2,2129.60000014305,23
231,container_open,./Images/container_open/e2_s2.jpg,1,2,2447.70000004768,23
231,container_open,./Images/container_open/e1_s2.jpg,1,2,2447.70000004768,23
232,dresser,./Images/dresser/e1_s1.jpg,0,1,2230.20000004768,23
232,dresser,./Images/dresser/e2_s2.jpg,1,1,2230.20000004768,23
233,file_box,./Images/file_box/e2_s2.jpg,1,1,1698.29999995232,23
233,file_box,./Images/file_box/e1_s1.jpg,0,1,1698.29999995232,23
234,tape_dispenser,./Images/tape_dispenser/e2_s1.jpg,1,2,2063.59999990463,23
234,tape_dispenser,./Images/tape_dispenser/e1_s1.jpg,1,2,2063.59999990463,23
235,sharpie_pens,./Images/sharpie_pens/e1_s1.jpg,1,2,1714.5,23
235,sharpie_pens,./Images/sharpie_pens/e2_s1.jpg,1,2,1714.5,23
236,clocks,./Images/clocks/e1_s2.jpg,1,1,2513.30000019074,23
236,clocks,./Images/clocks/e2_s1.jpg,0,1,2513.30000019074,23
237,sugar_paper,./Images/sugar_paper/e1_s1.jpg,1,1,1997.5,23
237,sugar_paper,./Images/sugar_paper/e2_s2.jpg,0,1,1997.5,23
238,chair_recliner,./Images/chair_recliner/e2_s2.jpg,1,1,2547.70000004768,23
238,chair_recliner,./Images/chair_recliner/e1_s1.jpg,0,1,2547.70000004768,23
239,keys,./Images/keys/e1_s1.jpg,1,2,2246.20000004768,23
239,keys,./Images/keys/e2_s1.jpg,1,2,2246.20000004768,23
240,theater_seats,./Images/theater_seats/e1_s2.jpg,1,1,1915.09999990463,23
240,theater_seats,./Images/theater_seats/e2_s2.jpg,0,1,1915.09999990463,23
241,oj,./Images/oj/e2_s2.jpg,1,1,2797.29999995232,23
241,oj,./Images/oj/e1_s1.jpg,0,1,2797.29999995232,23
242,canopener,./Images/canopener/e1_s1.jpg,0,1,1945.79999995232,23
242,canopener,./Images/canopener/e2_s2.jpg,1,1,1945.79999995232,23
243,chapstick,./Images/chapstick/e1_s1.jpg,0,1,2413.80000019073,23
243,chapstick,./Images/chapstick/e2_s1.jpg,1,1,2413.80000019073,23
244,coins,./Images/coins/e2_s1.jpg,1,2,3246.80000019074,23
244,coins,./Images/coins/e1_s2.jpg,1,2,3246.80000019074,23
245,small_box,./Images/small_box/e2_s2.jpg,1,2,2847.20000004768,23
245,small_box,./Images/small_box/e1_s1.jpg,1,2,2847.20000004768,23
246,menorah,./Images/menorah/e1_s2.jpg,1,2,2631.5,23
246,menorah,./Images/menorah/e2_s1.jpg,1,2,2631.5,23
247,garlic_press,./Images/garlic_press/e1_s1.jpg,1,1,3181.10000014305,23
247,garlic_press,./Images/garlic_press/e2_s1.jpg,0,1,3181.10000014305,23
248,sponge,./Images/sponge/e1_s2.jpg,1,2,2265.20000004768,23
248,sponge,./Images/sponge/e2_s1.jpg,1,2,2265.20000004768,23
249,soap,./Images/soap/e2_s2.jpg,1,2,3063.20000004768,23
249,soap,./Images/soap/e1_s1.jpg,1,2,3063.20000004768,23
250,typewriter,./Images/typewriter/e1_s2.jpg,0,1,2130.5,23
250,typewriter,./Images/typewriter/e2_s2.jpg,1,1,2130.5,23
251,menus,./Images/menus/e2_s2.jpg,0,1,3597.5,23
251,menus,./Images/menus/e1_s1.jpg,1,1,3597.5,23
252,cooking_pot,./Images/cooking_pot/e1_s1.jpg,0,1,2513.79999995232,23
252,cooking_pot,./Images/cooking_pot/e2_s2.jpg,1,1,2513.79999995232,23
253,hourglass,./Images/hourglass/e2_s2.jpg,1,2,2313.90000009537,23
253,hourglass,./Images/hourglass/e1_s1.jpg,1,2,2313.90000009537,23
254,umbrella,./Images/umbrella/e2_s1.jpg,1,2,2481.20000004768,23
254,umbrella,./Images/umbrella/e1_s2.jpg,1,2,2481.20000004768,23
255,baseball_glove,./Images/baseball_glove/e1_s1.jpg,1,2,2947.10000014305,23
255,baseball_glove,./Images/baseball_glove/e2_s2.jpg,1,2,2947.10000014305,23
256,headphone_small,./Images/headphone_small/e1_s2.jpg,0,1,2665,23
256,headphone_small,./Images/headphone_small/e2_s1.jpg,1,1,2665,23
257,fridge,./Images/fridge/e2_s1.jpg,1,2,2180.40000009537,23
257,fridge,./Images/fridge/e1_s1.jpg,1,2,2180.40000009537,23
258,shoe,./Images/shoe/e1_s1.jpg,1,2,2647.30000019074,23
258,shoe,./Images/shoe/e2_s1.jpg,1,2,2647.30000019074,23
259,phone_antique,./Images/phone_antique/e1_s2.jpg,0,1,3547.20000004768,23
259,phone_antique,./Images/phone_antique/e2_s2.jpg,1,1,3547.20000004768,23
260,hand_puppet,./Images/hand_puppet/e1_s2.jpg,1,2,2664.69999980927,23
260,hand_puppet,./Images/hand_puppet/e2_s1.jpg,1,2,2664.69999980927,23
261,tool_box,./Images/tool_box/e1_s1.jpg,1,1,3247.59999990463,23
261,tool_box,./Images/tool_box/e2_s2.jpg,0,1,3247.59999990463,23
262,file_folder,./Images/file_folder/e2_s1.jpg,1,2,2214.70000004768,23
262,file_folder,./Images/file_folder/e1_s2.jpg,1,2,2214.70000004768,23
263,laptop,./Images/laptop/e1_s1.jpg,1,2,2080.10000014305,23
263,laptop,./Images/laptop/e2_s2.jpg,1,2,2080.10000014305,23
264,cabbage,./Images/cabbage/e1_s1.jpg,1,2,2148.20000004768,23
264,cabbage,./Images/cabbage/e2_s1.jpg,1,2,2148.20000004768,23
265,tictac,./Images/tictac/e2_s1.jpg,1,2,2629.80000019074,23
265,tictac,./Images/tictac/e1_s2.jpg,1,2,2629.80000019074,23
266,scanner,./Images/scanner/e2_s1.jpg,1,1,2113,23
266,scanner,./Images/scanner/e1_s2.jpg,0,1,2113,23
267,flask,./Images/flask/e2_s2.jpg,0,1,1797.20000004768,23
267,flask,./Images/flask/e1_s2.jpg,1,1,1797.20000004768,23
268,gummy,./Images/gummy/e2_s2.jpg,1,2,2347.40000009537,23
268,gummy,./Images/gummy/e1_s1.jpg,1,2,2347.40000009537,23
269,plastic_bottle,./Images/plastic_bottle/e2_s2.jpg,1,1,2446.30000019074,23
269,plastic_bottle,./Images/plastic_bottle/e1_s1.jpg,0,1,2446.30000019074,23
270,lotion,./Images/lotion/e1_s2.jpg,0,1,4781.39999985695,23
270,lotion,./Images/lotion/e2_s2.jpg,1,1,4781.39999985695,23
271,toy_truck,./Images/toy_truck/e2_s2.jpg,0,1,1699.10000014305,23
271,toy_truck,./Images/toy_truck/e1_s1.jpg,1,1,1699.10000014305,23
272,notebook,./Images/notebook/e1_s1.jpg,1,1,2329.60000014305,23
272,notebook,./Images/notebook/e2_s1.jpg,0,1,2329.60000014305,23
273,cabinet,./Images/cabinet/e1_s2.jpg,1,2,1730.70000004768,23
273,cabinet,./Images/cabinet/e2_s2.jpg,1,2,1730.70000004768,23
274,altoid,./Images/altoid/e1_s2.jpg,1,1,2514.69999980927,23
274,altoid,./Images/altoid/e2_s1.jpg,0,1,2514.69999980927,23
275,usb_key,./Images/usb_key/e2_s1.jpg,1,2,2930,23
275,usb_key,./Images/usb_key/e1_s2.jpg,1,2,2930,23
276,accordion,./Images/accordion/e1_s2.jpg,0,1,2680.90000009537,23
276,accordion,./Images/accordion/e2_s1.jpg,1,1,2680.90000009537,23
277,scissors,./Images/scissors/e1_s1.jpg,1,1,1997.70000004768,23
277,scissors,./Images/scissors/e2_s2.jpg,0,1,1997.70000004768,23
278,locks,./Images/locks/e1_s2.jpg,1,1,3030.40000009537,23
278,locks,./Images/locks/e2_s1.jpg,0,1,3030.40000009537,23
279,peanut_butter,./Images/peanut_butter/e2_s2.jpg,0,0,2365.09999990463,23
279,peanut_butter,./Images/peanut_butter/e1_s1.jpg,0,0,2365.09999990463,23
280,reeses,./Images/reeses/e2_s2.jpg,1,2,1878.40000009537,23
280,reeses,./Images/reeses/e1_s1.jpg,1,2,1878.40000009537,23
281,poker_chips,./Images/poker_chips/e2_s1.jpg,1,1,3131,23
281,poker_chips,./Images/poker_chips/e1_s2.jpg,0,1,3131,23
282,cookie,./Images/cookie/e1_s1.jpg,1,2,2662.89999985695,23
282,cookie,./Images/cookie/e2_s2.jpg,1,2,2662.89999985695,23
283,mustard,./Images/mustard/e1_s2.jpg,1,2,2165.20000004768,23
283,mustard,./Images/mustard/e2_s1.jpg,1,2,2165.20000004768,23
284,paper_cup,./Images/paper_cup/e2_s1.jpg,1,2,2464,23
284,paper_cup,./Images/paper_cup/e1_s1.jpg,1,2,2464,23
285,book_object,./Images/book_object/e2_s2.jpg,1,2,2214,23
285,book_object,./Images/book_object/e1_s1.jpg,1,2,2214,23
286,metronome,./Images/metronome/e2_s2.jpg,0,1,2029.69999980927,23
286,metronome,./Images/metronome/e1_s1.jpg,1,1,2029.69999980927,23
287,apple,./Images/apple/e1_s2.jpg,1,2,1514.70000004768,23
287,apple,./Images/apple/e2_s1.jpg,1,2,1514.70000004768,23
288,cereal,./Images/cereal/e1_s1.jpg,1,2,2330.79999995232,23
288,cereal,./Images/cereal/e2_s1.jpg,1,2,2330.79999995232,23
289,leather_bag,./Images/leather_bag/e1_s2.jpg,1,2,2680.5,23
289,leather_bag,./Images/leather_bag/e2_s1.jpg,1,2,2680.5,23
290,lottery_ticket,./Images/lottery_ticket/e2_s1.jpg,1,1,3013.70000004768,23
290,lottery_ticket,./Images/lottery_ticket/e1_s1.jpg,0,1,3013.70000004768,23
291,lemon,./Images/lemon/e2_s1.jpg,1,2,1697.90000009537,23
291,lemon,./Images/lemon/e1_s2.jpg,1,2,1697.90000009537,23
292,wallet,./Images/wallet/e2_s2.jpg,0,1,2564,23
292,wallet,./Images/wallet/e1_s1.jpg,1,1,2564,23
293,bottle_liquid,./Images/bottle_liquid/e2_s1.jpg,1,2,1897.09999990463,23
293,bottle_liquid,./Images/bottle_liquid/e1_s2.jpg,1,2,1897.09999990463,23
294,yarn,./Images/yarn/e2_s2.jpg,1,2,1831,23
294,yarn,./Images/yarn/e1_s1.jpg,1,2,1831,23
295,sugar_bowl,./Images/sugar_bowl/e1_s1.jpg,1,1,3715,23
295,sugar_bowl,./Images/sugar_bowl/e2_s2.jpg,0,1,3715,23
296,microwave,./Images/microwave/e1_s1.jpg,1,2,1979.80000019074,23
296,microwave,./Images/microwave/e2_s2.jpg,1,2,1979.80000019074,23
297,pen,./Images/pen/e1_s2.jpg,1,1,3214.39999985695,23
297,pen,./Images/pen/e2_s1.jpg,0,1,3214.39999985695,23
298,kettle,./Images/kettle/e1_s1.jpg,0,0,2064.70000004768,23
298,kettle,./Images/kettle/e2_s2.jpg,0,0,2064.70000004768,23
299,book,./Images/book/e1_s2.jpg,1,1,1829,23
299,book,./Images/book/e2_s1.jpg,0,1,1829,23
300,chip,./Images/chip/e1_s2.jpg,1,1,3181,23
300,chip,./Images/chip/e2_s1.jpg,0,1,3181,23
301,cardbox,./Images/cardbox/e1_s2.jpg,0,0,2615.09999990463,23
301,cardbox,./Images/cardbox/e2_s2.jpg,0,0,2615.09999990463,23
302,bills,./Images/bills/e1_s1.jpg,1,2,1878.19999980927,23
302,bills,./Images/bills/e2_s2.jpg,1,2,1878.19999980927,23
303,phone,./Images/phone/e1_s1.jpg,1,2,3148,23
303,phone,./Images/phone/e2_s2.jpg,1,2,3148,23
304,breadbox,./Images/breadbox/e2_s1.jpg,1,1,2448,23
304,breadbox,./Images/breadbox/e1_s2.jpg,0,1,2448,23
305,tea_pot,./Images/tea_pot/e1_s2.jpg,0,1,3012.70000004768,23
305,tea_pot,./Images/tea_pot/e2_s1.jpg,1,1,3012.70000004768,23
206,bottle_liquid,./Images/bottle_liquid/e1_s2.jpg,1,2,11266.3999998569,9
206,bottle_liquid,./Images/bottle_liquid/e2_s2.jpg,1,2,11266.3999998569,9
207,cooking_pot,./Images/cooking_pot/e2_s2.jpg,1,2,7553.70000004768,9
207,cooking_pot,./Images/cooking_pot/e1_s2.jpg,1,2,7553.70000004768,9
208,bills,./Images/bills/e1_s2.jpg,0,1,2222.89999985695,9
208,bills,./Images/bills/e2_s2.jpg,1,1,2222.89999985695,9
209,clocks,./Images/clocks/e1_s1.jpg,0,1,3205.90000009537,9
209,clocks,./Images/clocks/e2_s1.jpg,1,1,3205.90000009537,9
210,cardbox,./Images/cardbox/e2_s2.jpg,0,0,3068.40000009537,9
210,cardbox,./Images/cardbox/e1_s2.jpg,0,0,3068.40000009537,9
211,plastic_bottle,./Images/plastic_bottle/e2_s2.jpg,1,2,2535.5,9
211,plastic_bottle,./Images/plastic_bottle/e1_s1.jpg,1,2,2535.5,9
212,gift_box,./Images/gift_box/e2_s2.jpg,1,1,3439.90000009537,9
212,gift_box,./Images/gift_box/e1_s2.jpg,0,1,3439.90000009537,9
213,pen,./Images/pen/e2_s2.jpg,0,1,3457.89999985695,9
213,pen,./Images/pen/e1_s2.jpg,1,1,3457.89999985695,9
214,chips,./Images/chips/e2_s1.jpg,1,2,2650,9
214,chips,./Images/chips/e1_s1.jpg,1,2,2650,9
215,accordion,./Images/accordion/e1_s1.jpg,1,1,4069.09999990463,9
215,accordion,./Images/accordion/e2_s1.jpg,0,1,4069.09999990463,9
216,apple,./Images/apple/e2_s1.jpg,1,2,1918,9
216,apple,./Images/apple/e1_s1.jpg,1,2,1918,9
217,hourglass,./Images/hourglass/e2_s2.jpg,0,1,3524.5,9
217,hourglass,./Images/hourglass/e1_s1.jpg,1,1,3524.5,9
218,cookie,./Images/cookie/e2_s1.jpg,1,2,2693.69999980927,9
218,cookie,./Images/cookie/e1_s1.jpg,1,2,2693.69999980927,9
219,aabacus,./Images/aabacus/e1_s2.jpg,1,2,3541.79999995232,9
219,aabacus,./Images/aabacus/e2_s1.jpg,1,2,3541.79999995232,9
220,file_box,./Images/file_box/e1_s1.jpg,0,1,3713.70000004768,9
220,file_box,./Images/file_box/e2_s2.jpg,1,1,3713.70000004768,9
221,chocolate_bar,./Images/chocolate_bar/e2_s1.jpg,1,2,2971.5,9
221,chocolate_bar,./Images/chocolate_bar/e1_s1.jpg,1,2,2971.5,9
222,toy_truck,./Images/toy_truck/e2_s1.jpg,1,2,2375.20000004768,9
222,toy_truck,./Images/toy_truck/e1_s2.jpg,1,2,2375.20000004768,9
223,leather_bag,./Images/leather_bag/e2_s1.jpg,1,1,4141.29999995232,9
223,leather_bag,./Images/leather_bag/e1_s1.jpg,0,1,4141.29999995232,9
224,mailbox,./Images/mailbox/e1_s1.jpg,1,2,3335.59999990463,9
224,mailbox,./Images/mailbox/e2_s1.jpg,1,2,3335.59999990463,9
225,reeses,./Images/reeses/e2_s2.jpg,1,2,2876,9
225,reeses,./Images/reeses/e1_s2.jpg,1,2,2876,9
226,lunchbox,./Images/lunchbox/e2_s1.jpg,0,1,3598.40000009537,9
226,lunchbox,./Images/lunchbox/e1_s2.jpg,1,1,3598.40000009537,9
227,laptop,./Images/laptop/e1_s1.jpg,1,1,2698.89999985695,9
227,laptop,./Images/laptop/e2_s1.jpg,0,1,2698.89999985695,9
228,drink,./Images/drink/e1_s1.jpg,1,2,2890.80000019074,9
228,drink,./Images/drink/e2_s1.jpg,1,2,2890.80000019074,9
229,garlic_press,./Images/garlic_press/e2_s2.jpg,1,2,3307.59999990463,9
229,garlic_press,./Images/garlic_press/e1_s2.jpg,1,2,3307.59999990463,9
230,lottery_ticket,./Images/lottery_ticket/e1_s2.jpg,1,2,4519.5,9
230,lottery_ticket,./Images/lottery_ticket/e2_s1.jpg,1,2,4519.5,9
231,usb_key,./Images/usb_key/e2_s1.jpg,1,2,3063,9
231,usb_key,./Images/usb_key/e1_s2.jpg,1,2,3063,9
232,locks,./Images/locks/e1_s2.jpg,1,2,1875.70000004768,9
232,locks,./Images/locks/e2_s1.jpg,1,2,1875.70000004768,9
233,kettle,./Images/kettle/e1_s2.jpg,1,2,2195.90000009537,9
233,kettle,./Images/kettle/e2_s1.jpg,1,2,2195.90000009537,9
234,corkscrew,./Images/corkscrew/e2_s2.jpg,1,2,2466,9
234,corkscrew,./Images/corkscrew/e1_s2.jpg,1,2,2466,9
235,headphone_small,./Images/headphone_small/e2_s2.jpg,1,2,2112.5,9
235,headphone_small,./Images/headphone_small/e1_s2.jpg,1,2,2112.5,9
236,breadbox,./Images/breadbox/e1_s2.jpg,1,2,3966.29999995232,9
236,breadbox,./Images/breadbox/e2_s2.jpg,1,2,3966.29999995232,9
237,umbrella,./Images/umbrella/e1_s1.jpg,0,1,3013,9
237,umbrella,./Images/umbrella/e2_s1.jpg,1,1,3013,9
238,coffeemug,./Images/coffeemug/e2_s1.jpg,1,2,3237.20000004768,9
238,coffeemug,./Images/coffeemug/e1_s2.jpg,1,2,3237.20000004768,9
239,cabinet,./Images/cabinet/e1_s1.jpg,0,1,2128.40000009537,9
239,cabinet,./Images/cabinet/e2_s2.jpg,1,1,2128.40000009537,9
240,phone_antique,./Images/phone_antique/e2_s2.jpg,0,0,2302.30000019074,9
240,phone_antique,./Images/phone_antique/e1_s2.jpg,0,0,2302.30000019074,9
241,mixer,./Images/mixer/e2_s1.jpg,1,2,3331.29999995232,9
241,mixer,./Images/mixer/e1_s1.jpg,1,2,3331.29999995232,9
242,menorah,./Images/menorah/e2_s1.jpg,0,0,3210.69999980927,9
242,menorah,./Images/menorah/e1_s1.jpg,0,0,3210.69999980927,9
243,tool_box,./Images/tool_box/e1_s2.jpg,1,2,2198.40000009537,9
243,tool_box,./Images/tool_box/e2_s2.jpg,1,2,2198.40000009537,9
244,wallet,./Images/wallet/e2_s2.jpg,1,2,2420.09999990463,9
244,wallet,./Images/wallet/e1_s1.jpg,1,2,2420.09999990463,9
245,book,./Images/book/e1_s1.jpg,1,1,2990.80000019074,9
245,book,./Images/book/e2_s2.jpg,0,1,2990.80000019074,9
246,baseball_glove,./Images/baseball_glove/e1_s1.jpg,1,2,2561.10000014305,9
246,baseball_glove,./Images/baseball_glove/e2_s1.jpg,1,2,2561.10000014305,9
247,hand_puppet,./Images/hand_puppet/e1_s2.jpg,0,1,2219.29999995232,9
247,hand_puppet,./Images/hand_puppet/e2_s2.jpg,1,1,2219.29999995232,9
248,glass_orange,./Images/glass_orange/e2_s1.jpg,1,2,3421.89999985695,9
248,glass_orange,./Images/glass_orange/e1_s1.jpg,1,2,3421.89999985695,9
249,coins,./Images/coins/e2_s1.jpg,1,2,2886.40000009537,9
249,coins,./Images/coins/e1_s1.jpg,1,2,2886.40000009537,9
250,scanner,./Images/scanner/e1_s1.jpg,1,2,4825.89999985695,9
250,scanner,./Images/scanner/e2_s2.jpg,1,2,4825.89999985695,9
251,paper_cup,./Images/paper_cup/e1_s1.jpg,1,1,2483.60000014305,9
251,paper_cup,./Images/paper_cup/e2_s2.jpg,0,1,2483.60000014305,9
252,chapstick,./Images/chapstick/e1_s2.jpg,1,2,3538,9
252,chapstick,./Images/chapstick/e2_s1.jpg,1,2,3538,9
253,gummy,./Images/gummy/e1_s2.jpg,1,1,2176.09999990463,9
253,gummy,./Images/gummy/e2_s1.jpg,0,1,2176.09999990463,9
254,pie,./Images/pie/e2_s1.jpg,1,2,1737.79999995232,9
254,pie,./Images/pie/e1_s1.jpg,1,2,1737.79999995232,9
255,car,./Images/car/e2_s1.jpg,1,2,2428.80000019074,9
255,car,./Images/car/e1_s1.jpg,1,2,2428.80000019074,9
256,dresser,./Images/dresser/e2_s2.jpg,0,1,1722.59999990463,9
256,dresser,./Images/dresser/e1_s2.jpg,1,1,1722.59999990463,9
257,backpack,./Images/backpack/e1_s2.jpg,1,1,2213.70000004768,9
257,backpack,./Images/backpack/e2_s2.jpg,0,1,2213.70000004768,9
258,tictac,./Images/tictac/e1_s1.jpg,1,1,3275.39999985695,9
258,tictac,./Images/tictac/e2_s1.jpg,0,1,3275.39999985695,9
259,metronome,./Images/metronome/e1_s1.jpg,1,2,2181.09999990463,9
259,metronome,./Images/metronome/e2_s1.jpg,1,2,2181.09999990463,9
260,yarn,./Images/yarn/e1_s2.jpg,1,2,2435.60000014305,9
260,yarn,./Images/yarn/e2_s2.jpg,1,2,2435.60000014305,9
261,lemon,./Images/lemon/e1_s1.jpg,1,1,1764.89999985695,9
261,lemon,./Images/lemon/e2_s1.jpg,0,1,1764.89999985695,9
262,sugar_bowl,./Images/sugar_bowl/e1_s1.jpg,0,1,2448,9
262,sugar_bowl,./Images/sugar_bowl/e2_s1.jpg,1,1,2448,9
263,soap,./Images/soap/e2_s2.jpg,1,2,4126.90000009537,9
263,soap,./Images/soap/e1_s1.jpg,1,2,4126.90000009537,9
264,small_box,./Images/small_box/e1_s2.jpg,0,1,2060,9
264,small_box,./Images/small_box/e2_s2.jpg,1,1,2060,9
265,mustard,./Images/mustard/e1_s2.jpg,1,1,3197.39999985695,9
265,mustard,./Images/mustard/e2_s2.jpg,0,1,3197.39999985695,9
266,lotion,./Images/lotion/e2_s2.jpg,0,1,4020.79999995232,9
266,lotion,./Images/lotion/e1_s2.jpg,1,1,4020.79999995232,9
267,menus,./Images/menus/e2_s2.jpg,0,1,3220.89999985695,9
267,menus,./Images/menus/e1_s2.jpg,1,1,3220.89999985695,9
268,toilet,./Images/toilet/e2_s2.jpg,1,1,3600.79999995232,9
268,toilet,./Images/toilet/e1_s2.jpg,0,1,3600.79999995232,9
269,theater_seats,./Images/theater_seats/e1_s1.jpg,1,1,2216.90000009537,9
269,theater_seats,./Images/theater_seats/e2_s1.jpg,0,1,2216.90000009537,9
270,dryer,./Images/dryer/e2_s2.jpg,1,2,3162.90000009537,9
270,dryer,./Images/dryer/e1_s1.jpg,1,2,3162.90000009537,9
271,book_object,./Images/book_object/e2_s1.jpg,1,2,2866.30000019074,9
271,book_object,./Images/book_object/e1_s1.jpg,1,2,2866.30000019074,9
272,bottle_perfume,./Images/bottle_perfume/e1_s1.jpg,1,2,2248.59999990463,9
272,bottle_perfume,./Images/bottle_perfume/e2_s2.jpg,1,2,2248.59999990463,9
273,oj,./Images/oj/e1_s2.jpg,1,1,2583.79999995232,9
273,oj,./Images/oj/e2_s2.jpg,0,1,2583.79999995232,9
274,shoe,./Images/shoe/e2_s1.jpg,1,2,2675.10000014305,9
274,shoe,./Images/shoe/e1_s1.jpg,1,2,2675.10000014305,9
275,cell,./Images/cell/e1_s1.jpg,1,2,3890.59999990463,9
275,cell,./Images/cell/e2_s2.jpg,1,2,3890.59999990463,9
276,donut,./Images/donut/e1_s2.jpg,1,2,2073,9
276,donut,./Images/donut/e2_s1.jpg,1,2,2073,9
277,cocktail_umbrella,./Images/cocktail_umbrella/e2_s2.jpg,1,1,2228.29999995232,9
277,cocktail_umbrella,./Images/cocktail_umbrella/e1_s1.jpg,0,1,2228.29999995232,9
278,watch,./Images/watch/e2_s2.jpg,0,1,3988.39999985695,9
278,watch,./Images/watch/e1_s1.jpg,1,1,3988.39999985695,9
279,keys,./Images/keys/e1_s2.jpg,1,2,2241.40000009537,9
279,keys,./Images/keys/e2_s1.jpg,1,2,2241.40000009537,9
280,tricycle,./Images/tricycle/e2_s1.jpg,0,0,1834.70000004768,9
280,tricycle,./Images/tricycle/e1_s2.jpg,0,0,1834.70000004768,9
281,microwave,./Images/microwave/e2_s1.jpg,1,1,3526.79999995232,9
281,microwave,./Images/microwave/e1_s2.jpg,0,1,3526.79999995232,9
282,canopener,./Images/canopener/e2_s2.jpg,1,1,2302.40000009537,9
282,canopener,./Images/canopener/e1_s2.jpg,0,1,2302.40000009537,9
283,container_open,./Images/container_open/e1_s2.jpg,1,1,1621.29999995232,9
283,container_open,./Images/container_open/e2_s1.jpg,0,1,1621.29999995232,9
284,tea_pot,./Images/tea_pot/e1_s1.jpg,0,0,1861.09999990463,9
284,tea_pot,./Images/tea_pot/e2_s1.jpg,0,0,1861.09999990463,9
285,chair_recliner,./Images/chair_recliner/e2_s2.jpg,1,1,2047.5,9
285,chair_recliner,./Images/chair_recliner/e1_s2.jpg,0,1,2047.5,9
286,tissues,./Images/tissues/e1_s2.jpg,1,1,1650.30000019073,9
286,tissues,./Images/tissues/e2_s2.jpg,0,1,1650.30000019073,9
287,peanut_butter,./Images/peanut_butter/e1_s2.jpg,1,2,2934.5,9
287,peanut_butter,./Images/peanut_butter/e2_s1.jpg,1,2,2934.5,9
288,sharpie_pens,./Images/sharpie_pens/e1_s2.jpg,0,1,1983.40000009537,9
288,sharpie_pens,./Images/sharpie_pens/e2_s2.jpg,1,1,1983.40000009537,9
289,flask,./Images/flask/e2_s2.jpg,0,0,1241,9
289,flask,./Images/flask/e1_s1.jpg,0,0,1241,9
290,pail,./Images/pail/e1_s1.jpg,1,2,1932.29999995232,9
290,pail,./Images/pail/e2_s1.jpg,1,2,1932.29999995232,9
291,file_folder,./Images/file_folder/e1_s2.jpg,1,1,3046.5,9
291,file_folder,./Images/file_folder/e2_s1.jpg,0,1,3046.5,9
292,phone,./Images/phone/e1_s2.jpg,0,1,3132.60000014305,9
292,phone,./Images/phone/e2_s1.jpg,1,1,3132.60000014305,9
293,chocolate,./Images/chocolate/e1_s2.jpg,1,2,2497.20000004768,9
293,chocolate,./Images/chocolate/e2_s2.jpg,1,2,2497.20000004768,9
294,sugar_paper,./Images/sugar_paper/e2_s2.jpg,0,1,2032.5,9
294,sugar_paper,./Images/sugar_paper/e1_s2.jpg,1,1,2032.5,9
295,typewriter,./Images/typewriter/e2_s2.jpg,0,0,2158.29999995232,9
295,typewriter,./Images/typewriter/e1_s2.jpg,0,0,2158.29999995232,9
296,cereal,./Images/cereal/e2_s2.jpg,1,1,1972.90000009537,9
296,cereal,./Images/cereal/e1_s1.jpg,0,1,1972.90000009537,9
297,fridge,./Images/fridge/e2_s2.jpg,1,2,2345.5,9
297,fridge,./Images/fridge/e1_s1.jpg,1,2,2345.5,9
298,altoid,./Images/altoid/e1_s2.jpg,1,1,2212.39999985695,9
298,altoid,./Images/altoid/e2_s2.jpg,0,1,2212.39999985695,9
299,sponge,./Images/sponge/e1_s2.jpg,1,1,1918.79999995232,9
299,sponge,./Images/sponge/e2_s2.jpg,0,1,1918.79999995232,9
300,notebook,./Images/notebook/e1_s2.jpg,0,1,2503,9
300,notebook,./Images/notebook/e2_s1.jpg,1,1,2503,9
301,cabbage,./Images/cabbage/e2_s1.jpg,1,2,3098.10000014305,9
301,cabbage,./Images/cabbage/e1_s1.jpg,1,2,3098.10000014305,9
302,poker_chips,./Images/poker_chips/e1_s2.jpg,1,2,2182.5,9
302,poker_chips,./Images/poker_chips/e2_s2.jpg,1,2,2182.5,9
303,scissors,./Images/scissors/e2_s2.jpg,0,1,1670.5,9
303,scissors,./Images/scissors/e1_s1.jpg,1,1,1670.5,9
304,tape_dispenser,./Images/tape_dispenser/e1_s2.jpg,0,0,4357.10000014305,9
304,tape_dispenser,./Images/tape_dispenser/e2_s1.jpg,0,0,4357.10000014305,9
305,chip,./Images/chip/e1_s1.jpg,1,2,2352.39999985695,9
305,chip,./Images/chip/e2_s1.jpg,1,2,2352.39999985695,9
206,fridge,./Images/fridge/e2_s2.jpg,1,2,4300.70000004768,31
206,fridge,./Images/fridge/e1_s1.jpg,1,2,4300.70000004768,31
207,file_folder,./Images/file_folder/e2_s1.jpg,1,2,5400,31
207,file_folder,./Images/file_folder/e1_s2.jpg,1,2,5400,31
208,metronome,./Images/metronome/e1_s2.jpg,0,0,8380.69999998808,31
208,metronome,./Images/metronome/e2_s1.jpg,0,0,8380.69999998808,31
209,tricycle,./Images/tricycle/e2_s2.jpg,0,1,6310.39999997616,31
209,tricycle,./Images/tricycle/e1_s1.jpg,1,1,6310.39999997616,31
210,lottery_ticket,./Images/lottery_ticket/e1_s1.jpg,0,0,12303.9000000358,31
210,lottery_ticket,./Images/lottery_ticket/e2_s2.jpg,0,0,12303.9000000358,31
211,scanner,./Images/scanner/e1_s2.jpg,1,2,3534.5,31
211,scanner,./Images/scanner/e2_s1.jpg,1,2,3534.5,31
212,bottle_perfume,./Images/bottle_perfume/e1_s2.jpg,1,2,5553.39999997616,31
212,bottle_perfume,./Images/bottle_perfume/e2_s1.jpg,1,2,5553.39999997616,31
213,lemon,./Images/lemon/e1_s1.jpg,1,2,5004.89999997616,31
213,lemon,./Images/lemon/e2_s2.jpg,1,2,5004.89999997616,31
214,book,./Images/book/e1_s2.jpg,1,2,12657.1999999881,31
214,book,./Images/book/e2_s1.jpg,1,2,12657.1999999881,31
215,chair_recliner,./Images/chair_recliner/e2_s2.jpg,1,2,4846.80000001192,31
215,chair_recliner,./Images/chair_recliner/e1_s1.jpg,1,2,4846.80000001192,31
216,umbrella,./Images/umbrella/e2_s2.jpg,1,2,5604.69999998808,31
216,umbrella,./Images/umbrella/e1_s1.jpg,1,2,5604.69999998808,31
217,altoid,./Images/altoid/e2_s2.jpg,1,2,5651.5,31
217,altoid,./Images/altoid/e1_s2.jpg,1,2,5651.5,31
218,watch,./Images/watch/e2_s1.jpg,0,1,18321,31
218,watch,./Images/watch/e1_s2.jpg,1,1,18321,31
219,drink,./Images/drink/e1_s1.jpg,0,1,8698.40000003576,31
219,drink,./Images/drink/e2_s2.jpg,1,1,8698.40000003576,31
220,lotion,./Images/lotion/e2_s2.jpg,0,0,4930,31
220,lotion,./Images/lotion/e1_s1.jpg,0,0,4930,31
221,wallet,./Images/wallet/e1_s2.jpg,1,2,5815,31
221,wallet,./Images/wallet/e2_s2.jpg,1,2,5815,31
222,leather_bag,./Images/leather_bag/e1_s2.jpg,0,0,14622.5,31
222,leather_bag,./Images/leather_bag/e2_s1.jpg,0,0,14622.5,31
223,phone,./Images/phone/e2_s1.jpg,1,1,13600.1000000238,31
223,phone,./Images/phone/e1_s2.jpg,0,1,13600.1000000238,31
224,corkscrew,./Images/corkscrew/e1_s2.jpg,0,1,7603.19999998808,31
224,corkscrew,./Images/corkscrew/e2_s1.jpg,1,1,7603.19999998808,31
225,accordion,./Images/accordion/e2_s2.jpg,1,1,8977.19999998808,31
225,accordion,./Images/accordion/e1_s1.jpg,0,1,8977.19999998808,31
226,chocolate,./Images/chocolate/e2_s1.jpg,1,2,4536.39999997616,31
226,chocolate,./Images/chocolate/e1_s2.jpg,1,2,4536.39999997616,31
227,locks,./Images/locks/e2_s2.jpg,1,2,8417.90000003576,31
227,locks,./Images/locks/e1_s1.jpg,1,2,8417.90000003576,31
228,menus,./Images/menus/e1_s1.jpg,1,1,5980,31
228,menus,./Images/menus/e2_s2.jpg,0,1,5980,31
229,file_box,./Images/file_box/e2_s2.jpg,1,2,10386,31
229,file_box,./Images/file_box/e1_s1.jpg,1,2,10386,31
230,phone_antique,./Images/phone_antique/e2_s1.jpg,1,1,12052.4000000358,31
230,phone_antique,./Images/phone_antique/e1_s1.jpg,0,1,12052.4000000358,31
231,garlic_press,./Images/garlic_press/e1_s1.jpg,1,2,13114.3999999762,31
231,garlic_press,./Images/garlic_press/e2_s1.jpg,1,2,13114.3999999762,31
232,cabbage,./Images/cabbage/e2_s2.jpg,1,2,11007.2000000477,31
232,cabbage,./Images/cabbage/e1_s2.jpg,1,2,11007.2000000477,31
233,notebook,./Images/notebook/e2_s1.jpg,0,1,14527,31
233,notebook,./Images/notebook/e1_s2.jpg,1,1,14527,31
234,plastic_bottle,./Images/plastic_bottle/e2_s1.jpg,1,1,19113,31
234,plastic_bottle,./Images/plastic_bottle/e1_s1.jpg,0,1,19113,31
235,cereal,./Images/cereal/e1_s1.jpg,1,2,3837.80000001192,31
235,cereal,./Images/cereal/e2_s1.jpg,1,2,3837.80000001192,31
236,cookie,./Images/cookie/e2_s1.jpg,1,2,5298.89999997616,31
236,cookie,./Images/cookie/e1_s1.jpg,1,2,5298.89999997616,31
237,tape_dispenser,./Images/tape_dispenser/e2_s2.jpg,0,1,5541.39999997616,31
237,tape_dispenser,./Images/tape_dispenser/e1_s2.jpg,1,1,5541.39999997616,31
238,small_box,./Images/small_box/e1_s1.jpg,1,1,7474.30000001192,31
238,small_box,./Images/small_box/e2_s1.jpg,0,1,7474.30000001192,31
239,bills,./Images/bills/e2_s2.jpg,1,2,2203,31
239,bills,./Images/bills/e1_s2.jpg,1,2,2203,31
240,aabacus,./Images/aabacus/e1_s2.jpg,1,2,5479.5,31
240,aabacus,./Images/aabacus/e2_s2.jpg,1,2,5479.5,31
241,glass_orange,./Images/glass_orange/e1_s2.jpg,1,1,8365.90000003576,31
241,glass_orange,./Images/glass_orange/e2_s2.jpg,0,1,8365.90000003576,31
242,hourglass,./Images/hourglass/e1_s1.jpg,0,1,7235.10000002384,31
242,hourglass,./Images/hourglass/e2_s1.jpg,1,1,7235.10000002384,31
243,hand_puppet,./Images/hand_puppet/e1_s1.jpg,1,1,4583.60000002384,31
243,hand_puppet,./Images/hand_puppet/e2_s1.jpg,0,1,4583.60000002384,31
244,cardbox,./Images/cardbox/e1_s1.jpg,0,0,7595.89999997616,31
244,cardbox,./Images/cardbox/e2_s1.jpg,0,0,7595.89999997616,31
245,tissues,./Images/tissues/e1_s1.jpg,1,2,2007.60000002384,31
245,tissues,./Images/tissues/e2_s1.jpg,1,2,2007.60000002384,31
246,tool_box,./Images/tool_box/e1_s1.jpg,1,2,3989.80000001192,31
246,tool_box,./Images/tool_box/e2_s2.jpg,1,2,3989.80000001192,31
247,yarn,./Images/yarn/e1_s1.jpg,1,1,3178.89999997616,31
247,yarn,./Images/yarn/e2_s2.jpg,0,1,3178.89999997616,31
248,reeses,./Images/reeses/e2_s1.jpg,1,2,3156.30000001192,31
248,reeses,./Images/reeses/e1_s1.jpg,1,2,3156.30000001192,31
249,paper_cup,./Images/paper_cup/e2_s1.jpg,1,2,2417.40000003576,31
249,paper_cup,./Images/paper_cup/e1_s1.jpg,1,2,2417.40000003576,31
250,soap,./Images/soap/e1_s2.jpg,1,2,4058.19999998808,31
250,soap,./Images/soap/e2_s2.jpg,1,2,4058.19999998808,31
251,sharpie_pens,./Images/sharpie_pens/e1_s1.jpg,0,1,11510.8000000119,31
251,sharpie_pens,./Images/sharpie_pens/e2_s1.jpg,1,1,11510.8000000119,31
252,coins,./Images/coins/e2_s1.jpg,1,2,16557.1999999881,31
252,coins,./Images/coins/e1_s2.jpg,1,2,16557.1999999881,31
253,laptop,./Images/laptop/e1_s1.jpg,0,1,8473.30000001192,31
253,laptop,./Images/laptop/e2_s1.jpg,1,1,8473.30000001192,31
254,flask,./Images/flask/e2_s2.jpg,1,2,7260.89999997616,31
254,flask,./Images/flask/e1_s2.jpg,1,2,7260.89999997616,31
255,container_open,./Images/container_open/e1_s1.jpg,1,2,6233.5,31
255,container_open,./Images/container_open/e2_s1.jpg,1,2,6233.5,31
256,toilet,./Images/toilet/e2_s1.jpg,0,0,12354.5,31
256,toilet,./Images/toilet/e1_s2.jpg,0,0,12354.5,31
257,chapstick,./Images/chapstick/e1_s1.jpg,1,2,20119.4000000358,31
257,chapstick,./Images/chapstick/e2_s2.jpg,1,2,20119.4000000358,31
258,cocktail_umbrella,./Images/cocktail_umbrella/e2_s2.jpg,0,1,7430.39999997616,31
258,cocktail_umbrella,./Images/cocktail_umbrella/e1_s2.jpg,1,1,7430.39999997616,31
259,lunchbox,./Images/lunchbox/e1_s1.jpg,1,2,10839.6000000238,31
259,lunchbox,./Images/lunchbox/e2_s1.jpg,1,2,10839.6000000238,31
260,sponge,./Images/sponge/e1_s1.jpg,0,0,5912.79999995232,31
260,sponge,./Images/sponge/e2_s1.jpg,0,0,5912.79999995232,31
261,tictac,./Images/tictac/e1_s1.jpg,1,1,4369.39999997616,31
261,tictac,./Images/tictac/e2_s1.jpg,0,1,4369.39999997616,31
262,shoe,./Images/shoe/e2_s1.jpg,0,0,9549.5,31
262,shoe,./Images/shoe/e1_s2.jpg,0,0,9549.5,31
263,menorah,./Images/menorah/e1_s1.jpg,1,2,9152.5,31
263,menorah,./Images/menorah/e2_s2.jpg,1,2,9152.5,31
264,kettle,./Images/kettle/e2_s1.jpg,1,2,24562.1999999881,31
264,kettle,./Images/kettle/e1_s1.jpg,1,2,24562.1999999881,31
265,keys,./Images/keys/e1_s1.jpg,0,1,3932.79999995232,31
265,keys,./Images/keys/e2_s1.jpg,1,1,3932.79999995232,31
266,clocks,./Images/clocks/e2_s2.jpg,1,1,7143,31
266,clocks,./Images/clocks/e1_s2.jpg,0,1,7143,31
267,cell,./Images/cell/e1_s2.jpg,1,2,3984.5,31
267,cell,./Images/cell/e2_s2.jpg,1,2,3984.5,31
268,gift_box,./Images/gift_box/e1_s1.jpg,1,2,3456.80000001192,31
268,gift_box,./Images/gift_box/e2_s1.jpg,1,2,3456.80000001192,31
269,scissors,./Images/scissors/e1_s1.jpg,1,2,4862.40000003576,31
269,scissors,./Images/scissors/e2_s1.jpg,1,2,4862.40000003576,31
270,backpack,./Images/backpack/e2_s1.jpg,1,1,4887.80000001192,31
270,backpack,./Images/backpack/e1_s1.jpg,0,1,4887.80000001192,31
271,cabinet,./Images/cabinet/e2_s1.jpg,1,1,4687.19999998808,31
271,cabinet,./Images/cabinet/e1_s1.jpg,0,1,4687.19999998808,31
272,pen,./Images/pen/e1_s2.jpg,1,2,6963,31
272,pen,./Images/pen/e2_s2.jpg,1,2,6963,31
273,pie,./Images/pie/e2_s2.jpg,1,2,7028,31
273,pie,./Images/pie/e1_s1.jpg,1,2,7028,31
274,headphone_small,./Images/headphone_small/e1_s1.jpg,1,2,12526.6000000238,31
274,headphone_small,./Images/headphone_small/e2_s2.jpg,1,2,12526.6000000238,31
275,microwave,./Images/microwave/e1_s1.jpg,0,0,5025.5,31
275,microwave,./Images/microwave/e2_s1.jpg,0,0,5025.5,31
276,chips,./Images/chips/e2_s1.jpg,1,2,3024,31
276,chips,./Images/chips/e1_s1.jpg,1,2,3024,31
277,sugar_bowl,./Images/sugar_bowl/e2_s1.jpg,0,1,8569.19999998808,31
277,sugar_bowl,./Images/sugar_bowl/e1_s1.jpg,1,1,8569.19999998808,31
278,cooking_pot,./Images/cooking_pot/e2_s1.jpg,1,2,4189.79999995232,31
278,cooking_pot,./Images/cooking_pot/e1_s1.jpg,1,2,4189.79999995232,31
279,mustard,./Images/mustard/e1_s2.jpg,1,2,5558.69999998808,31
279,mustard,./Images/mustard/e2_s2.jpg,1,2,5558.69999998808,31
280,chip,./Images/chip/e1_s1.jpg,1,2,2851.19999998808,31
280,chip,./Images/chip/e2_s1.jpg,1,2,2851.19999998808,31
281,pail,./Images/pail/e2_s2.jpg,0,0,14321.8000000119,31
281,pail,./Images/pail/e1_s1.jpg,0,0,14321.8000000119,31
282,usb_key,./Images/usb_key/e1_s2.jpg,1,2,6828,31
282,usb_key,./Images/usb_key/e2_s2.jpg,1,2,6828,31
283,mixer,./Images/mixer/e1_s2.jpg,0,0,7757.79999995232,31
283,mixer,./Images/mixer/e2_s1.jpg,0,0,7757.79999995232,31
284,theater_seats,./Images/theater_seats/e2_s2.jpg,0,1,4417.09999996424,31
284,theater_seats,./Images/theater_seats/e1_s2.jpg,1,1,4417.09999996424,31
285,baseball_glove,./Images/baseball_glove/e2_s2.jpg,1,2,6469.5,31
285,baseball_glove,./Images/baseball_glove/e1_s1.jpg,1,2,6469.5,31
286,book_object,./Images/book_object/e2_s2.jpg,1,2,3541.59999996424,31
286,book_object,./Images/book_object/e1_s2.jpg,1,2,3541.59999996424,31
287,apple,./Images/apple/e2_s1.jpg,1,2,2128.10000002384,31
287,apple,./Images/apple/e1_s1.jpg,1,2,2128.10000002384,31
288,mailbox,./Images/mailbox/e1_s2.jpg,1,2,3350.79999995232,31
288,mailbox,./Images/mailbox/e2_s2.jpg,1,2,3350.79999995232,31
289,peanut_butter,./Images/peanut_butter/e1_s2.jpg,1,2,28684,31
289,peanut_butter,./Images/peanut_butter/e2_s1.jpg,1,2,28684,31
290,gummy,./Images/gummy/e1_s1.jpg,1,1,2317.5,31
290,gummy,./Images/gummy/e2_s1.jpg,0,1,2317.5,31
291,typewriter,./Images/typewriter/e2_s1.jpg,0,1,16620.7999999523,31
291,typewriter,./Images/typewriter/e1_s2.jpg,1,1,16620.7999999523,31
292,dryer,./Images/dryer/e1_s1.jpg,0,1,20538,31
292,dryer,./Images/dryer/e2_s1.jpg,1,1,20538,31
293,coffeemug,./Images/coffeemug/e1_s2.jpg,1,2,7143.80000001192,31
293,coffeemug,./Images/coffeemug/e2_s2.jpg,1,2,7143.80000001192,31
294,tea_pot,./Images/tea_pot/e2_s1.jpg,0,0,32726.6000000238,31
294,tea_pot,./Images/tea_pot/e1_s1.jpg,0,0,32726.6000000238,31
295,canopener,./Images/canopener/e1_s1.jpg,0,1,10287.5,31
295,canopener,./Images/canopener/e2_s2.jpg,1,1,10287.5,31
296,oj,./Images/oj/e2_s1.jpg,1,2,24465.8999999762,31
296,oj,./Images/oj/e1_s2.jpg,1,2,24465.8999999762,31
297,dresser,./Images/dresser/e1_s1.jpg,1,1,4949.10000002384,31
297,dresser,./Images/dresser/e2_s1.jpg,0,1,4949.10000002384,31
298,donut,./Images/donut/e1_s2.jpg,1,2,3481.5,31
298,donut,./Images/donut/e2_s2.jpg,1,2,3481.5,31
299,bottle_liquid,./Images/bottle_liquid/e2_s2.jpg,1,2,3713.19999998808,31
299,bottle_liquid,./Images/bottle_liquid/e1_s2.jpg,1,2,3713.19999998808,31
300,toy_truck,./Images/toy_truck/e2_s1.jpg,1,2,8610.79999995232,31
300,toy_truck,./Images/toy_truck/e1_s1.jpg,1,2,8610.79999995232,31
301,chocolate_bar,./Images/chocolate_bar/e1_s1.jpg,1,2,3344.5,31
301,chocolate_bar,./Images/chocolate_bar/e2_s1.jpg,1,2,3344.5,31
302,sugar_paper,./Images/sugar_paper/e2_s1.jpg,1,1,5210.90000003576,31
302,sugar_paper,./Images/sugar_paper/e1_s1.jpg,0,1,5210.90000003576,31
303,breadbox,./Images/breadbox/e1_s1.jpg,1,2,2669.10000002384,31
303,breadbox,./Images/breadbox/e2_s1.jpg,1,2,2669.10000002384,31
304,poker_chips,./Images/poker_chips/e2_s2.jpg,0,1,7214.30000001192,31
304,poker_chips,./Images/poker_chips/e1_s2.jpg,1,1,7214.30000001192,31
305,car,./Images/car/e2_s1.jpg,1,2,2376,31
305,car,./Images/car/e1_s1.jpg,1,2,2376,31
206,baseball_glove,./Images/baseball_glove/e2_s2.jpg,1,1,3795.99999999994,40
206,baseball_glove,./Images/baseball_glove/e1_s1.jpg,0,1,3795.99999999994,40
207,container_open,./Images/container_open/e1_s1.jpg,1,2,3450,40
207,container_open,./Images/container_open/e2_s2.jpg,1,2,3450,40
208,coffeemug,./Images/coffeemug/e2_s1.jpg,1,1,4450,40
208,coffeemug,./Images/coffeemug/e1_s2.jpg,0,1,4450,40
209,theater_seats,./Images/theater_seats/e2_s1.jpg,1,2,4769.99999999994,40
209,theater_seats,./Images/theater_seats/e1_s2.jpg,1,2,4769.99999999994,40
210,file_box,./Images/file_box/e1_s1.jpg,1,2,2671,40
210,file_box,./Images/file_box/e2_s1.jpg,1,2,2671,40
211,glass_orange,./Images/glass_orange/e1_s2.jpg,1,2,5569,40
211,glass_orange,./Images/glass_orange/e2_s1.jpg,1,2,5569,40
212,gift_box,./Images/gift_box/e1_s2.jpg,1,2,6521,40
212,gift_box,./Images/gift_box/e2_s1.jpg,1,2,6521,40
213,gummy,./Images/gummy/e1_s2.jpg,1,1,2751,40
213,gummy,./Images/gummy/e2_s1.jpg,0,1,2751,40
214,toy_truck,./Images/toy_truck/e1_s1.jpg,0,1,2806,40
214,toy_truck,./Images/toy_truck/e2_s2.jpg,1,1,2806,40
215,lemon,./Images/lemon/e1_s2.jpg,1,2,3517,40
215,lemon,./Images/lemon/e2_s1.jpg,1,2,3517,40
216,sugar_paper,./Images/sugar_paper/e2_s1.jpg,1,1,2455.00000000006,40
216,sugar_paper,./Images/sugar_paper/e1_s2.jpg,0,1,2455.00000000006,40
217,reeses,./Images/reeses/e2_s2.jpg,0,1,4819.99999999994,40
217,reeses,./Images/reeses/e1_s2.jpg,1,1,4819.99999999994,40
218,phone,./Images/phone/e1_s2.jpg,1,2,2400,40
218,phone,./Images/phone/e2_s1.jpg,1,2,2400,40
219,notebook,./Images/notebook/e1_s1.jpg,1,2,2490.00000000006,40
219,notebook,./Images/notebook/e2_s2.jpg,1,2,2490.00000000006,40
220,book_object,./Images/book_object/e2_s2.jpg,1,2,4467.00000000006,40
220,book_object,./Images/book_object/e1_s1.jpg,1,2,4467.00000000006,40
221,cabinet,./Images/cabinet/e1_s2.jpg,1,2,2504,40
221,cabinet,./Images/cabinet/e2_s1.jpg,1,2,2504,40
222,apple,./Images/apple/e1_s1.jpg,1,2,2420,40
222,apple,./Images/apple/e2_s2.jpg,1,2,2420,40
223,menorah,./Images/menorah/e2_s2.jpg,1,2,3772,40
223,menorah,./Images/menorah/e1_s2.jpg,1,2,3772,40
224,laptop,./Images/laptop/e2_s1.jpg,0,0,2536,40
224,laptop,./Images/laptop/e1_s2.jpg,0,0,2536,40
225,tea_pot,./Images/tea_pot/e1_s1.jpg,1,2,2419.99999999994,40
225,tea_pot,./Images/tea_pot/e2_s1.jpg,1,2,2419.99999999994,40
226,flask,./Images/flask/e2_s2.jpg,1,2,2654,40
226,flask,./Images/flask/e1_s1.jpg,1,2,2654,40
227,watch,./Images/watch/e1_s2.jpg,0,0,3337,40
227,watch,./Images/watch/e2_s1.jpg,0,0,3337,40
228,dresser,./Images/dresser/e2_s1.jpg,0,1,2337,40
228,dresser,./Images/dresser/e1_s2.jpg,1,1,2337,40
229,bills,./Images/bills/e2_s2.jpg,1,2,1990,40
229,bills,./Images/bills/e1_s1.jpg,1,2,1990,40
230,cooking_pot,./Images/cooking_pot/e2_s1.jpg,0,1,3386.00000000006,40
230,cooking_pot,./Images/cooking_pot/e1_s2.jpg,1,1,3386.00000000006,40
231,cell,./Images/cell/e1_s2.jpg,1,2,2486,40
231,cell,./Images/cell/e2_s2.jpg,1,2,2486,40
232,scanner,./Images/scanner/e2_s2.jpg,1,2,3238,40
232,scanner,./Images/scanner/e1_s1.jpg,1,2,3238,40
233,metronome,./Images/metronome/e1_s1.jpg,1,2,2687.00000000012,40
233,metronome,./Images/metronome/e2_s2.jpg,1,2,2687.00000000012,40
234,chocolate_bar,./Images/chocolate_bar/e1_s1.jpg,0,1,3569,40
234,chocolate_bar,./Images/chocolate_bar/e2_s1.jpg,1,1,3569,40
235,umbrella,./Images/umbrella/e1_s2.jpg,1,1,2353,40
235,umbrella,./Images/umbrella/e2_s1.jpg,0,1,2353,40
236,chip,./Images/chip/e1_s1.jpg,1,2,1754,40
236,chip,./Images/chip/e2_s1.jpg,1,2,1754,40
237,oj,./Images/oj/e2_s2.jpg,0,0,2372.00000000012,40
237,oj,./Images/oj/e1_s1.jpg,0,0,2372.00000000012,40
238,backpack,./Images/backpack/e1_s1.jpg,1,2,3353.99999999988,40
238,backpack,./Images/backpack/e2_s2.jpg,1,2,3353.99999999988,40
239,leather_bag,./Images/leather_bag/e2_s1.jpg,0,0,3522.00000000012,40
239,leather_bag,./Images/leather_bag/e1_s2.jpg,0,0,3522.00000000012,40
240,small_box,./Images/small_box/e2_s1.jpg,0,1,2522,40
240,small_box,./Images/small_box/e1_s2.jpg,1,1,2522,40
241,shoe,./Images/shoe/e1_s2.jpg,0,1,2385,40
241,shoe,./Images/shoe/e2_s2.jpg,1,1,2385,40
242,sponge,./Images/sponge/e2_s2.jpg,0,0,2438,40
242,sponge,./Images/sponge/e1_s1.jpg,0,0,2438,40
243,wallet,./Images/wallet/e1_s1.jpg,1,2,2104,40
243,wallet,./Images/wallet/e2_s1.jpg,1,2,2104,40
244,chips,./Images/chips/e1_s2.jpg,1,2,2686,40
244,chips,./Images/chips/e2_s1.jpg,1,2,2686,40
245,tissues,./Images/tissues/e1_s2.jpg,0,0,2521,40
245,tissues,./Images/tissues/e2_s1.jpg,0,0,2521,40
246,drink,./Images/drink/e2_s2.jpg,0,0,1955.00000000012,40
246,drink,./Images/drink/e1_s1.jpg,0,0,1955.00000000012,40
247,locks,./Images/locks/e2_s1.jpg,1,2,1738,40
247,locks,./Images/locks/e1_s1.jpg,1,2,1738,40
248,pen,./Images/pen/e1_s2.jpg,1,2,1857,40
248,pen,./Images/pen/e2_s2.jpg,1,2,1857,40
249,kettle,./Images/kettle/e2_s2.jpg,0,0,1972,40
249,kettle,./Images/kettle/e1_s2.jpg,0,0,1972,40
250,poker_chips,./Images/poker_chips/e2_s2.jpg,1,2,1905,40
250,poker_chips,./Images/poker_chips/e1_s1.jpg,1,2,1905,40
251,aabacus,./Images/aabacus/e2_s1.jpg,1,2,2354,40
251,aabacus,./Images/aabacus/e1_s1.jpg,1,2,2354,40
252,coins,./Images/coins/e1_s2.jpg,1,2,1587,40
252,coins,./Images/coins/e2_s2.jpg,1,2,1587,40
253,soap,./Images/soap/e2_s2.jpg,0,1,2341,40
253,soap,./Images/soap/e1_s1.jpg,1,1,2341,40
254,fridge,./Images/fridge/e2_s1.jpg,1,2,1803.00000000012,40
254,fridge,./Images/fridge/e1_s1.jpg,1,2,1803.00000000012,40
255,cabbage,./Images/cabbage/e1_s1.jpg,1,2,1585.00000000012,40
255,cabbage,./Images/cabbage/e2_s1.jpg,1,2,1585.00000000012,40
256,hourglass,./Images/hourglass/e1_s2.jpg,1,2,2018,40
256,hourglass,./Images/hourglass/e2_s2.jpg,1,2,2018,40
257,cookie,./Images/cookie/e2_s1.jpg,1,2,1637,40
257,cookie,./Images/cookie/e1_s1.jpg,1,2,1637,40
258,chocolate,./Images/chocolate/e1_s2.jpg,1,2,3438,40
258,chocolate,./Images/chocolate/e2_s2.jpg,1,2,3438,40
259,clocks,./Images/clocks/e2_s2.jpg,1,2,2636,40
259,clocks,./Images/clocks/e1_s2.jpg,1,2,2636,40
260,plastic_bottle,./Images/plastic_bottle/e2_s1.jpg,0,0,3572,40
260,plastic_bottle,./Images/plastic_bottle/e1_s1.jpg,0,0,3572,40
261,dryer,./Images/dryer/e2_s2.jpg,1,1,3169,40
261,dryer,./Images/dryer/e1_s1.jpg,0,1,3169,40
262,tictac,./Images/tictac/e2_s1.jpg,1,1,1455,40
262,tictac,./Images/tictac/e1_s1.jpg,0,1,1455,40
263,car,./Images/car/e1_s1.jpg,0,1,2073,40
263,car,./Images/car/e2_s2.jpg,1,1,2073,40
264,pail,./Images/pail/e1_s2.jpg,0,0,2287,40
264,pail,./Images/pail/e2_s2.jpg,0,0,2287,40
265,chair_recliner,./Images/chair_recliner/e2_s2.jpg,1,1,1724,40
265,chair_recliner,./Images/chair_recliner/e1_s2.jpg,0,1,1724,40
266,peanut_butter,./Images/peanut_butter/e2_s1.jpg,1,1,1903,40
266,peanut_butter,./Images/peanut_butter/e1_s1.jpg,0,1,1903,40
267,cardbox,./Images/cardbox/e2_s1.jpg,1,1,1920,40
267,cardbox,./Images/cardbox/e1_s1.jpg,0,1,1920,40
268,breadbox,./Images/breadbox/e1_s1.jpg,1,2,2437,40
268,breadbox,./Images/breadbox/e2_s2.jpg,1,2,2437,40
269,paper_cup,./Images/paper_cup/e1_s1.jpg,1,2,1519.99999999988,40
269,paper_cup,./Images/paper_cup/e2_s1.jpg,1,2,1519.99999999988,40
270,cereal,./Images/cereal/e2_s2.jpg,1,2,1870,40
270,cereal,./Images/cereal/e1_s2.jpg,1,2,1870,40
271,usb_key,./Images/usb_key/e2_s2.jpg,1,1,1737.99999999988,40
271,usb_key,./Images/usb_key/e1_s1.jpg,0,1,1737.99999999988,40
272,hand_puppet,./Images/hand_puppet/e1_s1.jpg,0,1,2455,40
272,hand_puppet,./Images/hand_puppet/e2_s1.jpg,1,1,2455,40
273,mustard,./Images/mustard/e1_s1.jpg,0,0,2422,40
273,mustard,./Images/mustard/e2_s1.jpg,0,0,2422,40
274,toilet,./Images/toilet/e1_s2.jpg,0,0,2053,40
274,toilet,./Images/toilet/e2_s1.jpg,0,0,2053,40
275,keys,./Images/keys/e1_s2.jpg,0,1,1539,40
275,keys,./Images/keys/e2_s1.jpg,1,1,1539,40
276,lunchbox,./Images/lunchbox/e2_s2.jpg,1,2,2805,40
276,lunchbox,./Images/lunchbox/e1_s2.jpg,1,2,2805,40
277,file_folder,./Images/file_folder/e1_s1.jpg,1,1,2336,40
277,file_folder,./Images/file_folder/e2_s1.jpg,0,1,2336,40
278,tricycle,./Images/tricycle/e1_s2.jpg,1,2,3106,40
278,tricycle,./Images/tricycle/e2_s2.jpg,1,2,3106,40
279,cocktail_umbrella,./Images/cocktail_umbrella/e1_s1.jpg,0,1,1939,40
279,cocktail_umbrella,./Images/cocktail_umbrella/e2_s1.jpg,1,1,1939,40
280,book,./Images/book/e2_s1.jpg,1,2,2420,40
280,book,./Images/book/e1_s2.jpg,1,2,2420,40
281,altoid,./Images/altoid/e2_s1.jpg,1,2,1708,40
281,altoid,./Images/altoid/e1_s1.jpg,1,2,1708,40
282,phone_antique,./Images/phone_antique/e2_s1.jpg,1,1,1706,40
282,phone_antique,./Images/phone_antique/e1_s1.jpg,0,1,1706,40
283,menus,./Images/menus/e1_s2.jpg,1,2,3089,40
283,menus,./Images/menus/e2_s2.jpg,1,2,3089,40
284,corkscrew,./Images/corkscrew/e1_s2.jpg,1,2,2573.99999999988,40
284,corkscrew,./Images/corkscrew/e2_s1.jpg,1,2,2573.99999999988,40
285,typewriter,./Images/typewriter/e1_s1.jpg,0,1,1837,40
285,typewriter,./Images/typewriter/e2_s2.jpg,1,1,1837,40
286,headphone_small,./Images/headphone_small/e1_s1.jpg,1,2,1555.99999999988,40
286,headphone_small,./Images/headphone_small/e2_s1.jpg,1,2,1555.99999999988,40
287,accordion,./Images/accordion/e1_s2.jpg,1,2,1704,40
287,accordion,./Images/accordion/e2_s2.jpg,1,2,1704,40
288,yarn,./Images/yarn/e2_s1.jpg,1,2,2254.99999999988,40
288,yarn,./Images/yarn/e1_s1.jpg,1,2,2254.99999999988,40
289,scissors,./Images/scissors/e1_s1.jpg,1,2,2738,40
289,scissors,./Images/scissors/e2_s1.jpg,1,2,2738,40
290,sugar_bowl,./Images/sugar_bowl/e2_s2.jpg,0,0,4921,40
290,sugar_bowl,./Images/sugar_bowl/e1_s1.jpg,0,0,4921,40
291,chapstick,./Images/chapstick/e2_s2.jpg,1,1,2207,40
291,chapstick,./Images/chapstick/e1_s1.jpg,0,1,2207,40
292,canopener,./Images/canopener/e2_s1.jpg,0,1,2974,40
292,canopener,./Images/canopener/e1_s1.jpg,1,1,2974,40
293,bottle_liquid,./Images/bottle_liquid/e1_s1.jpg,0,1,1889,40
293,bottle_liquid,./Images/bottle_liquid/e2_s1.jpg,1,1,1889,40
294,donut,./Images/donut/e1_s1.jpg,0,1,2320,40
294,donut,./Images/donut/e2_s1.jpg,1,1,2320,40
295,lottery_ticket,./Images/lottery_ticket/e1_s1.jpg,1,1,2055,40
295,lottery_ticket,./Images/lottery_ticket/e2_s1.jpg,0,1,2055,40
296,lotion,./Images/lotion/e2_s1.jpg,1,2,1672,40
296,lotion,./Images/lotion/e1_s1.jpg,1,2,1672,40
297,tape_dispenser,./Images/tape_dispenser/e2_s2.jpg,0,1,2924,40
297,tape_dispenser,./Images/tape_dispenser/e1_s1.jpg,1,1,2924,40
298,pie,./Images/pie/e1_s1.jpg,1,2,1954,40
298,pie,./Images/pie/e2_s1.jpg,1,2,1954,40
299,mixer,./Images/mixer/e2_s1.jpg,0,0,1689,40
299,mixer,./Images/mixer/e1_s1.jpg,0,0,1689,40
300,bottle_perfume,./Images/bottle_perfume/e2_s2.jpg,0,1,2491,40
300,bottle_perfume,./Images/bottle_perfume/e1_s2.jpg,1,1,2491,40
301,microwave,./Images/microwave/e2_s1.jpg,0,1,1770,40
301,microwave,./Images/microwave/e1_s1.jpg,1,1,1770,40
302,garlic_press,./Images/garlic_press/e2_s1.jpg,0,0,2208.00000000012,40
302,garlic_press,./Images/garlic_press/e1_s2.jpg,0,0,2208.00000000012,40
303,sharpie_pens,./Images/sharpie_pens/e2_s1.jpg,0,1,3388,40
303,sharpie_pens,./Images/sharpie_pens/e1_s1.jpg,1,1,3388,40
304,tool_box,./Images/tool_box/e1_s2.jpg,1,2,2122.99999999988,40
304,tool_box,./Images/tool_box/e2_s1.jpg,1,2,2122.99999999988,40
305,mailbox,./Images/mailbox/e1_s1.jpg,1,2,2506,40
305,mailbox,./Images/mailbox/e2_s2.jpg,1,2,2506,40
206,book,./Images/book/e2_s2.jpg,1,2,13704,24
206,book,./Images/book/e1_s1.jpg,1,2,13704,24
207,laptop,./Images/laptop/e2_s2.jpg,0,0,12888,24
207,laptop,./Images/laptop/e1_s1.jpg,0,0,12888,24
208,toy_truck,./Images/toy_truck/e2_s2.jpg,1,2,4512,24
208,toy_truck,./Images/toy_truck/e1_s2.jpg,1,2,4512,24
209,lunchbox,./Images/lunchbox/e2_s1.jpg,1,2,4025.99999999994,24
209,lunchbox,./Images/lunchbox/e1_s1.jpg,1,2,4025.99999999994,24
210,accordion,./Images/accordion/e2_s2.jpg,1,2,2782,24
210,accordion,./Images/accordion/e1_s2.jpg,1,2,2782,24
211,reeses,./Images/reeses/e2_s2.jpg,1,2,3919.99999999994,24
211,reeses,./Images/reeses/e1_s1.jpg,1,2,3919.99999999994,24
212,metronome,./Images/metronome/e1_s2.jpg,1,2,3720.00000000006,24
212,metronome,./Images/metronome/e2_s1.jpg,1,2,3720.00000000006,24
213,chocolate,./Images/chocolate/e2_s2.jpg,1,2,5017,24
213,chocolate,./Images/chocolate/e1_s1.jpg,1,2,5017,24
214,bottle_perfume,./Images/bottle_perfume/e1_s2.jpg,1,2,2615,24
214,bottle_perfume,./Images/bottle_perfume/e2_s2.jpg,1,2,2615,24
215,clocks,./Images/clocks/e1_s2.jpg,1,2,3086,24
215,clocks,./Images/clocks/e2_s2.jpg,1,2,3086,24
216,cabbage,./Images/cabbage/e2_s1.jpg,1,2,2564.99999999988,24
216,cabbage,./Images/cabbage/e1_s2.jpg,1,2,2564.99999999988,24
217,tape_dispenser,./Images/tape_dispenser/e2_s1.jpg,1,2,3189,24
217,tape_dispenser,./Images/tape_dispenser/e1_s1.jpg,1,2,3189,24
218,cookie,./Images/cookie/e2_s1.jpg,1,2,2875,24
218,cookie,./Images/cookie/e1_s2.jpg,1,2,2875,24
219,cereal,./Images/cereal/e1_s1.jpg,1,2,3751.00000000012,24
219,cereal,./Images/cereal/e2_s1.jpg,1,2,3751.00000000012,24
220,tictac,./Images/tictac/e2_s1.jpg,0,0,4703,24
220,tictac,./Images/tictac/e1_s1.jpg,0,0,4703,24
221,chip,./Images/chip/e2_s2.jpg,1,2,2434,24
221,chip,./Images/chip/e1_s2.jpg,1,2,2434,24
222,dryer,./Images/dryer/e1_s2.jpg,1,2,2129,24
222,dryer,./Images/dryer/e2_s2.jpg,1,2,2129,24
223,lotion,./Images/lotion/e1_s1.jpg,1,2,2787,24
223,lotion,./Images/lotion/e2_s2.jpg,1,2,2787,24
224,umbrella,./Images/umbrella/e2_s2.jpg,1,2,2988.00000000012,24
224,umbrella,./Images/umbrella/e1_s1.jpg,1,2,2988.00000000012,24
225,coffeemug,./Images/coffeemug/e1_s1.jpg,1,2,5299,24
225,coffeemug,./Images/coffeemug/e2_s2.jpg,1,2,5299,24
226,usb_key,./Images/usb_key/e2_s1.jpg,0,0,5010,24
226,usb_key,./Images/usb_key/e1_s2.jpg,0,0,5010,24
227,menus,./Images/menus/e2_s2.jpg,1,2,4647,24
227,menus,./Images/menus/e1_s2.jpg,1,2,4647,24
228,file_folder,./Images/file_folder/e1_s2.jpg,0,0,5815,24
228,file_folder,./Images/file_folder/e2_s1.jpg,0,0,5815,24
229,headphone_small,./Images/headphone_small/e1_s1.jpg,1,2,1704,24
229,headphone_small,./Images/headphone_small/e2_s1.jpg,1,2,1704,24
230,gummy,./Images/gummy/e1_s1.jpg,1,2,4652,24
230,gummy,./Images/gummy/e2_s1.jpg,1,2,4652,24
231,container_open,./Images/container_open/e1_s2.jpg,1,2,7251,24
231,container_open,./Images/container_open/e2_s1.jpg,1,2,7251,24
232,tool_box,./Images/tool_box/e2_s1.jpg,0,1,5300,24
232,tool_box,./Images/tool_box/e1_s1.jpg,1,1,5300,24
233,sponge,./Images/sponge/e2_s1.jpg,1,1,2919,24
233,sponge,./Images/sponge/e1_s1.jpg,0,1,2919,24
234,cooking_pot,./Images/cooking_pot/e2_s1.jpg,1,2,5449,24
234,cooking_pot,./Images/cooking_pot/e1_s1.jpg,1,2,5449,24
235,cocktail_umbrella,./Images/cocktail_umbrella/e1_s1.jpg,0,1,5639.00000000012,24
235,cocktail_umbrella,./Images/cocktail_umbrella/e2_s1.jpg,1,1,5639.00000000012,24
236,poker_chips,./Images/poker_chips/e1_s1.jpg,1,2,3496,24
236,poker_chips,./Images/poker_chips/e2_s2.jpg,1,2,3496,24
237,theater_seats,./Images/theater_seats/e1_s2.jpg,1,2,2434,24
237,theater_seats,./Images/theater_seats/e2_s1.jpg,1,2,2434,24
238,scissors,./Images/scissors/e1_s2.jpg,1,1,4141,24
238,scissors,./Images/scissors/e2_s1.jpg,0,1,4141,24
239,gift_box,./Images/gift_box/e1_s1.jpg,1,2,2827,24
239,gift_box,./Images/gift_box/e2_s1.jpg,1,2,2827,24
240,altoid,./Images/altoid/e2_s1.jpg,1,2,6854,24
240,altoid,./Images/altoid/e1_s2.jpg,1,2,6854,24
241,sharpie_pens,./Images/sharpie_pens/e2_s2.jpg,1,2,3140,24
241,sharpie_pens,./Images/sharpie_pens/e1_s2.jpg,1,2,3140,24
242,hand_puppet,./Images/hand_puppet/e2_s2.jpg,1,2,2590,24
242,hand_puppet,./Images/hand_puppet/e1_s1.jpg,1,2,2590,24
243,pie,./Images/pie/e1_s2.jpg,1,2,3385,24
243,pie,./Images/pie/e2_s1.jpg,1,2,3385,24
244,keys,./Images/keys/e1_s2.jpg,1,2,5522,24
244,keys,./Images/keys/e2_s2.jpg,1,2,5522,24
245,pen,./Images/pen/e2_s2.jpg,1,2,4207,24
245,pen,./Images/pen/e1_s1.jpg,1,2,4207,24
246,tissues,./Images/tissues/e2_s1.jpg,1,2,1920,24
246,tissues,./Images/tissues/e1_s1.jpg,1,2,1920,24
247,bills,./Images/bills/e2_s1.jpg,1,2,1709,24
247,bills,./Images/bills/e1_s1.jpg,1,2,1709,24
248,breadbox,./Images/breadbox/e2_s1.jpg,0,1,2625,24
248,breadbox,./Images/breadbox/e1_s2.jpg,1,1,2625,24
249,leather_bag,./Images/leather_bag/e1_s1.jpg,0,1,5463,24
249,leather_bag,./Images/leather_bag/e2_s1.jpg,1,1,5463,24
250,shoe,./Images/shoe/e2_s1.jpg,1,1,3706.00000000012,24
250,shoe,./Images/shoe/e1_s1.jpg,0,1,3706.00000000012,24
251,menorah,./Images/menorah/e2_s2.jpg,1,2,2462,24
251,menorah,./Images/menorah/e1_s2.jpg,1,2,2462,24
252,canopener,./Images/canopener/e2_s1.jpg,1,2,4165,24
252,canopener,./Images/canopener/e1_s2.jpg,1,2,4165,24
253,wallet,./Images/wallet/e2_s2.jpg,1,2,1802,24
253,wallet,./Images/wallet/e1_s2.jpg,1,2,1802,24
254,glass_orange,./Images/glass_orange/e2_s1.jpg,1,1,2336,24
254,glass_orange,./Images/glass_orange/e1_s2.jpg,0,1,2336,24
255,chips,./Images/chips/e2_s1.jpg,1,2,2144,24
255,chips,./Images/chips/e1_s1.jpg,1,2,2144,24
256,notebook,./Images/notebook/e1_s2.jpg,0,0,5544,24
256,notebook,./Images/notebook/e2_s1.jpg,0,0,5544,24
257,book_object,./Images/book_object/e1_s1.jpg,1,2,2280,24
257,book_object,./Images/book_object/e2_s1.jpg,1,2,2280,24
258,watch,./Images/watch/e2_s1.jpg,1,1,1834,24
258,watch,./Images/watch/e1_s1.jpg,0,1,1834,24
259,toilet,./Images/toilet/e2_s1.jpg,1,1,2785,24
259,toilet,./Images/toilet/e1_s2.jpg,0,1,2785,24
260,chocolate_bar,./Images/chocolate_bar/e1_s1.jpg,1,2,3658,24
260,chocolate_bar,./Images/chocolate_bar/e2_s2.jpg,1,2,3658,24
261,backpack,./Images/backpack/e2_s2.jpg,1,2,1830.00000000012,24
261,backpack,./Images/backpack/e1_s1.jpg,1,2,1830.00000000012,24
262,small_box,./Images/small_box/e1_s2.jpg,1,2,2494,24
262,small_box,./Images/small_box/e2_s1.jpg,1,2,2494,24
263,coins,./Images/coins/e1_s2.jpg,0,1,4632,24
263,coins,./Images/coins/e2_s1.jpg,1,1,4632,24
264,drink,./Images/drink/e2_s1.jpg,1,2,3911,24
264,drink,./Images/drink/e1_s1.jpg,1,2,3911,24
265,hourglass,./Images/hourglass/e1_s1.jpg,1,2,4399,24
265,hourglass,./Images/hourglass/e2_s1.jpg,1,2,4399,24
266,tricycle,./Images/tricycle/e1_s2.jpg,1,1,2864,24
266,tricycle,./Images/tricycle/e2_s2.jpg,0,1,2864,24
267,chair_recliner,./Images/chair_recliner/e2_s2.jpg,1,2,2402,24
267,chair_recliner,./Images/chair_recliner/e1_s1.jpg,1,2,2402,24
268,cell,./Images/cell/e2_s1.jpg,1,2,1774,24
268,cell,./Images/cell/e1_s1.jpg,1,2,1774,24
269,yarn,./Images/yarn/e2_s1.jpg,1,2,2417.00000000012,24
269,yarn,./Images/yarn/e1_s1.jpg,1,2,2417.00000000012,24
270,microwave,./Images/microwave/e2_s2.jpg,1,1,2062,24
270,microwave,./Images/microwave/e1_s1.jpg,0,1,2062,24
271,baseball_glove,./Images/baseball_glove/e1_s1.jpg,0,1,4380,24
271,baseball_glove,./Images/baseball_glove/e2_s2.jpg,1,1,4380,24
272,lottery_ticket,./Images/lottery_ticket/e1_s1.jpg,1,2,2454.99999999988,24
272,lottery_ticket,./Images/lottery_ticket/e2_s1.jpg,1,2,2454.99999999988,24
273,phone,./Images/phone/e1_s1.jpg,1,1,4138,24
273,phone,./Images/phone/e2_s1.jpg,0,1,4138,24
274,bottle_liquid,./Images/bottle_liquid/e2_s2.jpg,1,2,3536.00000000012,24
274,bottle_liquid,./Images/bottle_liquid/e1_s1.jpg,1,2,3536.00000000012,24
275,garlic_press,./Images/garlic_press/e2_s2.jpg,1,2,3092,24
275,garlic_press,./Images/garlic_press/e1_s2.jpg,1,2,3092,24
276,fridge,./Images/fridge/e1_s1.jpg,1,2,2523,24
276,fridge,./Images/fridge/e2_s1.jpg,1,2,2523,24
277,donut,./Images/donut/e2_s2.jpg,1,2,4946,24
277,donut,./Images/donut/e1_s1.jpg,1,2,4946,24
278,tea_pot,./Images/tea_pot/e2_s1.jpg,1,2,7016,24
278,tea_pot,./Images/tea_pot/e1_s1.jpg,1,2,7016,24
279,flask,./Images/flask/e2_s1.jpg,1,2,2690,24
279,flask,./Images/flask/e1_s1.jpg,1,2,2690,24
280,phone_antique,./Images/phone_antique/e1_s1.jpg,1,2,7546.99999999988,24
280,phone_antique,./Images/phone_antique/e2_s1.jpg,1,2,7546.99999999988,24
281,soap,./Images/soap/e1_s2.jpg,0,1,5656,24
281,soap,./Images/soap/e2_s2.jpg,1,1,5656,24
282,aabacus,./Images/aabacus/e1_s2.jpg,0,1,2608,24
282,aabacus,./Images/aabacus/e2_s2.jpg,1,1,2608,24
283,sugar_bowl,./Images/sugar_bowl/e2_s2.jpg,1,2,4477.00000000012,24
283,sugar_bowl,./Images/sugar_bowl/e1_s1.jpg,1,2,4477.00000000012,24
284,paper_cup,./Images/paper_cup/e1_s2.jpg,1,2,1878.99999999988,24
284,paper_cup,./Images/paper_cup/e2_s1.jpg,1,2,1878.99999999988,24
285,typewriter,./Images/typewriter/e1_s1.jpg,1,2,3632,24
285,typewriter,./Images/typewriter/e2_s1.jpg,1,2,3632,24
286,corkscrew,./Images/corkscrew/e2_s1.jpg,1,2,3007,24
286,corkscrew,./Images/corkscrew/e1_s2.jpg,1,2,3007,24
287,oj,./Images/oj/e2_s1.jpg,1,2,4688.99999999988,24
287,oj,./Images/oj/e1_s2.jpg,1,2,4688.99999999988,24
288,locks,./Images/locks/e1_s2.jpg,1,2,1572,24
288,locks,./Images/locks/e2_s2.jpg,1,2,1572,24
289,mailbox,./Images/mailbox/e2_s2.jpg,0,1,3504,24
289,mailbox,./Images/mailbox/e1_s1.jpg,1,1,3504,24
290,car,./Images/car/e2_s1.jpg,1,2,3180,24
290,car,./Images/car/e1_s1.jpg,1,2,3180,24
291,lemon,./Images/lemon/e1_s1.jpg,1,2,2971,24
291,lemon,./Images/lemon/e2_s2.jpg,1,2,2971,24
292,scanner,./Images/scanner/e2_s1.jpg,1,2,3269,24
292,scanner,./Images/scanner/e1_s1.jpg,1,2,3269,24
293,cardbox,./Images/cardbox/e1_s2.jpg,1,2,1959.00000000012,24
293,cardbox,./Images/cardbox/e2_s2.jpg,1,2,1959.00000000012,24
294,peanut_butter,./Images/peanut_butter/e2_s1.jpg,0,1,5918,24
294,peanut_butter,./Images/peanut_butter/e1_s1.jpg,1,1,5918,24
295,pail,./Images/pail/e1_s1.jpg,0,0,3284,24
295,pail,./Images/pail/e2_s2.jpg,0,0,3284,24
296,sugar_paper,./Images/sugar_paper/e1_s2.jpg,1,1,3000,24
296,sugar_paper,./Images/sugar_paper/e2_s1.jpg,0,1,3000,24
297,mustard,./Images/mustard/e1_s1.jpg,1,2,3499,24
297,mustard,./Images/mustard/e2_s1.jpg,1,2,3499,24
298,kettle,./Images/kettle/e2_s1.jpg,1,2,3073,24
298,kettle,./Images/kettle/e1_s2.jpg,1,2,3073,24
299,cabinet,./Images/cabinet/e1_s1.jpg,1,2,3189,24
299,cabinet,./Images/cabinet/e2_s2.jpg,1,2,3189,24
300,dresser,./Images/dresser/e1_s2.jpg,1,1,2187,24
300,dresser,./Images/dresser/e2_s2.jpg,0,1,2187,24
301,plastic_bottle,./Images/plastic_bottle/e2_s1.jpg,0,1,4363,24
301,plastic_bottle,./Images/plastic_bottle/e1_s1.jpg,1,1,4363,24
302,mixer,./Images/mixer/e1_s2.jpg,0,1,3356,24
302,mixer,./Images/mixer/e2_s2.jpg,1,1,3356,24
303,apple,./Images/apple/e1_s2.jpg,1,2,5618.99999999988,24
303,apple,./Images/apple/e2_s1.jpg,1,2,5618.99999999988,24
304,file_box,./Images/file_box/e1_s1.jpg,1,2,4391.00000000012,24
304,file_box,./Images/file_box/e2_s1.jpg,1,2,4391.00000000012,24
305,chapstick,./Images/chapstick/e2_s1.jpg,1,2,2481.99999999988,24
305,chapstick,./Images/chapstick/e1_s1.jpg,1,2,2481.99999999988,24
206,lunchbox,./Images/lunchbox/e2_s2.jpg,1,1,7447,37
206,lunchbox,./Images/lunchbox/e1_s2.jpg,0,1,7447,37
207,yarn,./Images/yarn/e2_s1.jpg,0,1,5053.99999999988,37
207,yarn,./Images/yarn/e1_s2.jpg,1,1,5053.99999999988,37
208,glass_orange,./Images/glass_orange/e1_s1.jpg,1,2,3305.99999999988,37
208,glass_orange,./Images/glass_orange/e2_s1.jpg,1,2,3305.99999999988,37
209,pie,./Images/pie/e1_s2.jpg,1,2,2707,37
209,pie,./Images/pie/e2_s1.jpg,1,2,2707,37
210,locks,./Images/locks/e1_s2.jpg,0,1,4054,37
210,locks,./Images/locks/e2_s1.jpg,1,1,4054,37
211,wallet,./Images/wallet/e2_s2.jpg,1,2,2937,37
211,wallet,./Images/wallet/e1_s1.jpg,1,2,2937,37
212,chocolate,./Images/chocolate/e1_s1.jpg,0,1,2688,37
212,chocolate,./Images/chocolate/e2_s1.jpg,1,1,2688,37
213,metronome,./Images/metronome/e1_s2.jpg,0,1,2423,37
213,metronome,./Images/metronome/e2_s1.jpg,1,1,2423,37
214,bills,./Images/bills/e2_s2.jpg,1,2,2255,37
214,bills,./Images/bills/e1_s2.jpg,1,2,2255,37
215,donut,./Images/donut/e1_s1.jpg,1,1,1823.00000000012,37
215,donut,./Images/donut/e2_s1.jpg,0,1,1823.00000000012,37
216,lemon,./Images/lemon/e1_s1.jpg,1,2,1988.00000000012,37
216,lemon,./Images/lemon/e2_s2.jpg,1,2,1988.00000000012,37
217,tea_pot,./Images/tea_pot/e1_s1.jpg,0,1,2089,37
217,tea_pot,./Images/tea_pot/e2_s1.jpg,1,1,2089,37
218,backpack,./Images/backpack/e1_s2.jpg,1,1,2188,37
218,backpack,./Images/backpack/e2_s1.jpg,0,1,2188,37
219,menus,./Images/menus/e1_s1.jpg,0,0,4874,37
219,menus,./Images/menus/e2_s2.jpg,0,0,4874,37
220,tissues,./Images/tissues/e2_s2.jpg,1,1,2721,37
220,tissues,./Images/tissues/e1_s2.jpg,0,1,2721,37
221,chapstick,./Images/chapstick/e2_s1.jpg,0,1,5139.00000000012,37
221,chapstick,./Images/chapstick/e1_s2.jpg,1,1,5139.00000000012,37
222,sharpie_pens,./Images/sharpie_pens/e1_s1.jpg,1,2,2039,37
222,sharpie_pens,./Images/sharpie_pens/e2_s2.jpg,1,2,2039,37
223,headphone_small,./Images/headphone_small/e1_s2.jpg,0,1,4055,37
223,headphone_small,./Images/headphone_small/e2_s2.jpg,1,1,4055,37
224,cereal,./Images/cereal/e2_s1.jpg,0,0,4189,37
224,cereal,./Images/cereal/e1_s1.jpg,0,0,4189,37
225,soap,./Images/soap/e2_s1.jpg,1,2,3039,37
225,soap,./Images/soap/e1_s2.jpg,1,2,3039,37
226,file_folder,./Images/file_folder/e1_s1.jpg,0,1,2973,37
226,file_folder,./Images/file_folder/e2_s2.jpg,1,1,2973,37
227,mustard,./Images/mustard/e1_s2.jpg,1,2,5441,37
227,mustard,./Images/mustard/e2_s1.jpg,1,2,5441,37
228,chair_recliner,./Images/chair_recliner/e1_s1.jpg,0,1,2523,37
228,chair_recliner,./Images/chair_recliner/e2_s2.jpg,1,1,2523,37
229,reeses,./Images/reeses/e1_s1.jpg,1,2,2573,37
229,reeses,./Images/reeses/e2_s1.jpg,1,2,2573,37
230,garlic_press,./Images/garlic_press/e1_s2.jpg,1,2,2688,37
230,garlic_press,./Images/garlic_press/e2_s1.jpg,1,2,2688,37
231,flask,./Images/flask/e2_s1.jpg,1,1,1856,37
231,flask,./Images/flask/e1_s1.jpg,0,1,1856,37
232,breadbox,./Images/breadbox/e2_s2.jpg,1,2,2689,37
232,breadbox,./Images/breadbox/e1_s1.jpg,1,2,2689,37
233,cardbox,./Images/cardbox/e1_s2.jpg,1,1,3440,37
233,cardbox,./Images/cardbox/e2_s2.jpg,0,1,3440,37
234,small_box,./Images/small_box/e2_s2.jpg,1,2,1774,37
234,small_box,./Images/small_box/e1_s2.jpg,1,2,1774,37
235,canopener,./Images/canopener/e1_s1.jpg,1,1,2305.99999999988,37
235,canopener,./Images/canopener/e2_s1.jpg,0,1,2305.99999999988,37
236,watch,./Images/watch/e2_s1.jpg,1,1,2224,37
236,watch,./Images/watch/e1_s1.jpg,0,1,2224,37
237,tool_box,./Images/tool_box/e1_s2.jpg,1,1,3174,37
237,tool_box,./Images/tool_box/e2_s1.jpg,0,1,3174,37
238,mixer,./Images/mixer/e2_s2.jpg,1,2,3038,37
238,mixer,./Images/mixer/e1_s1.jpg,1,2,3038,37
239,car,./Images/car/e1_s1.jpg,1,1,2457,37
239,car,./Images/car/e2_s2.jpg,0,1,2457,37
240,container_open,./Images/container_open/e1_s2.jpg,0,1,2139,37
240,container_open,./Images/container_open/e2_s1.jpg,1,1,2139,37
241,corkscrew,./Images/corkscrew/e2_s2.jpg,1,2,5957,37
241,corkscrew,./Images/corkscrew/e1_s1.jpg,1,2,5957,37
242,book,./Images/book/e2_s1.jpg,1,2,1757,37
242,book,./Images/book/e1_s1.jpg,1,2,1757,37
243,pail,./Images/pail/e2_s1.jpg,0,1,1923,37
243,pail,./Images/pail/e1_s2.jpg,1,1,1923,37
244,hourglass,./Images/hourglass/e1_s2.jpg,1,1,4425,37
244,hourglass,./Images/hourglass/e2_s1.jpg,0,1,4425,37
245,shoe,./Images/shoe/e2_s2.jpg,1,2,2240,37
245,shoe,./Images/shoe/e1_s2.jpg,1,2,2240,37
246,book_object,./Images/book_object/e1_s1.jpg,1,2,2890,37
246,book_object,./Images/book_object/e2_s2.jpg,1,2,2890,37
247,mailbox,./Images/mailbox/e1_s1.jpg,1,2,2341,37
247,mailbox,./Images/mailbox/e2_s1.jpg,1,2,2341,37
248,dryer,./Images/dryer/e1_s2.jpg,1,2,3223,37
248,dryer,./Images/dryer/e2_s2.jpg,1,2,3223,37
249,plastic_bottle,./Images/plastic_bottle/e1_s2.jpg,0,1,2375,37
249,plastic_bottle,./Images/plastic_bottle/e2_s2.jpg,1,1,2375,37
250,accordion,./Images/accordion/e1_s2.jpg,0,0,2006,37
250,accordion,./Images/accordion/e2_s1.jpg,0,0,2006,37
251,scanner,./Images/scanner/e2_s2.jpg,0,1,2458,37
251,scanner,./Images/scanner/e1_s1.jpg,1,1,2458,37
252,tricycle,./Images/tricycle/e2_s1.jpg,0,1,3006.99999999988,37
252,tricycle,./Images/tricycle/e1_s1.jpg,1,1,3006.99999999988,37
253,chocolate_bar,./Images/chocolate_bar/e2_s1.jpg,1,2,3256,37
253,chocolate_bar,./Images/chocolate_bar/e1_s1.jpg,1,2,3256,37
254,clocks,./Images/clocks/e2_s2.jpg,0,1,1374,37
254,clocks,./Images/clocks/e1_s1.jpg,1,1,1374,37
255,umbrella,./Images/umbrella/e1_s2.jpg,1,2,4391,37
255,umbrella,./Images/umbrella/e2_s1.jpg,1,2,4391,37
256,drink,./Images/drink/e2_s1.jpg,0,1,1757,37
256,drink,./Images/drink/e1_s1.jpg,1,1,1757,37
257,toilet,./Images/toilet/e1_s1.jpg,1,2,1556,37
257,toilet,./Images/toilet/e2_s2.jpg,1,2,1556,37
258,leather_bag,./Images/leather_bag/e2_s2.jpg,0,0,2290,37
258,leather_bag,./Images/leather_bag/e1_s1.jpg,0,0,2290,37
259,scissors,./Images/scissors/e1_s2.jpg,1,1,1257,37
259,scissors,./Images/scissors/e2_s2.jpg,0,1,1257,37
260,microwave,./Images/microwave/e2_s1.jpg,0,1,2625,37
260,microwave,./Images/microwave/e1_s2.jpg,1,1,2625,37
261,gift_box,./Images/gift_box/e1_s1.jpg,1,1,1724,37
261,gift_box,./Images/gift_box/e2_s1.jpg,0,1,1724,37
262,typewriter,./Images/typewriter/e2_s1.jpg,0,1,4209,37
262,typewriter,./Images/typewriter/e1_s2.jpg,1,1,4209,37
263,cabbage,./Images/cabbage/e1_s2.jpg,1,2,2474.00000000012,37
263,cabbage,./Images/cabbage/e2_s1.jpg,1,2,2474.00000000012,37
264,toy_truck,./Images/toy_truck/e1_s2.jpg,0,0,2057,37
264,toy_truck,./Images/toy_truck/e2_s1.jpg,0,0,2057,37
265,theater_seats,./Images/theater_seats/e1_s2.jpg,0,1,1174.00000000012,37
265,theater_seats,./Images/theater_seats/e2_s2.jpg,1,1,1174.00000000012,37
266,usb_key,./Images/usb_key/e1_s1.jpg,0,1,3458,37
266,usb_key,./Images/usb_key/e2_s2.jpg,1,1,3458,37
267,poker_chips,./Images/poker_chips/e2_s2.jpg,1,1,1790,37
267,poker_chips,./Images/poker_chips/e1_s2.jpg,0,1,1790,37
268,cabinet,./Images/cabinet/e2_s2.jpg,1,1,1275,37
268,cabinet,./Images/cabinet/e1_s1.jpg,0,1,1275,37
269,chip,./Images/chip/e1_s1.jpg,0,1,3207,37
269,chip,./Images/chip/e2_s1.jpg,1,1,3207,37
270,bottle_liquid,./Images/bottle_liquid/e2_s2.jpg,0,0,1109,37
270,bottle_liquid,./Images/bottle_liquid/e1_s2.jpg,0,0,1109,37
271,chips,./Images/chips/e1_s1.jpg,1,2,1842,37
271,chips,./Images/chips/e2_s1.jpg,1,2,1842,37
272,lottery_ticket,./Images/lottery_ticket/e2_s1.jpg,0,1,2841,37
272,lottery_ticket,./Images/lottery_ticket/e1_s2.jpg,1,1,2841,37
273,tictac,./Images/tictac/e2_s1.jpg,0,0,3241,37
273,tictac,./Images/tictac/e1_s1.jpg,0,0,3241,37
274,fridge,./Images/fridge/e2_s1.jpg,0,1,1559,37
274,fridge,./Images/fridge/e1_s1.jpg,1,1,1559,37
275,lotion,./Images/lotion/e1_s1.jpg,1,2,2375,37
275,lotion,./Images/lotion/e2_s1.jpg,1,2,2375,37
276,phone,./Images/phone/e2_s2.jpg,0,0,1107.99999999988,37
276,phone,./Images/phone/e1_s2.jpg,0,0,1107.99999999988,37
277,cooking_pot,./Images/cooking_pot/e2_s1.jpg,0,1,3758.00000000012,37
277,cooking_pot,./Images/cooking_pot/e1_s1.jpg,1,1,3758.00000000012,37
278,oj,./Images/oj/e1_s1.jpg,1,1,5608,37
278,oj,./Images/oj/e2_s2.jpg,0,1,5608,37
279,tape_dispenser,./Images/tape_dispenser/e2_s1.jpg,1,2,1190.99999999988,37
279,tape_dispenser,./Images/tape_dispenser/e1_s1.jpg,1,2,1190.99999999988,37
280,paper_cup,./Images/paper_cup/e1_s2.jpg,1,2,2225,37
280,paper_cup,./Images/paper_cup/e2_s1.jpg,1,2,2225,37
281,sponge,./Images/sponge/e1_s1.jpg,1,2,2540,37
281,sponge,./Images/sponge/e2_s1.jpg,1,2,2540,37
282,peanut_butter,./Images/peanut_butter/e2_s1.jpg,0,0,3493,37
282,peanut_butter,./Images/peanut_butter/e1_s1.jpg,0,0,3493,37
283,laptop,./Images/laptop/e2_s1.jpg,1,1,2608,37
283,laptop,./Images/laptop/e1_s1.jpg,0,1,2608,37
284,cell,./Images/cell/e1_s2.jpg,0,0,2308,37
284,cell,./Images/cell/e2_s2.jpg,0,0,2308,37
285,apple,./Images/apple/e1_s1.jpg,0,1,1942,37
285,apple,./Images/apple/e2_s1.jpg,1,1,1942,37
286,cookie,./Images/cookie/e1_s2.jpg,1,2,3292.00000000012,37
286,cookie,./Images/cookie/e2_s2.jpg,1,2,3292.00000000012,37
287,coins,./Images/coins/e1_s1.jpg,0,0,1376,37
287,coins,./Images/coins/e2_s1.jpg,0,0,1376,37
288,menorah,./Images/menorah/e2_s1.jpg,1,2,2792,37
288,menorah,./Images/menorah/e1_s1.jpg,1,2,2792,37
289,aabacus,./Images/aabacus/e1_s2.jpg,1,2,4125,37
289,aabacus,./Images/aabacus/e2_s2.jpg,1,2,4125,37
290,hand_puppet,./Images/hand_puppet/e2_s1.jpg,0,0,2809,37
290,hand_puppet,./Images/hand_puppet/e1_s2.jpg,0,0,2809,37
291,keys,./Images/keys/e2_s1.jpg,1,1,4857.00000000012,37
291,keys,./Images/keys/e1_s1.jpg,0,1,4857.00000000012,37
292,cocktail_umbrella,./Images/cocktail_umbrella/e1_s2.jpg,0,1,3742.00000000012,37
292,cocktail_umbrella,./Images/cocktail_umbrella/e2_s2.jpg,1,1,3742.00000000012,37
293,pen,./Images/pen/e1_s2.jpg,1,1,1959,37
293,pen,./Images/pen/e2_s2.jpg,0,1,1959,37
294,coffeemug,./Images/coffeemug/e1_s1.jpg,1,2,4092.00000000012,37
294,coffeemug,./Images/coffeemug/e2_s2.jpg,1,2,4092.00000000012,37
295,sugar_paper,./Images/sugar_paper/e1_s1.jpg,1,2,5175.00000000012,37
295,sugar_paper,./Images/sugar_paper/e2_s2.jpg,1,2,5175.00000000012,37
296,dresser,./Images/dresser/e1_s1.jpg,1,2,2726,37
296,dresser,./Images/dresser/e2_s1.jpg,1,2,2726,37
297,phone_antique,./Images/phone_antique/e2_s1.jpg,1,2,3793,37
297,phone_antique,./Images/phone_antique/e1_s1.jpg,1,2,3793,37
298,sugar_bowl,./Images/sugar_bowl/e2_s1.jpg,1,1,2375,37
298,sugar_bowl,./Images/sugar_bowl/e1_s2.jpg,0,1,2375,37
299,baseball_glove,./Images/baseball_glove/e1_s1.jpg,1,1,2327,37
299,baseball_glove,./Images/baseball_glove/e2_s2.jpg,0,1,2327,37
300,gummy,./Images/gummy/e1_s2.jpg,1,2,2058.00000000012,37
300,gummy,./Images/gummy/e2_s2.jpg,1,2,2058.00000000012,37
301,bottle_perfume,./Images/bottle_perfume/e1_s1.jpg,0,1,4426,37
301,bottle_perfume,./Images/bottle_perfume/e2_s1.jpg,1,1,4426,37
302,notebook,./Images/notebook/e1_s1.jpg,1,2,2293,37
302,notebook,./Images/notebook/e2_s1.jpg,1,2,2293,37
303,kettle,./Images/kettle/e1_s1.jpg,1,2,1774,37
303,kettle,./Images/kettle/e2_s2.jpg,1,2,1774,37
304,altoid,./Images/altoid/e1_s1.jpg,1,2,5176,37
304,altoid,./Images/altoid/e2_s2.jpg,1,2,5176,37
305,file_box,./Images/file_box/e2_s1.jpg,0,0,2360,37
305,file_box,./Images/file_box/e1_s1.jpg,0,0,2360,37
206,chapstick,./Images/chapstick/e1_s2.jpg,1,2,12771.6999999881,3
206,chapstick,./Images/chapstick/e2_s1.jpg,1,2,12771.6999999881,3
207,menorah,./Images/menorah/e2_s1.jpg,1,2,14853.3999999762,3
207,menorah,./Images/menorah/e1_s1.jpg,1,2,14853.3999999762,3
208,fridge,./Images/fridge/e1_s1.jpg,1,2,6738.40000000596,3
208,fridge,./Images/fridge/e2_s2.jpg,1,2,6738.40000000596,3
209,toy_truck,./Images/toy_truck/e2_s1.jpg,1,2,5377.5,3
209,toy_truck,./Images/toy_truck/e1_s2.jpg,1,2,5377.5,3
210,laptop,./Images/laptop/e1_s2.jpg,1,2,2708.59999999404,3
210,laptop,./Images/laptop/e2_s1.jpg,1,2,2708.59999999404,3
211,reeses,./Images/reeses/e2_s2.jpg,1,2,5775.90000000596,3
211,reeses,./Images/reeses/e1_s1.jpg,1,2,5775.90000000596,3
212,mustard,./Images/mustard/e2_s2.jpg,1,2,2502.80000001192,3
212,mustard,./Images/mustard/e1_s2.jpg,1,2,2502.80000001192,3
213,yarn,./Images/yarn/e2_s1.jpg,0,1,6710.90000000596,3
213,yarn,./Images/yarn/e1_s2.jpg,1,1,6710.90000000596,3
214,phone,./Images/phone/e2_s1.jpg,0,1,9197.59999999404,3
214,phone,./Images/phone/e1_s2.jpg,1,1,9197.59999999404,3
215,metronome,./Images/metronome/e1_s2.jpg,1,2,12983.900000006,3
215,metronome,./Images/metronome/e2_s1.jpg,1,2,12983.900000006,3
216,cell,./Images/cell/e1_s1.jpg,1,2,3266.5,3
216,cell,./Images/cell/e2_s2.jpg,1,2,3266.5,3
217,tissues,./Images/tissues/e2_s1.jpg,1,2,5943.90000000596,3
217,tissues,./Images/tissues/e1_s2.jpg,1,2,5943.90000000596,3
218,drink,./Images/drink/e1_s2.jpg,0,1,10148.8000000119,3
218,drink,./Images/drink/e2_s1.jpg,1,1,10148.8000000119,3
219,baseball_glove,./Images/baseball_glove/e1_s1.jpg,1,2,3540.69999998808,3
219,baseball_glove,./Images/baseball_glove/e2_s2.jpg,1,2,3540.69999998808,3
220,umbrella,./Images/umbrella/e2_s1.jpg,1,2,3622.59999999404,3
220,umbrella,./Images/umbrella/e1_s2.jpg,1,2,3622.59999999404,3
221,chocolate_bar,./Images/chocolate_bar/e1_s2.jpg,1,2,6122.20000001788,3
221,chocolate_bar,./Images/chocolate_bar/e2_s1.jpg,1,2,6122.20000001788,3
222,paper_cup,./Images/paper_cup/e2_s2.jpg,1,2,3047.79999998212,3
222,paper_cup,./Images/paper_cup/e1_s1.jpg,1,2,3047.79999998212,3
223,hourglass,./Images/hourglass/e1_s1.jpg,1,2,4572.80000001192,3
223,hourglass,./Images/hourglass/e2_s1.jpg,1,2,4572.80000001192,3
224,altoid,./Images/altoid/e1_s1.jpg,1,2,3721.19999998808,3
224,altoid,./Images/altoid/e2_s2.jpg,1,2,3721.19999998808,3
225,book_object,./Images/book_object/e1_s1.jpg,1,2,2821.69999998808,3
225,book_object,./Images/book_object/e2_s2.jpg,1,2,2821.69999998808,3
226,notebook,./Images/notebook/e2_s1.jpg,1,2,4676.90000000596,3
226,notebook,./Images/notebook/e1_s1.jpg,1,2,4676.90000000596,3
227,menus,./Images/menus/e2_s2.jpg,1,2,2499,3
227,menus,./Images/menus/e1_s1.jpg,1,2,2499,3
228,pen,./Images/pen/e1_s2.jpg,1,2,4764.10000002384,3
228,pen,./Images/pen/e2_s1.jpg,1,2,4764.10000002384,3
229,lottery_ticket,./Images/lottery_ticket/e2_s1.jpg,0,1,5615.19999998808,3
229,lottery_ticket,./Images/lottery_ticket/e1_s2.jpg,1,1,5615.19999998808,3
230,small_box,./Images/small_box/e1_s1.jpg,1,1,7275.59999999404,3
230,small_box,./Images/small_box/e2_s2.jpg,0,1,7275.59999999404,3
231,cookie,./Images/cookie/e2_s1.jpg,1,2,2916.70000001788,3
231,cookie,./Images/cookie/e1_s1.jpg,1,2,2916.70000001788,3
232,dresser,./Images/dresser/e1_s1.jpg,1,2,6622.5,3
232,dresser,./Images/dresser/e2_s1.jpg,1,2,6622.5,3
233,chair_recliner,./Images/chair_recliner/e2_s1.jpg,1,2,3472,3
233,chair_recliner,./Images/chair_recliner/e1_s2.jpg,1,2,3472,3
234,gummy,./Images/gummy/e2_s2.jpg,1,2,9855.69999998808,3
234,gummy,./Images/gummy/e1_s2.jpg,1,2,9855.69999998808,3
235,tictac,./Images/tictac/e2_s1.jpg,1,2,25049.7000000179,3
235,tictac,./Images/tictac/e1_s2.jpg,1,2,25049.7000000179,3
236,usb_key,./Images/usb_key/e2_s1.jpg,1,2,7390.29999998212,3
236,usb_key,./Images/usb_key/e1_s2.jpg,1,2,7390.29999998212,3
237,aabacus,./Images/aabacus/e2_s1.jpg,1,2,2771.30000001192,3
237,aabacus,./Images/aabacus/e1_s2.jpg,1,2,2771.30000001192,3
238,keys,./Images/keys/e1_s2.jpg,1,2,5810.29999998212,3
238,keys,./Images/keys/e2_s1.jpg,1,2,5810.29999998212,3
239,leather_bag,./Images/leather_bag/e1_s1.jpg,1,2,4034.60000002384,3
239,leather_bag,./Images/leather_bag/e2_s2.jpg,1,2,4034.60000002384,3
240,sharpie_pens,./Images/sharpie_pens/e2_s2.jpg,1,2,10664,3
240,sharpie_pens,./Images/sharpie_pens/e1_s2.jpg,1,2,10664,3
241,tape_dispenser,./Images/tape_dispenser/e2_s2.jpg,1,2,3774.09999999404,3
241,tape_dispenser,./Images/tape_dispenser/e1_s2.jpg,1,2,3774.09999999404,3
242,accordion,./Images/accordion/e1_s1.jpg,1,2,11197.1999999881,3
242,accordion,./Images/accordion/e2_s1.jpg,1,2,11197.1999999881,3
243,apple,./Images/apple/e2_s1.jpg,1,2,2030.40000000596,3
243,apple,./Images/apple/e1_s1.jpg,1,2,2030.40000000596,3
244,scanner,./Images/scanner/e1_s1.jpg,1,2,2970.09999999404,3
244,scanner,./Images/scanner/e2_s1.jpg,1,2,2970.09999999404,3
245,corkscrew,./Images/corkscrew/e1_s2.jpg,1,2,8070.20000001788,3
245,corkscrew,./Images/corkscrew/e2_s2.jpg,1,2,8070.20000001788,3
246,theater_seats,./Images/theater_seats/e1_s2.jpg,1,2,4068.80000001192,3
246,theater_seats,./Images/theater_seats/e2_s1.jpg,1,2,4068.80000001192,3
247,garlic_press,./Images/garlic_press/e1_s1.jpg,1,2,2716.19999998808,3
247,garlic_press,./Images/garlic_press/e2_s1.jpg,1,2,2716.19999998808,3
248,wallet,./Images/wallet/e2_s1.jpg,1,2,2571.29999998212,3
248,wallet,./Images/wallet/e1_s1.jpg,1,2,2571.29999998212,3
249,cabbage,./Images/cabbage/e1_s1.jpg,1,2,2956.79999998212,3
249,cabbage,./Images/cabbage/e2_s1.jpg,1,2,2956.79999998212,3
250,sugar_paper,./Images/sugar_paper/e2_s1.jpg,1,2,2490.39999997616,3
250,sugar_paper,./Images/sugar_paper/e1_s1.jpg,1,2,2490.39999997616,3
251,chocolate,./Images/chocolate/e2_s2.jpg,1,2,3121.70000001788,3
251,chocolate,./Images/chocolate/e1_s1.jpg,1,2,3121.70000001788,3
252,container_open,./Images/container_open/e2_s1.jpg,1,2,4790,3
252,container_open,./Images/container_open/e1_s1.jpg,1,2,4790,3
253,file_folder,./Images/file_folder/e1_s1.jpg,1,2,2832.5,3
253,file_folder,./Images/file_folder/e2_s1.jpg,1,2,2832.5,3
254,cooking_pot,./Images/cooking_pot/e1_s1.jpg,1,2,2282.5,3
254,cooking_pot,./Images/cooking_pot/e2_s1.jpg,1,2,2282.5,3
255,file_box,./Images/file_box/e1_s1.jpg,1,2,3428.30000001192,3
255,file_box,./Images/file_box/e2_s1.jpg,1,2,3428.30000001192,3
256,chip,./Images/chip/e2_s1.jpg,1,2,2180.5,3
256,chip,./Images/chip/e1_s1.jpg,1,2,2180.5,3
257,bills,./Images/bills/e1_s1.jpg,1,2,2772.20000001788,3
257,bills,./Images/bills/e2_s1.jpg,1,2,2772.20000001788,3
258,mixer,./Images/mixer/e1_s2.jpg,1,2,6840.60000002384,3
258,mixer,./Images/mixer/e2_s1.jpg,1,2,6840.60000002384,3
