participant,trial_counter,condition,target_to_competitor,decoy_reduction,decoy_on,chosen_item,correct,rt
1,1,perceptual,0.1,0.05,competitor,target,1,11.289
1,3,numeric,0.03,0.05,target,target,1,0.185
1,4,perceptual,0.1,0.05,target,target,1,6.052
1,5,numeric,0.03,0.05,target,competitor,0,4.371
1,6,perceptual,0.1,0.2,target,competitor,0,4.804
1,7,perceptual,0.1,0.05,competitor,target,1,3.256
1,8,numeric,0.1,0.05,competitor,target,1,13.249
1,9,numeric,0.03,0.05,competitor,competitor,0,14.071
1,10,numeric,0.1,0.05,target,competitor,0,11.951
1,11,perceptual,0.03,0.05,competitor,target,1,3.126
1,12,numeric,0.03,0.2,competitor,target,1,4.292
1,13,numeric,0.1,0.05,target,target,1,11.358
1,14,numeric,0.03,0.2,target,competitor,0,4.244
1,15,perceptual,0.1,0.05,competitor,target,1,4.562
1,16,perceptual,0.03,0.05,target,target,1,8.365
1,17,numeric,0.1,0.2,competitor,target,1,4.651
1,18,numeric,0.1,0.2,target,target,1,9.7
1,19,numeric,0.03,0.05,target,target,1,15.198
1,21,perceptual,0.1,0.2,competitor,decoy,0,0.325
1,22,perceptual,0.03,0.05,competitor,target,1,3.57
1,23,perceptual,0.1,0.2,target,target,1,4.514
1,24,perceptual,0.1,0.2,competitor,target,1,3.254
1,25,numeric,0.1,0.2,competitor,target,1,6.229
1,26,numeric,0.1,0.2,competitor,target,1,8.313
1,27,perceptual,0.03,0.2,competitor,target,1,10.242
1,28,perceptual,0.1,0.2,target,target,1,4.021
1,29,perceptual,0.03,0.2,target,competitor,0,6.401
1,30,perceptual,0.03,0.2,competitor,target,1,4.824
1,31,perceptual,0.1,0.05,competitor,target,1,4.664
1,32,numeric,0.03,0.2,competitor,competitor,0,12.658
1,33,perceptual,0.1,0.05,target,target,1,9.025
1,34,numeric,0.1,0.2,target,target,1,8.509
1,35,perceptual,0.03,0.2,target,target,1,3.497
1,36,perceptual,0.1,0.05,target,target,1,6.848
1,37,perceptual,0.03,0.05,target,competitor,0,6.119
1,38,perceptual,0.03,0.2,competitor,competitor,0,14.3
1,39,perceptual,0.1,0.2,competitor,target,1,7.37
1,40,numeric,0.1,0.05,competitor,target,1,11.432
1,41,numeric,0.1,0.2,competitor,target,1,8.493
1,42,numeric,0.1,0.05,competitor,decoy,0,11.369
1,43,perceptual,0.03,0.05,target,competitor,0,6.469
1,44,perceptual,0.03,0.05,target,target,1,9.889
1,45,perceptual,0.1,0.05,competitor,target,1,8.994
1,46,perceptual,0.03,0.2,competitor,competitor,0,10.048
1,47,numeric,0.1,0.2,competitor,competitor,0,11.476
1,48,perceptual,0.1,0.2,target,target,1,3.212
1,49,numeric,0.03,0.2,target,competitor,0,5.776
1,50,numeric,0.03,0.05,target,target,1,10.129
1,51,perceptual,0.1,0.05,competitor,target,1,5.114
1,52,numeric,0.03,0.2,target,target,1,5.353
1,53,perceptual,0.1,0.05,target,target,1,3.064
1,54,perceptual,0.1,0.05,target,target,1,2.235
1,55,numeric,0.03,0.2,target,target,1,12.102
1,56,perceptual,0.03,0.05,target,competitor,0,3.905
1,57,numeric,0.03,0.2,competitor,competitor,0,14.573
1,58,numeric,0.03,0.05,competitor,competitor,0,17.555
1,59,numeric,0.1,0.05,competitor,target,1,7.748
1,60,numeric,0.1,0.05,target,competitor,0,6.018
1,61,numeric,0.1,0.2,target,competitor,0,6.683
1,62,numeric,0.03,0.2,competitor,competitor,0,10.466
1,63,perceptual,0.03,0.2,competitor,target,1,7.803
1,64,numeric,0.03,0.2,target,target,1,4.638
1,65,perceptual,0.03,0.05,competitor,competitor,0,7.204
1,66,perceptual,0.03,0.2,competitor,competitor,0,6.634
1,67,perceptual,0.03,0.2,competitor,target,1,2.538
1,68,numeric,0.1,0.2,competitor,competitor,0,9.292
1,69,numeric,0.03,0.2,competitor,target,1,3.688
1,70,perceptual,0.1,0.2,competitor,decoy,0,2.318
1,71,numeric,0.03,0.2,target,target,1,2.76
1,72,numeric,0.1,0.2,target,target,1,2.121
1,73,numeric,0.03,0.05,competitor,competitor,0,4.321
1,74,numeric,0.03,0.2,competitor,target,1,2.009
1,75,perceptual,0.03,0.2,target,competitor,0,2
1,76,numeric,0.1,0.05,target,decoy,0,2.196
1,77,perceptual,0.1,0.05,competitor,decoy,0,2.397
1,78,perceptual,0.1,0.2,competitor,target,1,2.722
1,79,perceptual,0.03,0.05,target,decoy,0,2
1,80,perceptual,0.1,0.2,target,target,1,2.224
1,81,perceptual,0.03,0.05,competitor,target,1,2.1
1,82,numeric,0.1,0.05,target,target,1,2.567
1,83,perceptual,0.1,0.2,target,target,1,2.657
1,84,numeric,0.03,0.05,competitor,target,1,1.989
1,85,perceptual,0.1,0.05,target,target,1,3.366
1,86,numeric,0.03,0.05,competitor,decoy,0,2.518
1,87,numeric,0.1,0.05,competitor,competitor,0,2.349
1,88,perceptual,0.03,0.2,target,target,1,2.739
1,89,numeric,0.1,0.05,competitor,decoy,0,1.821
1,90,perceptual,0.03,0.05,target,competitor,0,1.612
1,91,numeric,0.1,0.2,competitor,decoy,0,1.431
1,92,numeric,0.1,0.05,competitor,decoy,0,1.442
1,93,perceptual,0.03,0.05,competitor,competitor,0,1.653
1,94,numeric,0.03,0.05,competitor,decoy,0,1.689
1,95,perceptual,0.1,0.2,competitor,target,1,2.136
1,96,perceptual,0.03,0.2,target,target,1,1.889
1,97,numeric,0.03,0.05,target,decoy,0,1.511
1,98,perceptual,0.1,0.05,target,competitor,0,1.37
1,99,perceptual,0.03,0.05,target,competitor,0,1.449
1,100,perceptual,0.1,0.2,competitor,target,1,1.693
1,101,numeric,0.03,0.05,target,competitor,0,2.069
1,102,numeric,0.1,0.05,competitor,target,1,2.308
1,103,numeric,0.03,0.2,competitor,target,1,5.397
1,104,numeric,0.03,0.2,target,target,1,2.064
1,105,numeric,0.1,0.2,competitor,target,1,2.082
1,106,perceptual,0.1,0.05,competitor,target,1,2.236
1,107,numeric,0.1,0.2,target,target,1,3.399
1,108,numeric,0.1,0.05,target,target,1,5.421
1,109,perceptual,0.03,0.05,competitor,decoy,0,6.374
1,110,perceptual,0.03,0.2,competitor,competitor,0,10.795
1,111,numeric,0.03,0.05,target,decoy,0,3.423
1,112,numeric,0.1,0.2,target,decoy,0,2.027
1,113,perceptual,0.03,0.05,target,target,1,3.055
1,114,numeric,0.1,0.2,target,target,1,2.429
1,115,numeric,0.03,0.2,target,target,1,2.313
1,116,perceptual,0.1,0.2,competitor,target,1,2.199
1,117,perceptual,0.1,0.05,target,competitor,0,5.469
1,118,perceptual,0.03,0.2,competitor,competitor,0,3.721
1,119,perceptual,0.03,0.2,target,target,1,1.8
1,120,numeric,0.03,0.2,target,decoy,0,2.612
1,121,numeric,0.03,0.05,target,decoy,0,2.574
1,122,perceptual,0.1,0.2,target,decoy,0,1.807
1,123,numeric,0.03,0.05,competitor,target,1,2.57
1,124,perceptual,0.1,0.2,target,target,1,2.211
1,125,perceptual,0.1,0.05,target,target,1,2.147
1,126,numeric,0.1,0.2,target,competitor,0,3.223
1,127,perceptual,0.1,0.2,competitor,target,1,2.883
1,128,numeric,0.1,0.2,competitor,competitor,0,3.762
1,129,numeric,0.1,0.2,target,target,1,3.83
1,130,numeric,0.1,0.2,competitor,competitor,0,1.766
1,131,numeric,0.03,0.05,competitor,competitor,0,1.956
1,132,numeric,0.1,0.05,target,target,1,2.399
1,133,perceptual,0.03,0.2,target,competitor,0,3.383
1,134,numeric,0.1,0.05,target,decoy,0,2.252
1,135,perceptual,0.1,0.05,competitor,competitor,0,2.499
1,136,numeric,0.1,0.2,competitor,competitor,0,2.168
1,137,numeric,0.03,0.2,competitor,decoy,0,2.507
1,138,perceptual,0.03,0.05,competitor,target,1,1.854
1,139,numeric,0.1,0.05,target,target,1,1.614
1,140,perceptual,0.03,0.2,target,target,1,1.944
1,141,numeric,0.1,0.2,target,target,1,2.209
1,142,numeric,0.1,0.2,target,target,1,4.343
1,143,perceptual,0.03,0.05,target,target,1,2.258
1,144,perceptual,0.03,0.05,competitor,target,1,2.284
1,145,perceptual,0.03,0.05,competitor,target,1,4.032
1,146,perceptual,0.03,0.2,competitor,target,1,3.153
1,147,perceptual,0.03,0.05,target,target,1,7.99
1,148,numeric,0.1,0.05,target,target,1,2.833
1,149,numeric,0.03,0.05,competitor,competitor,0,2.858
1,150,perceptual,0.1,0.2,target,target,1,2.672
1,151,numeric,0.03,0.05,competitor,competitor,0,11.398
1,152,perceptual,0.1,0.2,competitor,target,1,4.144
1,153,perceptual,0.1,0.05,competitor,target,1,4.286
1,154,numeric,0.03,0.2,target,decoy,0,7.097
1,155,numeric,0.03,0.2,target,competitor,0,0.309
1,156,numeric,0.03,0.05,target,target,1,6.944
1,157,perceptual,0.03,0.05,competitor,competitor,0,3.166
1,158,perceptual,0.1,0.05,competitor,target,1,3.29
1,159,perceptual,0.1,0.2,target,decoy,0,3.8
1,160,numeric,0.03,0.2,competitor,target,1,5.702
1,161,perceptual,0.1,0.2,competitor,target,1,2.26
1,162,numeric,0.03,0.2,competitor,competitor,0,6.478
1,163,perceptual,0.03,0.2,target,target,1,3.207
1,164,perceptual,0.1,0.2,target,target,1,3.301
1,165,numeric,0.03,0.05,target,target,1,3.973
1,166,perceptual,0.03,0.2,competitor,target,1,4.213
1,167,numeric,0.03,0.2,target,competitor,0,3.924
1,168,numeric,0.1,0.2,competitor,competitor,0,3.334
1,169,perceptual,0.03,0.05,target,decoy,0,4.748
1,170,numeric,0.1,0.05,competitor,competitor,0,2.485
1,171,perceptual,0.1,0.05,target,target,1,6.273
1,172,numeric,0.1,0.2,target,target,1,2.02
1,173,perceptual,0.03,0.2,target,target,1,2.146
1,174,perceptual,0.1,0.05,target,competitor,0,1.723
1,175,perceptual,0.03,0.05,competitor,competitor,0,2.625
1,176,perceptual,0.03,0.05,competitor,target,1,3.064
1,177,numeric,0.1,0.05,competitor,target,1,3.212
1,178,numeric,0.1,0.05,target,target,1,1.83
1,179,numeric,0.03,0.2,competitor,target,1,2.16
1,180,numeric,0.03,0.05,competitor,target,1,2.193
1,182,perceptual,0.03,0.2,target,target,1,2.154
1,183,perceptual,0.1,0.2,target,target,1,4.403
1,184,perceptual,0.03,0.2,target,target,1,15.243
1,185,numeric,0.1,0.05,competitor,decoy,0,9.457
1,186,perceptual,0.1,0.05,competitor,target,1,4.631
1,187,perceptual,0.1,0.05,target,target,1,5.307
1,188,numeric,0.1,0.05,competitor,competitor,0,3.08
1,189,numeric,0.03,0.2,competitor,target,1,3.372
1,190,perceptual,0.03,0.2,competitor,target,1,5.739
1,191,perceptual,0.1,0.2,competitor,competitor,0,4.327
1,192,numeric,0.1,0.05,target,target,1,1.718
2,1,numeric,0.03,0.05,target,competitor,0,12.137
2,2,numeric,0.03,0.05,target,competitor,0,6.2
2,3,perceptual,0.03,0.05,target,target,1,7.223
2,4,perceptual,0.1,0.05,competitor,target,1,6.204
2,5,perceptual,0.1,0.05,competitor,competitor,0,3.139
2,6,perceptual,0.03,0.05,competitor,target,1,5.551
2,7,numeric,0.03,0.2,competitor,target,1,9.738
2,8,perceptual,0.1,0.05,competitor,target,1,8.384
2,9,perceptual,0.1,0.2,target,target,1,7.132
2,10,numeric,0.1,0.2,target,decoy,0,9.09
2,11,numeric,0.03,0.2,target,target,1,5.208
2,12,perceptual,0.03,0.05,competitor,competitor,0,5.849
2,13,numeric,0.03,0.05,competitor,competitor,0,6.216
2,14,numeric,0.03,0.05,competitor,competitor,0,8.135
2,15,numeric,0.03,0.05,competitor,competitor,0,6.166
2,16,numeric,0.03,0.2,target,competitor,0,11.788
2,17,numeric,0.1,0.2,competitor,competitor,0,7.45
2,18,perceptual,0.03,0.05,competitor,target,1,8.334
2,19,numeric,0.03,0.05,competitor,target,1,7.116
2,20,perceptual,0.1,0.2,target,competitor,0,9.016
2,21,perceptual,0.03,0.05,target,decoy,0,8.535
2,22,perceptual,0.1,0.2,target,target,1,7.695
2,23,numeric,0.03,0.05,target,target,1,7.094
2,24,numeric,0.03,0.2,competitor,competitor,0,6.863
2,25,numeric,0.03,0.05,target,target,1,10.235
2,26,numeric,0.03,0.2,target,target,1,5.882
2,27,numeric,0.1,0.05,competitor,competitor,0,6.335
2,28,perceptual,0.1,0.2,competitor,target,1,5.118
2,29,numeric,0.03,0.05,target,target,1,7.266
2,30,numeric,0.1,0.05,target,target,1,5.484
2,31,perceptual,0.1,0.05,competitor,target,1,4.734
2,32,numeric,0.03,0.2,target,target,1,7.249
2,33,perceptual,0.03,0.2,competitor,target,1,8.557
2,34,perceptual,0.1,0.05,target,target,1,4.775
2,35,perceptual,0.1,0.05,target,decoy,0,10.499
2,36,numeric,0.1,0.05,competitor,competitor,0,7.156
2,37,perceptual,0.03,0.05,competitor,competitor,0,5.801
2,38,numeric,0.03,0.05,competitor,competitor,0,8.599
2,39,numeric,0.1,0.2,target,target,1,6.472
2,40,perceptual,0.03,0.05,competitor,decoy,0,4.091
2,41,perceptual,0.1,0.2,competitor,competitor,0,4.071
2,42,numeric,0.03,0.05,competitor,competitor,0,12.017
2,43,perceptual,0.03,0.2,competitor,competitor,0,5.837
2,44,numeric,0.1,0.05,competitor,target,1,7.449
2,45,perceptual,0.1,0.2,target,competitor,0,3.8
2,46,numeric,0.03,0.05,competitor,decoy,0,11.918
2,47,perceptual,0.1,0.2,competitor,target,1,3.588
2,48,numeric,0.1,0.2,target,target,1,6.933
2,49,numeric,0.03,0.2,competitor,target,1,6.452
2,50,perceptual,0.1,0.05,competitor,competitor,0,6.605
2,51,perceptual,0.1,0.05,target,competitor,0,4.554
2,52,numeric,0.1,0.05,competitor,target,1,7.059
2,53,perceptual,0.03,0.2,competitor,target,1,5.62
2,54,perceptual,0.03,0.2,target,competitor,0,4.652
2,55,perceptual,0.1,0.2,competitor,target,1,4.5
2,56,perceptual,0.1,0.05,competitor,competitor,0,6.303
2,57,perceptual,0.1,0.2,competitor,target,1,4.523
2,58,perceptual,0.03,0.05,competitor,decoy,0,5.305
2,59,numeric,0.03,0.05,target,target,1,8.556
2,60,numeric,0.1,0.05,target,target,1,8.781
2,61,numeric,0.03,0.2,competitor,competitor,0,8.979
2,62,perceptual,0.03,0.2,competitor,target,1,4.786
2,63,numeric,0.1,0.2,target,target,1,8.417
2,64,perceptual,0.1,0.05,target,target,1,2.95
2,65,perceptual,0.03,0.05,target,decoy,0,11.085
2,66,perceptual,0.1,0.05,competitor,target,1,5.784
2,67,perceptual,0.1,0.05,competitor,competitor,0,7.974
2,68,numeric,0.03,0.2,target,target,1,10.833
2,69,numeric,0.03,0.2,competitor,competitor,0,6.767
2,70,perceptual,0.03,0.2,competitor,competitor,0,5.519
2,71,numeric,0.1,0.05,target,target,1,4.337
2,72,perceptual,0.1,0.2,target,competitor,0,6.133
2,73,perceptual,0.1,0.05,target,decoy,0,5.166
2,74,numeric,0.1,0.2,target,target,1,5.4
2,75,perceptual,0.03,0.05,competitor,competitor,0,3.633
2,76,perceptual,0.1,0.2,competitor,target,1,2.988
2,77,perceptual,0.1,0.2,target,target,1,3.289
2,78,perceptual,0.03,0.05,target,target,1,6.572
2,79,perceptual,0.03,0.2,target,target,1,3.8
2,80,numeric,0.1,0.2,competitor,target,1,8.272
2,81,numeric,0.1,0.2,competitor,target,1,6.718
2,82,perceptual,0.1,0.2,target,target,1,7.183
2,83,perceptual,0.1,0.05,target,target,1,4.666
2,84,numeric,0.1,0.2,target,target,1,5.922
2,85,numeric,0.1,0.2,competitor,competitor,0,5.649
2,86,numeric,0.1,0.2,target,competitor,0,9.269
2,87,numeric,0.03,0.2,competitor,competitor,0,6.883
2,88,perceptual,0.03,0.2,target,target,1,3.921
2,89,perceptual,0.03,0.05,target,competitor,0,5.069
2,90,perceptual,0.03,0.2,target,competitor,0,4.733
2,91,numeric,0.03,0.2,target,target,1,6.22
2,92,perceptual,0.1,0.05,target,target,1,4.573
2,93,numeric,0.1,0.05,target,target,1,8.449
2,94,perceptual,0.1,0.05,competitor,competitor,0,4.823
2,95,numeric,0.1,0.05,target,target,1,9.819
2,96,perceptual,0.03,0.2,competitor,competitor,0,4.917
2,97,perceptual,0.03,0.2,competitor,target,1,4.521
2,98,numeric,0.1,0.05,target,target,1,7.148
2,99,perceptual,0.1,0.05,target,target,1,3.913
2,100,numeric,0.1,0.05,target,target,1,10.205
2,101,numeric,0.1,0.05,target,target,1,4.981
2,102,numeric,0.03,0.05,competitor,competitor,0,4.903
2,103,perceptual,0.1,0.05,target,competitor,0,3.818
2,104,perceptual,0.03,0.2,target,competitor,0,2.953
2,105,numeric,0.1,0.05,competitor,competitor,0,7.99
2,106,numeric,0.03,0.2,target,competitor,0,8.834
2,107,perceptual,0.03,0.05,target,competitor,0,5.42
2,108,perceptual,0.03,0.2,target,target,1,5.665
2,109,perceptual,0.03,0.2,competitor,competitor,0,3.349
2,110,numeric,0.03,0.2,target,decoy,0,3.412
2,111,perceptual,0.1,0.2,target,competitor,0,4.47
2,112,numeric,0.03,0.2,target,target,1,9.3
2,113,numeric,0.03,0.2,competitor,target,1,7.333
2,114,perceptual,0.1,0.2,competitor,target,1,3.072
2,115,numeric,0.03,0.05,target,target,1,4.866
2,116,numeric,0.03,0.05,target,target,1,8.18
2,117,perceptual,0.03,0.05,competitor,decoy,0,7.57
2,118,numeric,0.03,0.2,competitor,competitor,0,6.566
2,119,numeric,0.1,0.05,competitor,target,1,12.419
2,120,numeric,0.03,0.05,target,decoy,0,6.482
2,121,numeric,0.1,0.05,competitor,target,1,7.55
2,122,perceptual,0.1,0.2,competitor,target,1,3.449
2,123,numeric,0.03,0.2,competitor,target,1,5.817
2,124,numeric,0.03,0.05,competitor,target,1,4.849
2,125,numeric,0.1,0.05,competitor,decoy,0,6.342
2,126,numeric,0.1,0.05,competitor,competitor,0,6.705
2,127,perceptual,0.1,0.2,competitor,target,1,3.028
2,128,perceptual,0.1,0.2,competitor,target,1,2.663
2,129,perceptual,0.03,0.2,competitor,target,1,3.985
2,130,perceptual,0.1,0.2,target,target,1,3.052
2,131,perceptual,0.1,0.2,target,target,1,3.301
2,132,numeric,0.1,0.2,target,target,1,7.133
2,133,numeric,0.1,0.05,competitor,competitor,0,4.949
2,134,numeric,0.1,0.05,competitor,target,1,5.534
2,135,perceptual,0.03,0.05,target,competitor,0,1.216
2,136,perceptual,0.03,0.2,competitor,target,1,3.199
2,137,perceptual,0.03,0.05,competitor,target,1,3.55
2,138,numeric,0.1,0.05,competitor,target,1,6.45
2,139,perceptual,0.03,0.05,target,decoy,0,4.862
2,140,perceptual,0.03,0.05,competitor,decoy,0,3.513
2,141,numeric,0.1,0.2,competitor,target,1,8.1
2,142,numeric,0.1,0.05,target,target,1,9.849
2,143,numeric,0.1,0.2,target,target,1,4.085
2,144,numeric,0.1,0.2,competitor,target,1,6.7
2,145,numeric,0.1,0.2,competitor,competitor,0,5.752
2,146,numeric,0.03,0.05,competitor,competitor,0,10.552
2,147,perceptual,0.1,0.2,competitor,target,1,2.84
2,148,perceptual,0.1,0.2,target,target,1,3.618
2,149,perceptual,0.1,0.2,target,target,1,3.586
2,150,numeric,0.03,0.2,competitor,competitor,0,6.767
2,151,perceptual,0.03,0.2,competitor,target,1,3.341
2,152,perceptual,0.1,0.05,target,target,1,7.214
2,153,perceptual,0.03,0.05,target,target,1,3.98
2,154,perceptual,0.03,0.05,target,competitor,0,3.847
2,155,numeric,0.03,0.05,target,target,1,7.733
2,156,perceptual,0.03,0.05,target,competitor,0,5.437
2,157,perceptual,0.03,0.2,target,target,1,3.568
2,158,perceptual,0.1,0.05,competitor,decoy,0,6.634
2,159,perceptual,0.03,0.2,target,target,1,3.581
2,160,perceptual,0.1,0.2,competitor,target,1,2.737
2,161,numeric,0.03,0.05,competitor,competitor,0,5.211
2,162,numeric,0.1,0.2,competitor,competitor,0,6.795
2,163,numeric,0.1,0.2,competitor,competitor,0,7.896
2,164,perceptual,0.1,0.05,target,target,1,2.434
2,165,numeric,0.1,0.2,competitor,target,1,4.054
2,166,numeric,0.1,0.2,competitor,competitor,0,6.318
2,167,perceptual,0.03,0.05,target,target,1,5.451
2,168,perceptual,0.03,0.2,target,target,1,3.272
2,169,numeric,0.03,0.2,competitor,target,1,5.636
2,170,numeric,0.03,0.05,target,target,1,10.208
2,171,perceptual,0.03,0.2,target,target,1,3.732
2,172,perceptual,0.03,0.2,target,target,1,4.314
2,173,numeric,0.03,0.05,target,target,1,7.529
2,174,numeric,0.03,0.05,competitor,target,1,4.371
2,175,numeric,0.1,0.2,target,target,1,6.301
2,176,numeric,0.1,0.2,competitor,competitor,0,7.669
2,177,perceptual,0.1,0.05,target,target,1,5.477
2,178,numeric,0.03,0.2,target,target,1,5.168
2,179,numeric,0.1,0.2,target,target,1,4.33
2,180,numeric,0.1,0.05,target,target,1,7.139
2,181,perceptual,0.03,0.2,competitor,target,1,3.668
2,182,numeric,0.1,0.2,target,target,1,10.666
2,183,perceptual,0.03,0.05,competitor,decoy,0,3.651
2,184,numeric,0.03,0.2,target,competitor,0,11.42
2,185,perceptual,0.1,0.05,competitor,target,1,3.368
2,186,numeric,0.1,0.05,target,target,1,5.348
2,187,perceptual,0.03,0.05,competitor,competitor,0,5.62
2,188,perceptual,0.1,0.05,competitor,decoy,0,2.72
2,189,numeric,0.03,0.2,competitor,competitor,0,3.903
2,190,numeric,0.03,0.2,target,target,1,7.317
2,191,numeric,0.1,0.05,target,target,1,11.901
2,192,perceptual,0.03,0.2,target,target,1,3.42
3,1,perceptual,0.03,0.2,target,target,1,12.436
3,2,perceptual,0.1,0.2,target,target,1,5.71
3,3,numeric,0.1,0.2,target,competitor,0,5.404
3,4,numeric,0.03,0.05,target,competitor,0,6.808
3,5,perceptual,0.03,0.2,target,decoy,0,5.199
3,6,numeric,0.1,0.2,competitor,competitor,0,5.078
3,8,numeric,0.1,0.05,target,target,1,6.364
3,9,numeric,0.03,0.05,target,target,1,5.944
3,10,numeric,0.1,0.2,target,target,1,5.355
3,11,perceptual,0.03,0.2,target,competitor,0,4.483
3,12,perceptual,0.03,0.2,competitor,competitor,0,3.152
3,13,numeric,0.1,0.2,target,target,1,5.348
3,14,perceptual,0.1,0.05,target,decoy,0,4.237
3,15,perceptual,0.03,0.2,target,competitor,0,3.26
3,16,numeric,0.03,0.2,target,decoy,0,5.256
3,17,perceptual,0.1,0.05,competitor,target,1,3.036
3,18,perceptual,0.03,0.2,target,target,1,3.453
3,19,perceptual,0.03,0.2,competitor,competitor,0,3.754
3,20,numeric,0.03,0.05,target,competitor,0,3.634
3,21,numeric,0.03,0.05,target,competitor,0,5.102
3,22,perceptual,0.1,0.2,competitor,target,1,3.251
3,23,numeric,0.1,0.2,competitor,target,1,4.313
3,24,numeric,0.1,0.05,competitor,target,1,3.632
3,25,perceptual,0.1,0.2,competitor,target,1,2.67
3,26,numeric,0.03,0.2,competitor,competitor,0,2.997
3,27,perceptual,0.1,0.2,competitor,competitor,0,2.849
3,28,perceptual,0.1,0.2,target,target,1,3.99
3,29,numeric,0.1,0.2,target,target,1,4.545
3,30,numeric,0.03,0.2,target,target,1,3.636
3,31,numeric,0.03,0.2,competitor,decoy,0,6.863
3,32,numeric,0.03,0.2,target,competitor,0,3.407
3,33,perceptual,0.03,0.05,target,competitor,0,2.181
3,34,perceptual,0.03,0.2,target,decoy,0,1.935
3,35,numeric,0.1,0.2,target,target,1,4.196
3,36,numeric,0.1,0.2,target,competitor,0,3.321
3,37,perceptual,0.1,0.2,competitor,target,1,3.138
3,38,numeric,0.1,0.05,target,decoy,0,6.544
3,39,perceptual,0.03,0.2,competitor,competitor,0,3.384
3,40,perceptual,0.1,0.05,target,target,1,3.101
3,41,numeric,0.1,0.2,target,decoy,0,3.63
3,42,numeric,0.03,0.2,target,target,1,3.739
3,43,perceptual,0.03,0.05,competitor,decoy,0,2.61
3,44,perceptual,0.1,0.05,target,target,1,3.411
3,45,numeric,0.1,0.05,competitor,target,1,6.866
3,46,perceptual,0.1,0.05,competitor,competitor,0,3.044
3,47,perceptual,0.1,0.05,competitor,competitor,0,4.736
3,48,perceptual,0.1,0.05,competitor,target,1,4.961
3,49,numeric,0.1,0.05,competitor,target,1,3.358
3,50,perceptual,0.1,0.05,competitor,competitor,0,1.924
3,51,perceptual,0.03,0.05,target,competitor,0,3.274
3,52,numeric,0.03,0.05,target,target,1,4.914
3,53,numeric,0.03,0.2,target,target,1,4.941
3,54,numeric,0.1,0.2,competitor,competitor,0,3.076
3,55,numeric,0.1,0.05,target,competitor,0,3.242
3,56,perceptual,0.03,0.05,competitor,decoy,0,3.789
3,57,numeric,0.03,0.2,competitor,target,1,4.685
3,58,numeric,0.1,0.05,competitor,target,1,3.427
3,59,perceptual,0.1,0.05,target,target,1,3.239
3,60,numeric,0.03,0.2,competitor,decoy,0,5.712
3,61,numeric,0.03,0.05,competitor,decoy,0,7.069
3,62,numeric,0.03,0.2,competitor,target,1,9.622
3,63,perceptual,0.03,0.2,competitor,target,1,3.527
3,64,numeric,0.1,0.05,target,competitor,0,4.076
3,65,perceptual,0.1,0.05,competitor,competitor,0,2.98
3,66,perceptual,0.03,0.05,competitor,target,1,2.986
3,67,numeric,0.1,0.05,target,decoy,0,4.071
3,68,numeric,0.1,0.2,target,target,1,3.258
3,69,numeric,0.1,0.2,competitor,target,1,3.787
3,70,numeric,0.03,0.05,competitor,target,1,4.052
3,71,numeric,0.03,0.05,competitor,decoy,0,6.755
3,72,numeric,0.03,0.05,competitor,decoy,0,4.101
3,73,perceptual,0.1,0.2,competitor,target,1,2.784
3,74,perceptual,0.03,0.05,competitor,target,1,2.801
3,75,numeric,0.1,0.05,competitor,target,1,4.323
3,76,numeric,0.03,0.2,target,competitor,0,3.757
3,77,perceptual,0.1,0.05,target,decoy,0,2.888
3,78,numeric,0.1,0.2,competitor,competitor,0,3.781
3,79,perceptual,0.03,0.05,target,competitor,0,2.794
3,80,perceptual,0.1,0.05,competitor,target,1,5.761
3,81,numeric,0.03,0.05,competitor,decoy,0,2.923
3,82,numeric,0.1,0.05,competitor,target,1,3.107
3,83,numeric,0.1,0.05,target,target,1,4.959
3,84,perceptual,0.1,0.2,target,competitor,0,5.562
3,85,perceptual,0.03,0.05,competitor,decoy,0,3.282
3,86,numeric,0.1,0.05,competitor,target,1,3.378
3,87,perceptual,0.1,0.2,target,decoy,0,3.382
3,88,numeric,0.03,0.05,competitor,target,1,2.97
3,89,perceptual,0.03,0.2,competitor,target,1,3.422
3,90,perceptual,0.03,0.05,target,decoy,0,3.099
3,91,perceptual,0.1,0.2,target,target,1,6.439
3,92,numeric,0.1,0.2,competitor,competitor,0,4.338
3,93,perceptual,0.03,0.05,competitor,competitor,0,3.588
3,94,numeric,0.03,0.2,target,competitor,0,4.151
3,95,numeric,0.1,0.05,target,decoy,0,4.616
3,96,numeric,0.03,0.05,target,competitor,0,5.013
3,97,perceptual,0.03,0.05,competitor,decoy,0,2.798
3,98,numeric,0.03,0.2,competitor,decoy,0,4.157
3,99,perceptual,0.03,0.05,target,competitor,0,2.55
3,100,perceptual,0.03,0.05,competitor,competitor,0,3.708
3,101,numeric,0.03,0.2,target,target,1,4.067
3,102,perceptual,0.1,0.2,target,competitor,0,4.465
3,103,numeric,0.03,0.2,competitor,target,1,4.25
3,104,numeric,0.1,0.05,target,decoy,0,5.34
3,105,numeric,0.1,0.2,competitor,target,1,4.491
3,106,perceptual,0.1,0.05,target,target,1,2.491
3,107,perceptual,0.03,0.05,target,decoy,0,4.112
3,108,perceptual,0.1,0.2,competitor,target,1,3.419
3,109,perceptual,0.1,0.05,target,target,1,2.452
3,110,perceptual,0.1,0.2,target,competitor,0,3.424
3,111,perceptual,0.03,0.05,competitor,decoy,0,2.71
3,112,numeric,0.1,0.2,competitor,decoy,0,5.05
3,113,numeric,0.03,0.2,target,competitor,0,5.547
3,114,perceptual,0.03,0.2,target,target,1,4.092
3,115,numeric,0.1,0.2,target,competitor,0,3.468
3,116,perceptual,0.1,0.05,target,target,1,1.977
3,117,perceptual,0.1,0.2,competitor,target,1,3.442
3,118,numeric,0.03,0.2,target,competitor,0,5.301
3,119,numeric,0.1,0.2,target,target,1,4.073
3,120,perceptual,0.03,0.05,competitor,target,1,5.149
3,121,numeric,0.1,0.05,competitor,competitor,0,5.618
3,122,perceptual,0.1,0.05,competitor,target,1,2.919
3,123,perceptual,0.1,0.05,target,target,1,3.183
3,124,numeric,0.03,0.05,competitor,target,1,8.269
3,125,perceptual,0.03,0.2,target,target,1,2.972
3,126,numeric,0.1,0.05,competitor,target,1,7.323
3,127,perceptual,0.1,0.2,competitor,target,1,4.5
3,128,numeric,0.03,0.05,target,target,1,4.117
3,129,perceptual,0.03,0.2,competitor,competitor,0,3.204
3,130,numeric,0.03,0.05,competitor,target,1,4.01
3,131,perceptual,0.1,0.2,target,target,1,2.89
3,132,perceptual,0.03,0.2,competitor,target,1,5.959
3,133,perceptual,0.1,0.05,competitor,competitor,0,3.291
3,134,numeric,0.1,0.05,target,competitor,0,3.491
3,135,numeric,0.1,0.2,target,target,1,5.304
3,136,numeric,0.1,0.2,competitor,target,1,3.956
3,137,perceptual,0.03,0.05,competitor,competitor,0,3.643
3,138,numeric,0.03,0.2,competitor,target,1,4.302
3,139,perceptual,0.03,0.05,target,competitor,0,4.094
3,140,numeric,0.03,0.2,competitor,target,1,3.783
3,141,perceptual,0.1,0.05,target,target,1,5.719
3,142,numeric,0.03,0.05,target,decoy,0,6.605
3,143,perceptual,0.03,0.05,target,decoy,0,4.834
3,144,perceptual,0.03,0.2,target,target,1,3.264
3,145,numeric,0.1,0.05,target,competitor,0,4.076
3,146,perceptual,0.1,0.05,target,target,1,3.607
3,147,perceptual,0.1,0.05,competitor,target,1,3.34
3,148,perceptual,0.03,0.2,competitor,competitor,0,3.25
3,149,numeric,0.1,0.05,competitor,decoy,0,7.455
3,150,perceptual,0.03,0.2,target,competitor,0,3.979
3,151,numeric,0.03,0.2,target,target,1,5.599
3,152,perceptual,0.03,0.05,target,decoy,0,3.334
3,153,perceptual,0.03,0.2,competitor,target,1,2.695
3,154,perceptual,0.03,0.2,competitor,target,1,3.699
3,155,numeric,0.03,0.2,competitor,competitor,0,4.59
3,156,perceptual,0.03,0.2,competitor,competitor,0,6.05
3,157,numeric,0.03,0.05,target,decoy,0,6.529
3,158,numeric,0.03,0.05,competitor,competitor,0,5.427
3,159,numeric,0.03,0.2,target,decoy,0,6.284
3,160,numeric,0.03,0.05,competitor,decoy,0,7.364
3,161,perceptual,0.1,0.2,target,target,1,2.538
3,162,numeric,0.1,0.2,competitor,target,1,7.38
3,163,numeric,0.03,0.2,competitor,target,1,6.196
3,164,numeric,0.1,0.05,target,target,1,5.04
3,165,numeric,0.1,0.2,target,competitor,0,3.65
3,166,numeric,0.1,0.2,competitor,decoy,0,4.807
3,167,perceptual,0.1,0.2,target,target,1,3.191
3,168,perceptual,0.1,0.2,competitor,target,1,3.434
3,169,perceptual,0.03,0.2,target,target,1,5.305
3,170,numeric,0.1,0.05,competitor,target,1,5.974
3,171,perceptual,0.03,0.2,competitor,competitor,0,2.935
3,172,numeric,0.1,0.05,competitor,target,1,7.116
3,173,perceptual,0.1,0.2,competitor,competitor,0,2.931
3,174,perceptual,0.1,0.2,target,competitor,0,3.5
3,175,perceptual,0.03,0.05,target,competitor,0,5.495
3,176,perceptual,0.03,0.05,target,target,1,5.781
3,177,numeric,0.1,0.2,competitor,decoy,0,6.012
3,178,perceptual,0.03,0.05,competitor,target,1,2.487
3,179,numeric,0.1,0.05,target,competitor,0,4.722
3,180,numeric,0.03,0.05,competitor,decoy,0,4.828
3,181,perceptual,0.03,0.05,target,decoy,0,4.85
3,182,perceptual,0.1,0.2,target,target,1,2.323
3,183,numeric,0.03,0.2,competitor,decoy,0,5.674
3,184,numeric,0.03,0.05,target,competitor,0,9.52
3,185,perceptual,0.03,0.2,target,target,1,2.904
3,186,perceptual,0.1,0.2,competitor,competitor,0,3.717
3,187,perceptual,0.1,0.05,competitor,target,1,6.593
3,188,perceptual,0.1,0.05,target,target,1,3.744
3,189,perceptual,0.1,0.05,competitor,target,1,5.373
3,190,numeric,0.03,0.05,competitor,target,1,6.798
3,191,perceptual,0.1,0.2,competitor,competitor,0,6.721
3,192,numeric,0.03,0.05,target,competitor,0,4.751
4,2,perceptual,0.03,0.2,target,competitor,0,18.746
4,3,numeric,0.1,0.05,competitor,target,1,5.228
4,4,numeric,0.03,0.2,target,competitor,0,8.032
4,5,perceptual,0.03,0.2,target,target,1,9.009
4,6,numeric,0.1,0.05,target,target,1,14.311
4,7,numeric,0.1,0.2,target,target,1,9.55
4,8,numeric,0.03,0.05,competitor,competitor,0,8.249
4,9,perceptual,0.03,0.2,target,competitor,0,8.678
4,10,numeric,0.1,0.2,competitor,target,1,13.302
4,11,perceptual,0.03,0.05,competitor,competitor,0,11.949
4,12,perceptual,0.1,0.2,target,target,1,2.907
4,13,numeric,0.03,0.2,target,competitor,0,5.503
4,14,numeric,0.1,0.2,competitor,target,1,4.485
4,15,numeric,0.03,0.05,competitor,target,1,5.998
4,16,perceptual,0.03,0.05,target,target,1,7.109
4,17,numeric,0.03,0.05,competitor,target,1,13.32
4,18,numeric,0.03,0.2,competitor,target,1,10.948
4,19,perceptual,0.1,0.05,target,decoy,0,5.652
4,20,perceptual,0.1,0.2,competitor,target,1,7.328
4,21,numeric,0.03,0.05,competitor,competitor,0,10.296
4,22,perceptual,0.1,0.05,target,target,1,11.885
4,23,numeric,0.1,0.2,competitor,target,1,3.669
4,24,perceptual,0.03,0.05,competitor,target,1,8.564
4,25,numeric,0.03,0.2,competitor,competitor,0,13.397
4,26,numeric,0.1,0.05,competitor,target,1,7.804
4,27,numeric,0.1,0.05,competitor,target,1,8.496
4,28,perceptual,0.03,0.05,target,target,1,8.521
4,29,perceptual,0.03,0.05,competitor,competitor,0,6.791
4,30,numeric,0.03,0.05,target,competitor,0,9.55
4,31,numeric,0.1,0.2,target,target,1,8.842
4,32,numeric,0.03,0.2,competitor,target,1,7.213
4,33,perceptual,0.03,0.2,competitor,target,1,4.992
4,34,numeric,0.03,0.2,target,target,1,9.127
4,35,perceptual,0.1,0.2,target,target,1,5.511
4,36,numeric,0.1,0.05,competitor,decoy,0,14.135
4,37,perceptual,0.03,0.05,competitor,target,1,8.294
4,38,numeric,0.1,0.2,target,target,1,11.964
4,39,numeric,0.1,0.05,competitor,target,1,8.776
4,40,numeric,0.03,0.2,competitor,target,1,8.477
4,41,perceptual,0.1,0.05,competitor,competitor,0,6.824
4,42,perceptual,0.03,0.2,competitor,competitor,0,5.685
4,43,perceptual,0.03,0.2,competitor,target,1,4.64
4,44,perceptual,0.03,0.2,target,target,1,5.572
4,45,perceptual,0.03,0.05,target,competitor,0,6.058
4,46,perceptual,0.1,0.2,target,target,1,3.533
4,47,perceptual,0.03,0.2,target,competitor,0,4.017
4,48,numeric,0.03,0.05,competitor,target,1,13.169
4,49,perceptual,0.1,0.2,target,decoy,0,3.645
4,50,numeric,0.03,0.05,target,competitor,0,4.99
4,51,perceptual,0.03,0.05,target,competitor,0,3.336
4,52,perceptual,0.03,0.2,competitor,target,1,3.789
4,53,numeric,0.1,0.05,target,target,1,2.563
4,54,perceptual,0.03,0.05,competitor,target,1,4.012
4,55,numeric,0.1,0.05,target,decoy,0,2.474
4,56,numeric,0.03,0.2,target,competitor,0,3.141
4,57,perceptual,0.1,0.2,competitor,competitor,0,2.418
4,58,numeric,0.1,0.2,competitor,competitor,0,3.912
4,59,numeric,0.1,0.2,competitor,target,1,4.208
4,60,perceptual,0.1,0.05,target,decoy,0,2.762
4,61,perceptual,0.1,0.2,competitor,target,1,2.275
4,62,numeric,0.03,0.2,target,competitor,0,3.798
4,63,perceptual,0.1,0.2,competitor,target,1,2.667
4,64,numeric,0.1,0.05,competitor,target,1,2.904
4,65,perceptual,0.1,0.2,target,decoy,0,3.727
4,66,numeric,0.03,0.2,target,competitor,0,3.485
4,67,perceptual,0.1,0.05,competitor,decoy,0,2.772
4,68,numeric,0.1,0.05,target,target,1,2.954
4,69,numeric,0.03,0.2,target,competitor,0,3.896
4,70,perceptual,0.03,0.05,competitor,competitor,0,3.151
4,71,numeric,0.03,0.05,target,competitor,0,3.117
4,72,numeric,0.03,0.05,target,decoy,0,2.639
4,73,perceptual,0.1,0.2,target,target,1,2.165
4,74,perceptual,0.03,0.05,target,decoy,0,2.175
4,75,perceptual,0.03,0.2,target,target,1,2.205
4,76,numeric,0.03,0.2,target,decoy,0,3.531
4,77,perceptual,0.1,0.05,competitor,competitor,0,3.61
4,78,perceptual,0.1,0.2,competitor,target,1,3.782
4,79,numeric,0.1,0.2,competitor,target,1,3.352
4,80,perceptual,0.1,0.05,target,target,1,1.941
4,81,numeric,0.03,0.2,competitor,target,1,2.667
4,82,numeric,0.1,0.05,target,decoy,0,2.275
4,83,numeric,0.1,0.2,competitor,competitor,0,2.444
4,84,numeric,0.1,0.2,target,competitor,0,2.289
4,85,numeric,0.03,0.05,target,decoy,0,2.511
4,86,numeric,0.1,0.2,target,competitor,0,2.012
4,87,perceptual,0.1,0.2,target,target,1,2.434
4,88,perceptual,0.03,0.2,competitor,target,1,2.051
4,89,numeric,0.1,0.2,target,target,1,3.705
4,90,numeric,0.1,0.05,target,decoy,0,2.019
4,91,numeric,0.03,0.2,competitor,competitor,0,2.733
4,92,numeric,0.03,0.2,competitor,competitor,0,2.712
4,93,perceptual,0.1,0.05,competitor,competitor,0,1.935
4,94,perceptual,0.03,0.05,competitor,decoy,0,1.994
4,95,perceptual,0.03,0.05,target,decoy,0,2.751
4,96,perceptual,0.03,0.2,target,decoy,0,1.844
4,97,perceptual,0.03,0.2,target,competitor,0,3.223
4,98,perceptual,0.1,0.2,competitor,target,1,1.95
4,99,perceptual,0.03,0.2,competitor,competitor,0,2.4
4,100,numeric,0.03,0.2,target,target,1,7.938
4,101,perceptual,0.1,0.2,competitor,target,1,3.887
4,102,perceptual,0.1,0.2,competitor,target,1,3.995
4,103,perceptual,0.03,0.05,target,competitor,0,1.997
4,104,perceptual,0.1,0.05,competitor,target,1,2.259
4,105,numeric,0.1,0.2,target,target,1,9.395
4,106,numeric,0.03,0.05,competitor,decoy,0,3.628
4,107,perceptual,0.03,0.05,competitor,decoy,0,2.544
4,108,numeric,0.1,0.05,target,target,1,2.699
4,109,perceptual,0.03,0.2,competitor,competitor,0,2.387
4,110,numeric,0.1,0.2,competitor,target,1,4.809
4,111,perceptual,0.03,0.05,competitor,competitor,0,2.303
4,112,perceptual,0.1,0.05,competitor,target,1,2.588
4,113,numeric,0.1,0.2,target,target,1,2.965
4,114,perceptual,0.03,0.2,target,competitor,0,2.302
4,115,numeric,0.1,0.05,target,decoy,0,1.824
4,116,numeric,0.03,0.2,target,target,1,2.609
4,117,numeric,0.03,0.05,target,target,1,3.389
4,118,numeric,0.1,0.05,competitor,decoy,0,1.894
4,119,numeric,0.03,0.2,competitor,competitor,0,2.025
4,120,perceptual,0.1,0.05,target,competitor,0,2.259
4,121,numeric,0.1,0.2,target,competitor,0,2.402
4,122,perceptual,0.1,0.2,target,decoy,0,1.935
4,123,numeric,0.03,0.05,competitor,competitor,0,8.388
4,124,perceptual,0.03,0.05,competitor,target,1,3.361
4,125,perceptual,0.1,0.05,competitor,target,1,2.332
4,126,perceptual,0.1,0.2,competitor,competitor,0,2.229
4,127,perceptual,0.03,0.2,competitor,competitor,0,2.408
4,128,perceptual,0.1,0.05,competitor,target,1,1.73
4,129,perceptual,0.1,0.05,target,competitor,0,1.769
4,130,perceptual,0.1,0.05,target,decoy,0,2.474
4,131,numeric,0.1,0.05,target,target,1,8.431
4,132,perceptual,0.1,0.05,target,competitor,0,2.315
4,133,numeric,0.1,0.05,competitor,target,1,2.445
4,134,numeric,0.1,0.05,target,target,1,4.965
4,135,perceptual,0.03,0.05,target,decoy,0,2.68
4,136,perceptual,0.1,0.2,competitor,target,1,2.072
4,137,perceptual,0.1,0.05,target,target,1,2.236
4,138,numeric,0.1,0.2,competitor,competitor,0,2.805
4,139,numeric,0.03,0.05,competitor,competitor,0,2.142
4,140,perceptual,0.1,0.2,target,competitor,0,1.77
4,141,perceptual,0.03,0.2,target,competitor,0,1.807
4,142,perceptual,0.03,0.2,target,decoy,0,1.854
4,143,numeric,0.1,0.05,target,target,1,2.13
4,144,numeric,0.03,0.2,target,competitor,0,1.829
4,145,perceptual,0.1,0.05,competitor,decoy,0,2.162
4,146,perceptual,0.03,0.2,competitor,decoy,0,1.797
4,147,perceptual,0.1,0.05,target,competitor,0,1.989
4,148,numeric,0.1,0.05,competitor,target,1,5.196
4,149,perceptual,0.03,0.05,target,decoy,0,2.861
4,150,perceptual,0.1,0.05,competitor,target,1,2.944
4,151,perceptual,0.03,0.2,competitor,competitor,0,2.325
4,152,numeric,0.1,0.05,target,target,1,3.681
4,153,numeric,0.03,0.05,competitor,target,1,2.595
4,154,numeric,0.03,0.05,target,target,1,7.197
4,155,numeric,0.03,0.2,competitor,target,1,5.525
4,156,numeric,0.1,0.2,competitor,target,1,2.941
4,157,perceptual,0.03,0.2,competitor,decoy,0,2.163
4,158,perceptual,0.03,0.05,target,target,1,1.786
4,159,numeric,0.03,0.2,competitor,target,1,3.231
4,160,perceptual,0.03,0.05,competitor,target,1,2.109
4,161,numeric,0.03,0.05,competitor,decoy,0,1.878
4,162,numeric,0.03,0.05,target,competitor,0,2.288
4,163,numeric,0.03,0.2,target,competitor,0,2.158
4,164,numeric,0.03,0.2,competitor,competitor,0,1.875
4,165,perceptual,0.1,0.05,competitor,competitor,0,2.072
4,166,perceptual,0.1,0.05,target,decoy,0,2.412
4,167,numeric,0.03,0.05,target,competitor,0,1.794
4,168,perceptual,0.1,0.2,competitor,competitor,0,1.62
4,169,numeric,0.03,0.05,target,target,1,1.713
4,170,perceptual,0.1,0.05,competitor,competitor,0,1.953
4,171,numeric,0.1,0.2,target,target,1,1.809
4,172,perceptual,0.03,0.05,target,target,1,2.044
4,173,perceptual,0.1,0.2,competitor,competitor,0,2.229
4,174,numeric,0.03,0.05,target,decoy,0,1.611
4,175,numeric,0.1,0.2,target,decoy,0,1.807
4,176,numeric,0.03,0.05,competitor,competitor,0,1.772
4,177,perceptual,0.1,0.2,target,competitor,0,3.537
4,178,perceptual,0.1,0.2,target,competitor,0,1.957
4,179,perceptual,0.03,0.2,target,target,1,2.362
4,180,numeric,0.1,0.05,competitor,competitor,0,2.747
4,181,numeric,0.1,0.05,competitor,target,1,2.676
4,182,perceptual,0.1,0.05,target,target,1,1.774
4,183,perceptual,0.03,0.05,target,competitor,0,1.846
4,184,numeric,0.1,0.2,competitor,decoy,0,2.312
4,185,perceptual,0.1,0.2,target,competitor,0,1.764
4,186,numeric,0.03,0.05,target,competitor,0,2.667
4,187,numeric,0.03,0.05,competitor,target,1,2.488
4,188,perceptual,0.03,0.2,competitor,target,1,1.834
4,189,perceptual,0.03,0.05,competitor,decoy,0,2.144
4,190,numeric,0.1,0.2,target,target,1,3.376
4,191,numeric,0.03,0.2,competitor,target,1,4.909
4,192,numeric,0.1,0.2,competitor,target,1,7.934
5,1,perceptual,0.1,0.05,competitor,competitor,0,8.192
5,2,numeric,0.03,0.2,target,target,1,7.961
5,3,perceptual,0.1,0.05,target,decoy,0,4.555
5,4,perceptual,0.03,0.05,target,target,1,6.876
5,5,perceptual,0.1,0.05,target,target,1,4.967
5,6,perceptual,0.03,0.05,competitor,decoy,0,4.981
5,7,numeric,0.1,0.2,competitor,competitor,0,9.484
5,8,perceptual,0.03,0.05,competitor,target,1,6.649
5,9,perceptual,0.1,0.2,target,target,1,3.687
5,10,perceptual,0.1,0.2,target,target,1,5.258
5,11,perceptual,0.1,0.05,target,decoy,0,5.081
5,12,perceptual,0.1,0.05,competitor,decoy,0,4.074
5,13,perceptual,0.1,0.2,target,competitor,0,4.509
5,14,numeric,0.03,0.05,target,target,1,8.826
5,15,perceptual,0.03,0.05,target,decoy,0,6.653
5,16,numeric,0.1,0.2,target,target,1,6.523
5,17,perceptual,0.1,0.05,target,decoy,0,4.135
5,18,numeric,0.03,0.05,competitor,competitor,0,10.007
5,19,perceptual,0.03,0.05,competitor,target,1,7.846
5,20,perceptual,0.1,0.05,target,target,1,7.36
5,21,perceptual,0.1,0.05,target,competitor,0,5.031
5,22,numeric,0.1,0.2,competitor,target,1,8.544
5,23,perceptual,0.1,0.2,target,target,1,4.52
5,24,perceptual,0.1,0.2,target,competitor,0,5.189
5,25,numeric,0.03,0.05,competitor,competitor,0,17.614
5,26,perceptual,0.03,0.05,competitor,target,1,7.33
5,27,perceptual,0.03,0.05,target,target,1,3.945
5,28,numeric,0.1,0.2,competitor,target,1,10.477
5,29,perceptual,0.1,0.05,target,target,1,4.862
5,30,numeric,0.1,0.2,competitor,target,1,7.451
5,31,numeric,0.03,0.05,competitor,target,1,7.762
5,32,numeric,0.03,0.2,target,competitor,0,10.778
5,33,numeric,0.1,0.05,competitor,target,1,7.46
5,34,perceptual,0.1,0.2,competitor,competitor,0,6.502
5,35,numeric,0.03,0.05,target,target,1,7.526
5,36,numeric,0.1,0.05,target,target,1,13.18
5,37,perceptual,0.03,0.2,competitor,competitor,0,8.888
5,38,perceptual,0.1,0.2,competitor,competitor,0,5.996
5,39,numeric,0.03,0.2,competitor,target,1,12.153
5,40,perceptual,0.03,0.05,target,decoy,0,3.689
5,41,perceptual,0.1,0.05,competitor,decoy,0,6.961
5,42,numeric,0.1,0.2,target,target,1,6.062
5,43,perceptual,0.03,0.05,competitor,competitor,0,4.309
5,44,numeric,0.1,0.05,competitor,target,1,8.154
5,45,numeric,0.1,0.05,target,target,1,9.817
5,46,numeric,0.03,0.05,target,competitor,0,14.11
5,47,perceptual,0.03,0.05,competitor,target,1,4.362
5,48,numeric,0.03,0.2,competitor,competitor,0,9.931
5,49,perceptual,0.1,0.2,target,competitor,0,6.757
5,50,perceptual,0.03,0.2,competitor,target,1,4.935
5,51,numeric,0.1,0.05,competitor,target,1,7.912
5,52,numeric,0.03,0.2,competitor,competitor,0,14.655
5,53,numeric,0.03,0.2,target,target,1,6.374
5,54,perceptual,0.03,0.2,competitor,competitor,0,4.312
5,55,numeric,0.03,0.2,competitor,target,1,11.392
5,56,numeric,0.03,0.05,competitor,competitor,0,7.001
5,57,numeric,0.1,0.05,target,target,1,17.241
5,58,perceptual,0.1,0.05,target,competitor,0,5.96
5,59,perceptual,0.1,0.2,competitor,target,1,3.586
5,60,numeric,0.1,0.2,target,target,1,17.518
5,61,perceptual,0.03,0.05,competitor,target,1,5.04
5,62,numeric,0.03,0.2,target,target,1,12.144
5,63,perceptual,0.03,0.05,target,competitor,0,6.103
5,64,perceptual,0.03,0.2,competitor,target,1,4.373
5,65,perceptual,0.03,0.05,target,decoy,0,4.587
5,66,perceptual,0.1,0.05,target,decoy,0,3.751
5,67,numeric,0.03,0.05,competitor,target,1,4.639
5,68,perceptual,0.1,0.2,target,competitor,0,3.725
5,69,numeric,0.03,0.05,competitor,target,1,13.446
5,70,numeric,0.1,0.2,target,target,1,7.416
5,71,numeric,0.1,0.05,competitor,competitor,0,11.24
5,72,perceptual,0.03,0.2,target,competitor,0,4.512
5,73,numeric,0.03,0.2,competitor,target,1,6.856
5,74,perceptual,0.1,0.2,competitor,target,1,7.22
5,75,perceptual,0.1,0.2,target,target,1,4.634
5,76,perceptual,0.03,0.2,target,target,1,3.286
5,77,perceptual,0.1,0.2,competitor,competitor,0,6.495
5,78,numeric,0.03,0.2,target,competitor,0,5.353
5,79,perceptual,0.03,0.2,target,target,1,16.503
5,80,numeric,0.03,0.05,target,target,1,10.699
5,81,perceptual,0.1,0.2,target,competitor,0,4.114
5,82,perceptual,0.1,0.2,target,competitor,0,6.592
5,83,numeric,0.1,0.05,competitor,competitor,0,9.291
5,84,perceptual,0.03,0.2,target,decoy,0,6.538
5,85,perceptual,0.1,0.05,competitor,decoy,0,6.015
5,86,numeric,0.03,0.2,competitor,target,1,10.175
5,87,numeric,0.03,0.2,target,target,1,8.181
5,88,perceptual,0.1,0.2,competitor,target,1,5.461
5,89,numeric,0.1,0.05,target,target,1,6.606
5,90,numeric,0.1,0.2,competitor,target,1,11.908
5,91,numeric,0.03,0.05,competitor,competitor,0,8.703
5,92,perceptual,0.03,0.05,target,competitor,0,4.542
5,93,numeric,0.03,0.2,target,target,1,6.27
5,94,numeric,0.1,0.2,target,target,1,14.2
5,95,numeric,0.1,0.05,competitor,target,1,6.757
5,96,numeric,0.1,0.05,target,target,1,6.357
5,97,perceptual,0.03,0.05,competitor,competitor,0,6.727
5,98,numeric,0.03,0.05,target,target,1,7.225
5,99,numeric,0.03,0.2,competitor,competitor,0,5.664
5,100,numeric,0.1,0.05,target,target,1,14.498
5,101,numeric,0.03,0.05,target,target,1,7.369
5,102,perceptual,0.03,0.2,target,target,1,4.019
5,103,perceptual,0.03,0.2,competitor,competitor,0,5.04
5,104,numeric,0.1,0.05,target,target,1,6.426
5,105,perceptual,0.03,0.2,target,competitor,0,3.889
5,106,numeric,0.03,0.05,competitor,competitor,0,9.921
5,107,numeric,0.1,0.2,target,target,1,10.93
5,108,perceptual,0.1,0.05,competitor,decoy,0,5.238
5,109,perceptual,0.03,0.05,target,decoy,0,5.791
5,110,perceptual,0.1,0.2,competitor,decoy,0,5.524
5,111,numeric,0.03,0.2,target,target,1,7.869
5,112,numeric,0.03,0.2,competitor,target,1,6.524
5,113,perceptual,0.1,0.05,competitor,target,1,9.53
5,114,perceptual,0.1,0.2,competitor,decoy,0,6.169
5,115,numeric,0.03,0.05,target,target,1,6.44
5,116,perceptual,0.03,0.05,competitor,target,1,6.574
5,117,numeric,0.03,0.2,competitor,competitor,0,11.061
5,118,perceptual,0.03,0.2,target,competitor,0,3.488
5,119,numeric,0.1,0.2,target,target,1,10.502
5,120,numeric,0.1,0.05,competitor,target,1,8.048
5,121,numeric,0.1,0.2,competitor,competitor,0,14.122
5,122,numeric,0.1,0.05,competitor,target,1,6.53
5,123,numeric,0.1,0.2,competitor,competitor,0,10.139
5,124,perceptual,0.1,0.2,target,competitor,0,4.534
5,125,perceptual,0.1,0.2,competitor,competitor,0,3.968
5,126,numeric,0.03,0.2,target,competitor,0,6.16
5,127,numeric,0.1,0.2,competitor,target,1,7.9
5,128,numeric,0.03,0.05,competitor,target,1,7.175
5,129,numeric,0.03,0.2,target,target,1,5.594
5,130,perceptual,0.03,0.2,target,decoy,0,4.36
5,131,numeric,0.03,0.05,competitor,competitor,0,6.33
5,132,numeric,0.03,0.2,target,target,1,10.689
5,133,numeric,0.03,0.05,target,target,1,9.749
5,134,numeric,0.1,0.05,competitor,competitor,0,10.317
5,135,perceptual,0.03,0.05,competitor,target,1,3.562
5,136,perceptual,0.03,0.05,competitor,competitor,0,4.433
5,137,numeric,0.1,0.05,target,target,1,10.26
5,138,numeric,0.1,0.05,target,target,1,10.307
5,139,numeric,0.03,0.2,competitor,competitor,0,6.599
5,140,perceptual,0.03,0.2,target,competitor,0,3.315
5,141,perceptual,0.1,0.05,competitor,decoy,0,4.708
5,142,numeric,0.1,0.2,target,target,1,9.445
5,143,perceptual,0.03,0.2,competitor,target,1,4.39
5,144,numeric,0.1,0.2,competitor,competitor,0,8.509
5,145,perceptual,0.1,0.05,competitor,competitor,0,6.331
5,146,perceptual,0.1,0.05,competitor,decoy,0,5.971
5,147,perceptual,0.03,0.05,target,competitor,0,4.734
5,148,numeric,0.1,0.2,target,competitor,0,9.053
5,149,perceptual,0.1,0.2,target,decoy,0,4.421
5,150,perceptual,0.1,0.05,competitor,target,1,4.548
5,151,numeric,0.03,0.05,competitor,target,1,7.36
5,152,perceptual,0.1,0.05,competitor,decoy,0,5.256
5,153,perceptual,0.03,0.05,target,target,1,5.353
5,154,numeric,0.03,0.05,target,target,1,8.619
5,155,perceptual,0.03,0.2,competitor,target,1,4.078
5,156,numeric,0.1,0.2,target,target,1,13.341
5,157,numeric,0.1,0.2,target,target,1,7.465
5,158,numeric,0.03,0.05,target,target,1,8.549
5,159,numeric,0.1,0.05,target,target,1,9.288
5,160,perceptual,0.1,0.2,competitor,target,1,5.943
5,161,perceptual,0.03,0.2,competitor,competitor,0,4.357
5,162,perceptual,0.03,0.2,competitor,competitor,0,2.805
5,163,perceptual,0.03,0.2,target,competitor,0,4.751
5,164,perceptual,0.1,0.05,target,target,1,3.953
5,165,perceptual,0.03,0.2,competitor,competitor,0,6.019
5,166,numeric,0.03,0.2,target,competitor,0,15.167
5,167,numeric,0.1,0.2,competitor,target,1,9.355
5,168,perceptual,0.03,0.05,target,decoy,0,4.347
5,169,perceptual,0.03,0.2,competitor,competitor,0,3.95
5,170,perceptual,0.03,0.05,target,competitor,0,3.174
5,171,numeric,0.1,0.05,competitor,competitor,0,6.48
5,172,numeric,0.1,0.05,target,target,1,6.985
5,173,numeric,0.1,0.2,target,target,1,6.931
5,174,perceptual,0.03,0.2,target,target,1,3.942
5,175,perceptual,0.03,0.05,competitor,target,1,3.037
5,176,perceptual,0.03,0.2,target,target,1,3.69
5,177,perceptual,0.1,0.05,competitor,target,1,3.527
5,178,numeric,0.1,0.05,target,target,1,9.845
5,179,numeric,0.03,0.2,competitor,competitor,0,8.875
5,180,perceptual,0.1,0.05,target,decoy,0,4.097
5,181,numeric,0.03,0.2,competitor,competitor,0,7.305
5,182,numeric,0.1,0.05,competitor,target,1,6.69
5,183,numeric,0.03,0.05,target,competitor,0,6.865
5,184,perceptual,0.1,0.2,competitor,target,1,5.147
5,185,perceptual,0.03,0.2,competitor,competitor,0,5.446
5,186,perceptual,0.1,0.05,target,target,1,4.407
5,187,numeric,0.1,0.2,competitor,target,1,8.307
5,188,perceptual,0.1,0.2,competitor,competitor,0,3.371
5,189,numeric,0.03,0.05,target,target,1,5.757
5,190,numeric,0.1,0.2,competitor,competitor,0,8.531
5,191,numeric,0.03,0.05,competitor,target,1,11.791
5,192,numeric,0.1,0.05,competitor,target,1,11.284
6,1,numeric,0.1,0.05,target,decoy,0,17.251
6,2,numeric,0.1,0.2,target,target,1,10.023
6,3,perceptual,0.1,0.05,target,target,1,5.688
6,4,perceptual,0.1,0.05,target,target,1,8.87
6,5,numeric,0.1,0.2,target,competitor,0,8.052
6,6,numeric,0.03,0.2,competitor,target,1,12.814
6,7,numeric,0.1,0.2,competitor,target,1,6.044
6,8,numeric,0.03,0.2,competitor,decoy,0,9.863
6,9,perceptual,0.03,0.2,target,competitor,0,7.2
6,10,perceptual,0.1,0.05,competitor,target,1,5.344
6,11,numeric,0.03,0.05,competitor,target,1,12.064
6,12,perceptual,0.1,0.2,competitor,target,1,6.336
6,13,perceptual,0.1,0.2,competitor,competitor,0,4.116
6,14,numeric,0.03,0.05,target,decoy,0,9.206
6,15,numeric,0.1,0.05,competitor,target,1,8.693
6,16,numeric,0.03,0.05,target,target,1,7.244
6,17,numeric,0.03,0.05,competitor,target,1,3.152
6,18,numeric,0.03,0.05,target,competitor,0,1.558
6,19,perceptual,0.03,0.2,target,target,1,1.604
6,20,numeric,0.03,0.2,target,competitor,0,4.27
6,21,perceptual,0.03,0.05,competitor,decoy,0,3.862
6,22,perceptual,0.1,0.2,target,competitor,0,4.092
6,23,perceptual,0.1,0.2,target,target,1,4.556
6,24,numeric,0.1,0.05,target,decoy,0,7.326
6,25,perceptual,0.1,0.05,target,target,1,3.958
6,26,numeric,0.03,0.05,competitor,competitor,0,4.537
6,27,numeric,0.03,0.2,target,target,1,3.433
6,28,numeric,0.1,0.2,competitor,target,1,4.168
6,29,numeric,0.03,0.05,target,competitor,0,5.453
6,30,perceptual,0.03,0.05,target,target,1,4.462
6,31,perceptual,0.1,0.2,competitor,target,1,3.661
6,32,numeric,0.03,0.2,competitor,target,1,2.457
6,33,perceptual,0.03,0.2,competitor,decoy,0,2.313
6,34,perceptual,0.1,0.2,target,target,1,3.334
6,35,perceptual,0.03,0.2,target,competitor,0,3.409
6,36,perceptual,0.1,0.2,competitor,competitor,0,2.276
6,37,perceptual,0.03,0.05,target,decoy,0,3.401
6,38,numeric,0.1,0.05,competitor,competitor,0,3.035
6,39,perceptual,0.1,0.2,competitor,competitor,0,3.687
6,40,numeric,0.1,0.2,competitor,target,1,4.397
6,41,numeric,0.03,0.2,competitor,target,1,3.754
6,42,numeric,0.1,0.05,competitor,decoy,0,2.312
6,43,perceptual,0.03,0.2,target,competitor,0,2.393
6,44,perceptual,0.03,0.05,competitor,target,1,2.188
6,45,numeric,0.03,0.05,target,target,1,3.721
6,46,numeric,0.1,0.2,competitor,target,1,2.253
6,47,perceptual,0.1,0.2,competitor,target,1,2.322
6,48,numeric,0.03,0.05,competitor,target,1,2.308
6,49,numeric,0.03,0.05,competitor,decoy,0,3.176
6,50,perceptual,0.1,0.05,competitor,competitor,0,4.389
6,51,numeric,0.1,0.2,competitor,competitor,0,2.902
6,52,perceptual,0.1,0.2,target,target,1,2.597
6,53,numeric,0.03,0.2,target,competitor,0,3.107
6,54,numeric,0.1,0.2,target,competitor,0,2.589
6,55,numeric,0.03,0.2,competitor,decoy,0,2.291
6,56,numeric,0.1,0.05,target,decoy,0,3.074
6,57,perceptual,0.1,0.05,competitor,target,1,2.313
6,58,perceptual,0.03,0.05,competitor,target,1,3.036
6,59,perceptual,0.03,0.05,target,target,1,3.241
6,60,perceptual,0.03,0.05,target,decoy,0,3.036
6,61,numeric,0.03,0.2,competitor,competitor,0,2.104
6,62,numeric,0.1,0.05,competitor,target,1,4.929
6,63,numeric,0.03,0.05,target,target,1,2.077
6,64,numeric,0.1,0.05,competitor,target,1,3.398
6,65,perceptual,0.03,0.05,target,decoy,0,2.173
6,66,perceptual,0.03,0.2,target,competitor,0,2.607
6,67,perceptual,0.1,0.05,target,decoy,0,2.042
6,68,perceptual,0.03,0.05,competitor,competitor,0,2.195
6,69,perceptual,0.1,0.05,competitor,target,1,1.972
6,70,numeric,0.03,0.2,target,competitor,0,2.04
6,71,perceptual,0.1,0.2,competitor,competitor,0,2.98
6,72,perceptual,0.1,0.2,target,competitor,0,1.969
6,73,numeric,0.03,0.2,target,target,1,2.809
6,74,perceptual,0.1,0.05,target,target,1,2.163
6,75,numeric,0.1,0.2,competitor,competitor,0,2.507
6,76,numeric,0.03,0.2,target,decoy,0,2.016
6,77,numeric,0.03,0.2,competitor,target,1,1.977
6,78,perceptual,0.03,0.05,target,target,1,2.401
6,79,perceptual,0.03,0.2,target,target,1,2.114
6,80,numeric,0.1,0.05,target,decoy,0,1.906
6,81,perceptual,0.1,0.2,target,competitor,0,2.233
6,82,numeric,0.1,0.2,competitor,competitor,0,2.188
6,83,numeric,0.1,0.05,target,competitor,0,2.881
6,84,numeric,0.03,0.2,competitor,competitor,0,2.729
6,85,numeric,0.1,0.2,competitor,competitor,0,3.425
6,86,numeric,0.03,0.2,competitor,target,1,2.902
6,87,perceptual,0.1,0.05,target,target,1,6.455
6,88,perceptual,0.03,0.2,target,decoy,0,7.061
6,89,perceptual,0.1,0.05,competitor,target,1,3.902
6,90,numeric,0.03,0.05,competitor,competitor,0,2.609
6,91,numeric,0.03,0.2,target,target,1,3.863
6,92,numeric,0.03,0.2,target,target,1,3.568
6,93,perceptual,0.03,0.05,target,target,1,2.599
6,94,numeric,0.1,0.05,target,competitor,0,3.415
6,95,perceptual,0.03,0.2,competitor,decoy,0,2.018
6,96,numeric,0.1,0.05,target,decoy,0,2.195
6,97,perceptual,0.1,0.05,target,competitor,0,2.658
6,98,numeric,0.03,0.05,target,decoy,0,2.879
6,99,numeric,0.03,0.2,target,target,1,2.557
6,100,perceptual,0.1,0.2,target,competitor,0,2.685
6,101,perceptual,0.03,0.2,target,target,1,2.204
6,102,perceptual,0.1,0.2,target,target,1,5.649
6,103,perceptual,0.03,0.2,target,target,1,3.293
6,104,perceptual,0.03,0.05,competitor,target,1,7.047
6,105,numeric,0.1,0.2,target,competitor,0,4.251
6,106,perceptual,0.1,0.05,competitor,target,1,3.453
6,107,perceptual,0.03,0.2,competitor,competitor,0,3.936
6,108,numeric,0.03,0.05,competitor,target,1,2.216
6,109,numeric,0.1,0.2,competitor,target,1,2.077
6,110,perceptual,0.1,0.05,target,target,1,2.341
6,111,numeric,0.1,0.2,competitor,target,1,2.495
6,112,numeric,0.1,0.05,competitor,decoy,0,2.296
6,113,perceptual,0.03,0.05,competitor,competitor,0,2.02
6,114,perceptual,0.1,0.2,competitor,competitor,0,3.668
6,115,numeric,0.1,0.05,target,target,1,2.274
6,116,numeric,0.03,0.05,competitor,target,1,2.469
6,117,perceptual,0.1,0.05,target,decoy,0,2.151
6,118,perceptual,0.03,0.2,competitor,target,1,3.5
6,119,perceptual,0.1,0.05,competitor,target,1,7.563
6,120,perceptual,0.1,0.2,competitor,target,1,5.402
6,121,numeric,0.03,0.2,target,competitor,0,3.412
6,122,numeric,0.03,0.05,competitor,target,1,6.312
6,123,numeric,0.1,0.05,target,decoy,0,2.815
6,124,numeric,0.03,0.05,competitor,decoy,0,2.541
6,125,numeric,0.03,0.2,target,target,1,3.913
6,126,perceptual,0.03,0.05,competitor,target,1,2.98
6,127,numeric,0.03,0.05,target,target,1,2.832
6,128,numeric,0.1,0.2,target,target,1,4.061
6,129,numeric,0.03,0.05,target,target,1,2.617
6,130,numeric,0.1,0.05,target,decoy,0,3.31
6,131,perceptual,0.03,0.2,competitor,target,1,2.791
6,132,perceptual,0.03,0.05,target,decoy,0,3.971
6,133,perceptual,0.1,0.05,competitor,target,1,4.429
6,134,numeric,0.1,0.2,target,target,1,3.051
6,135,perceptual,0.1,0.05,target,decoy,0,2.996
6,136,numeric,0.03,0.2,competitor,target,1,2.297
6,137,perceptual,0.03,0.2,competitor,target,1,2.075
6,138,perceptual,0.1,0.05,competitor,target,1,2.776
6,139,perceptual,0.1,0.05,competitor,target,1,2.141
6,140,numeric,0.1,0.2,target,target,1,2.819
6,141,perceptual,0.1,0.05,competitor,target,1,3.451
6,142,numeric,0.1,0.2,target,target,1,3.639
6,143,perceptual,0.1,0.05,target,target,1,3.906
6,144,numeric,0.1,0.05,target,target,1,3.271
6,145,perceptual,0.03,0.05,competitor,target,1,3.78
6,146,numeric,0.1,0.2,competitor,target,1,2.391
6,147,numeric,0.03,0.05,competitor,target,1,3.394
6,148,perceptual,0.1,0.2,competitor,target,1,6.015
6,149,numeric,0.1,0.2,competitor,target,1,6.821
6,150,perceptual,0.03,0.2,competitor,competitor,0,5.44
6,151,numeric,0.1,0.05,competitor,target,1,5.687
6,152,numeric,0.03,0.2,target,target,1,4.307
6,153,numeric,0.03,0.2,competitor,target,1,4.104
6,154,perceptual,0.03,0.2,competitor,competitor,0,8.394
6,155,numeric,0.1,0.2,target,target,1,5.194
6,156,numeric,0.1,0.05,competitor,competitor,0,3.532
6,157,numeric,0.03,0.05,competitor,target,1,5.11
6,158,numeric,0.03,0.2,competitor,target,1,4.515
6,159,perceptual,0.1,0.2,target,target,1,4.158
6,160,perceptual,0.03,0.2,competitor,target,1,5.195
6,161,perceptual,0.1,0.05,target,target,1,2.692
6,162,numeric,0.1,0.2,target,target,1,3.764
6,163,perceptual,0.03,0.05,target,target,1,3.164
6,164,perceptual,0.03,0.2,competitor,competitor,0,3.381
6,165,numeric,0.03,0.05,target,competitor,0,3.639
6,166,perceptual,0.03,0.05,competitor,target,1,5.47
6,167,numeric,0.1,0.2,target,target,1,4.338
6,168,perceptual,0.03,0.2,competitor,target,1,8.166
6,169,numeric,0.1,0.05,competitor,target,1,5.472
6,170,perceptual,0.03,0.05,target,target,1,7.451
6,171,perceptual,0.1,0.2,target,decoy,0,5.004
6,172,perceptual,0.03,0.2,target,target,1,5.368
6,173,perceptual,0.03,0.05,target,target,1,4.69
6,174,numeric,0.1,0.2,target,competitor,0,6.825
6,175,perceptual,0.03,0.2,competitor,target,1,4.744
6,176,perceptual,0.1,0.2,target,competitor,0,4.73
6,177,perceptual,0.1,0.2,competitor,target,1,5.266
6,178,numeric,0.1,0.05,competitor,target,1,4.712
6,179,perceptual,0.03,0.05,competitor,competitor,0,5.012
6,180,perceptual,0.03,0.2,target,target,1,4.197
6,181,numeric,0.1,0.05,target,target,1,3.141
6,182,perceptual,0.1,0.2,target,target,1,3.333
6,183,perceptual,0.03,0.2,target,target,1,4.101
6,184,numeric,0.03,0.05,target,decoy,0,6.241
6,185,numeric,0.1,0.05,competitor,competitor,0,2.643
6,186,perceptual,0.03,0.05,competitor,target,1,2.762
6,187,perceptual,0.03,0.05,target,decoy,0,5.65
6,188,perceptual,0.1,0.05,competitor,target,1,4.257
6,189,numeric,0.1,0.05,competitor,target,1,4.78
6,190,numeric,0.03,0.05,target,decoy,0,6.374
6,191,perceptual,0.03,0.05,competitor,competitor,0,6.383
6,192,perceptual,0.1,0.2,competitor,target,1,5.096
7,1,numeric,0.1,0.05,target,competitor,0,8.545
7,2,perceptual,0.1,0.05,competitor,target,1,6.388
7,3,perceptual,0.03,0.05,target,target,1,9.68
7,4,perceptual,0.03,0.2,competitor,competitor,0,7.358
7,5,numeric,0.03,0.05,target,target,1,8.042
7,6,numeric,0.1,0.2,target,target,1,5.797
7,7,numeric,0.03,0.2,competitor,competitor,0,9.622
7,8,perceptual,0.1,0.2,competitor,decoy,0,5.94
7,9,perceptual,0.1,0.2,competitor,target,1,8.737
7,10,numeric,0.1,0.05,target,target,1,9.966
7,11,perceptual,0.03,0.05,competitor,competitor,0,8.727
7,12,numeric,0.1,0.2,target,target,1,10.429
7,13,numeric,0.03,0.2,target,competitor,0,7.993
7,14,perceptual,0.1,0.05,target,competitor,0,5.134
7,15,numeric,0.03,0.2,competitor,competitor,0,8.351
7,16,numeric,0.03,0.2,competitor,competitor,0,13.189
7,17,numeric,0.1,0.05,competitor,target,1,7.711
7,18,numeric,0.03,0.2,competitor,decoy,0,12.012
7,19,perceptual,0.03,0.05,competitor,target,1,6.189
7,20,perceptual,0.1,0.2,target,competitor,0,4.81
7,21,perceptual,0.03,0.05,target,target,1,7.507
7,22,perceptual,0.03,0.05,competitor,competitor,0,7.578
7,23,numeric,0.1,0.05,target,target,1,10.039
7,24,numeric,0.1,0.05,competitor,competitor,0,8.644
7,25,perceptual,0.1,0.05,competitor,competitor,0,6.646
7,26,perceptual,0.03,0.05,target,target,1,8.539
7,27,numeric,0.1,0.2,competitor,target,1,6.466
7,28,perceptual,0.03,0.05,target,target,1,9.036
7,29,perceptual,0.1,0.2,competitor,decoy,0,5.455
7,30,numeric,0.1,0.2,target,competitor,0,12.371
7,31,numeric,0.1,0.05,target,decoy,0,8.279
7,32,perceptual,0.03,0.2,target,decoy,0,4.427
7,33,numeric,0.1,0.2,competitor,competitor,0,5.889
7,34,numeric,0.03,0.05,competitor,competitor,0,10.661
7,35,perceptual,0.1,0.2,target,target,1,4.204
7,36,perceptual,0.1,0.2,target,decoy,0,6.561
7,37,numeric,0.1,0.2,competitor,target,1,7.021
7,38,perceptual,0.03,0.2,competitor,competitor,0,7.127
7,39,numeric,0.03,0.05,target,target,1,7.195
7,40,numeric,0.1,0.05,target,target,1,8.032
7,41,numeric,0.03,0.2,target,target,1,8.435
7,42,numeric,0.03,0.05,target,target,1,15.076
7,43,numeric,0.03,0.2,target,target,1,8.363
7,44,numeric,0.03,0.2,target,target,1,7.094
7,45,numeric,0.03,0.05,target,competitor,0,5.043
7,46,numeric,0.1,0.2,competitor,target,1,11.115
7,47,perceptual,0.1,0.05,competitor,target,1,5.818
7,48,perceptual,0.1,0.2,target,target,1,6.738
7,49,perceptual,0.03,0.05,target,decoy,0,5.238
7,50,perceptual,0.1,0.05,target,decoy,0,5.778
7,51,perceptual,0.1,0.05,competitor,decoy,0,4.845
7,52,numeric,0.1,0.2,target,competitor,0,6.26
7,53,numeric,0.03,0.2,target,target,1,9.966
7,54,numeric,0.03,0.05,competitor,target,1,8.093
7,55,perceptual,0.1,0.05,target,decoy,0,4.855
7,56,perceptual,0.03,0.2,competitor,decoy,0,5.309
7,57,numeric,0.03,0.05,competitor,target,1,11.291
7,58,numeric,0.1,0.05,target,target,1,8.196
7,59,numeric,0.03,0.2,target,competitor,0,6.449
7,60,numeric,0.03,0.2,target,target,1,14.003
7,61,perceptual,0.03,0.05,target,target,1,5.904
7,62,perceptual,0.03,0.2,competitor,target,1,4.324
7,63,perceptual,0.03,0.05,competitor,target,1,3.584
7,64,numeric,0.1,0.2,competitor,target,1,12.457
7,65,perceptual,0.03,0.05,competitor,competitor,0,6.22
7,66,perceptual,0.1,0.2,competitor,competitor,0,6.841
7,67,perceptual,0.1,0.05,target,decoy,0,5.212
7,68,numeric,0.03,0.2,competitor,competitor,0,5.849
7,69,numeric,0.03,0.2,target,target,1,4.256
7,70,numeric,0.03,0.05,competitor,target,1,12.032
7,71,perceptual,0.03,0.2,target,target,1,6.626
7,72,perceptual,0.1,0.2,target,target,1,9.792
7,73,numeric,0.03,0.05,competitor,competitor,0,6.589
7,74,perceptual,0.03,0.05,competitor,decoy,0,4.383
7,75,perceptual,0.1,0.2,competitor,target,1,3.506
7,76,numeric,0.03,0.2,competitor,target,1,6.893
7,77,numeric,0.03,0.2,target,target,1,9.093
7,78,numeric,0.03,0.2,competitor,target,1,6.134
7,79,numeric,0.1,0.05,competitor,target,1,10.987
7,80,perceptual,0.1,0.05,target,decoy,0,6.938
7,81,numeric,0.1,0.05,competitor,target,1,5.719
7,82,numeric,0.03,0.05,target,competitor,0,5.665
7,83,perceptual,0.1,0.2,target,target,1,8.937
7,84,perceptual,0.03,0.2,target,target,1,4.296
7,85,numeric,0.1,0.2,target,target,1,6.297
7,86,numeric,0.1,0.05,competitor,target,1,10.109
7,87,perceptual,0.1,0.05,competitor,target,1,7.179
7,88,perceptual,0.03,0.2,competitor,target,1,5.291
7,89,perceptual,0.1,0.05,competitor,target,1,9.689
7,90,perceptual,0.1,0.05,competitor,target,1,7.925
7,91,perceptual,0.03,0.05,competitor,target,1,11.615
7,92,numeric,0.03,0.05,target,competitor,0,7.454
7,93,perceptual,0.03,0.2,competitor,target,1,13.968
7,94,perceptual,0.1,0.2,competitor,target,1,4.173
7,95,perceptual,0.03,0.2,competitor,competitor,0,6.455
7,96,numeric,0.03,0.2,target,competitor,0,5.194
7,97,numeric,0.1,0.2,competitor,competitor,0,8.586
7,98,numeric,0.1,0.05,target,competitor,0,9.904
7,99,perceptual,0.03,0.05,target,target,1,5.567
7,100,perceptual,0.1,0.05,target,target,1,5.28
7,101,perceptual,0.03,0.2,target,competitor,0,6.553
7,102,numeric,0.03,0.05,competitor,competitor,0,9.32
7,103,numeric,0.03,0.2,competitor,competitor,0,5.98
7,104,perceptual,0.03,0.05,target,target,1,4.04
7,105,numeric,0.1,0.2,target,target,1,13.142
7,106,numeric,0.03,0.2,competitor,competitor,0,8.697
7,107,numeric,0.1,0.05,competitor,target,1,5.565
7,108,numeric,0.1,0.2,competitor,competitor,0,11.707
7,109,perceptual,0.1,0.2,competitor,target,1,6.052
7,110,numeric,0.03,0.05,target,target,1,6.733
7,111,numeric,0.03,0.05,target,target,1,11.063
7,112,perceptual,0.1,0.05,competitor,target,1,8.293
7,113,perceptual,0.03,0.05,target,competitor,0,6.351
7,114,perceptual,0.1,0.05,target,target,1,8.939
7,115,numeric,0.1,0.05,competitor,decoy,0,9.826
7,116,perceptual,0.03,0.05,competitor,decoy,0,4.482
7,117,numeric,0.1,0.05,competitor,target,1,7.735
7,118,perceptual,0.1,0.2,competitor,target,1,8.185
7,119,perceptual,0.1,0.05,target,target,1,9.142
7,120,numeric,0.1,0.05,target,target,1,5.06
7,121,numeric,0.1,0.2,target,competitor,0,15.421
7,122,perceptual,0.1,0.2,target,target,1,3.946
7,123,perceptual,0.03,0.2,target,competitor,0,7.281
7,124,perceptual,0.03,0.2,target,target,1,7.092
7,125,perceptual,0.03,0.05,competitor,competitor,0,4.565
7,126,perceptual,0.1,0.05,competitor,target,1,3.459
7,127,numeric,0.1,0.05,competitor,target,1,6.141
7,128,numeric,0.03,0.2,competitor,competitor,0,10.506
7,129,numeric,0.03,0.2,target,competitor,0,10.961
7,130,numeric,0.03,0.05,competitor,target,1,5.536
7,131,numeric,0.03,0.05,target,target,1,8.906
7,132,numeric,0.1,0.05,competitor,target,1,9.509
7,133,numeric,0.03,0.2,competitor,target,1,7.351
7,134,numeric,0.03,0.05,competitor,competitor,0,5.124
7,135,perceptual,0.1,0.05,target,target,1,5.383
7,136,perceptual,0.03,0.05,target,target,1,5.926
7,137,perceptual,0.03,0.05,target,target,1,4.71
7,138,numeric,0.1,0.05,target,target,1,5.687
7,139,perceptual,0.03,0.2,target,target,1,8.115
7,140,numeric,0.1,0.2,competitor,competitor,0,6.423
7,141,numeric,0.1,0.05,target,target,1,10.57
7,142,perceptual,0.03,0.05,competitor,target,1,6.299
7,143,numeric,0.1,0.2,competitor,competitor,0,6.668
7,144,perceptual,0.1,0.2,target,target,1,4.118
7,145,perceptual,0.1,0.05,competitor,target,1,4.237
7,146,numeric,0.03,0.2,competitor,target,1,4.383
7,147,perceptual,0.03,0.2,target,competitor,0,4.962
7,148,numeric,0.1,0.2,target,target,1,5.475
7,149,perceptual,0.1,0.2,competitor,target,1,2.934
7,150,perceptual,0.03,0.2,competitor,target,1,4.142
7,151,numeric,0.1,0.2,target,competitor,0,4.348
7,152,numeric,0.1,0.2,competitor,target,1,7.77
7,153,perceptual,0.03,0.2,competitor,target,1,2.916
7,154,perceptual,0.03,0.2,target,competitor,0,5.08
7,155,numeric,0.03,0.05,target,competitor,0,4.205
7,156,numeric,0.1,0.2,competitor,target,1,8.134
7,157,perceptual,0.1,0.2,target,target,1,5.267
7,158,numeric,0.1,0.2,target,target,1,7.141
7,159,numeric,0.03,0.05,target,competitor,0,5.675
7,160,perceptual,0.03,0.05,competitor,competitor,0,4.816
7,161,perceptual,0.1,0.05,target,target,1,5.991
7,162,numeric,0.03,0.05,competitor,competitor,0,6.389
7,163,perceptual,0.1,0.05,target,decoy,0,6.74
7,164,numeric,0.1,0.2,competitor,target,1,7.17
7,165,numeric,0.1,0.2,target,target,1,6.604
7,166,perceptual,0.1,0.05,competitor,target,1,5.314
7,167,perceptual,0.1,0.2,target,competitor,0,4.487
7,168,perceptual,0.03,0.2,target,competitor,0,15.022
7,169,perceptual,0.03,0.2,competitor,competitor,0,4.163
7,170,perceptual,0.03,0.2,competitor,competitor,0,2.703
7,171,numeric,0.1,0.2,target,competitor,0,5.254
7,172,perceptual,0.1,0.2,competitor,target,1,6.841
7,173,numeric,0.03,0.05,target,competitor,0,6.438
7,174,numeric,0.03,0.05,competitor,target,1,5.036
7,175,numeric,0.1,0.05,competitor,competitor,0,7.773
7,176,numeric,0.03,0.05,competitor,target,1,4.815
7,177,perceptual,0.1,0.2,target,competitor,0,4.762
7,178,perceptual,0.03,0.05,competitor,target,1,3.251
7,179,numeric,0.03,0.05,competitor,target,1,7.313
7,180,numeric,0.1,0.05,competitor,competitor,0,6.427
7,181,numeric,0.1,0.05,target,competitor,0,6.345
7,182,perceptual,0.03,0.2,competitor,target,1,5.484
7,183,perceptual,0.03,0.2,target,target,1,3.822
7,184,perceptual,0.1,0.05,competitor,target,1,4.82
7,185,perceptual,0.1,0.05,target,competitor,0,4.437
7,186,perceptual,0.03,0.2,target,decoy,0,5.66
7,187,perceptual,0.1,0.2,competitor,target,1,3.284
7,188,perceptual,0.03,0.05,target,competitor,0,4.613
7,189,perceptual,0.1,0.2,competitor,target,1,3.017
7,190,numeric,0.03,0.2,target,competitor,0,5.079
7,191,numeric,0.1,0.05,target,target,1,5.928
7,192,perceptual,0.1,0.2,target,competitor,0,3.828
8,1,numeric,0.03,0.05,target,target,1,6.345
8,2,numeric,0.03,0.05,competitor,competitor,0,7.18
8,3,numeric,0.1,0.2,target,target,1,4.658
8,4,perceptual,0.1,0.2,target,target,1,4.168
8,5,numeric,0.1,0.2,target,target,1,5.263
8,6,perceptual,0.03,0.2,target,target,1,3.46
8,7,perceptual,0.03,0.05,target,competitor,0,3.074
8,8,numeric,0.1,0.2,target,target,1,5.573
8,9,perceptual,0.1,0.2,competitor,target,1,3.103
8,10,numeric,0.03,0.05,competitor,competitor,0,5.253
8,11,numeric,0.03,0.2,competitor,competitor,0,8.617
8,12,perceptual,0.03,0.2,target,target,1,4.218
8,13,perceptual,0.03,0.05,competitor,target,1,3.058
8,14,numeric,0.1,0.05,competitor,target,1,9.478
8,15,perceptual,0.1,0.05,target,competitor,0,4.149
8,16,perceptual,0.03,0.05,target,target,1,2.892
8,17,perceptual,0.03,0.2,competitor,competitor,0,2.961
8,18,numeric,0.03,0.2,target,target,1,4.308
8,19,numeric,0.03,0.05,target,target,1,6.61
8,20,numeric,0.03,0.2,competitor,target,1,7.279
8,21,numeric,0.1,0.2,competitor,target,1,8.209
8,22,numeric,0.03,0.05,competitor,target,1,3.872
8,23,perceptual,0.1,0.05,competitor,target,1,4.308
8,24,numeric,0.1,0.05,target,target,1,7.569
8,25,perceptual,0.1,0.2,competitor,target,1,6.6
8,26,perceptual,0.03,0.05,competitor,competitor,0,4.301
8,27,perceptual,0.03,0.05,competitor,decoy,0,4.08
8,28,perceptual,0.03,0.2,competitor,competitor,0,2.912
8,29,perceptual,0.03,0.05,competitor,competitor,0,4.451
8,30,perceptual,0.03,0.2,target,competitor,0,3.295
8,31,perceptual,0.1,0.05,target,target,1,5.795
8,32,numeric,0.03,0.2,target,target,1,7.277
8,33,numeric,0.03,0.05,target,target,1,4.148
8,34,numeric,0.03,0.05,competitor,competitor,0,7.642
8,35,numeric,0.03,0.05,competitor,target,1,10.892
8,36,perceptual,0.03,0.05,target,decoy,0,4.518
8,37,numeric,0.1,0.2,target,target,1,5.065
8,38,numeric,0.1,0.05,target,competitor,0,13.343
8,39,numeric,0.03,0.05,competitor,target,1,7.13
8,40,perceptual,0.03,0.2,target,target,1,4.737
8,41,numeric,0.1,0.2,target,target,1,6.486
8,42,perceptual,0.1,0.2,target,target,1,3.408
8,43,perceptual,0.03,0.05,competitor,target,1,3.985
8,44,perceptual,0.03,0.2,target,competitor,0,3.529
8,45,perceptual,0.1,0.2,competitor,target,1,4.56
8,46,perceptual,0.1,0.05,competitor,target,1,3.158
8,47,perceptual,0.03,0.2,competitor,target,1,2.856
8,48,perceptual,0.1,0.05,target,target,1,5.713
8,49,numeric,0.1,0.2,competitor,target,1,5.818
8,50,numeric,0.03,0.2,target,competitor,0,6.392
8,51,perceptual,0.03,0.2,competitor,target,1,3.208
8,52,numeric,0.1,0.05,target,target,1,9.806
8,53,numeric,0.03,0.2,target,competitor,0,6.559
8,54,numeric,0.1,0.05,competitor,target,1,4.423
8,55,numeric,0.03,0.2,target,competitor,0,3.347
8,56,numeric,0.1,0.2,target,target,1,8.4
8,57,perceptual,0.03,0.05,target,target,1,5.637
8,58,numeric,0.03,0.05,target,competitor,0,6.771
8,59,numeric,0.1,0.2,competitor,target,1,7.667
8,60,numeric,0.1,0.05,target,target,1,7.357
8,61,numeric,0.1,0.05,competitor,target,1,8.947
8,62,perceptual,0.03,0.2,competitor,competitor,0,3.798
8,63,perceptual,0.03,0.2,competitor,competitor,0,2.857
8,64,numeric,0.1,0.05,target,target,1,5.992
8,65,perceptual,0.03,0.05,competitor,target,1,4.409
8,66,perceptual,0.1,0.05,competitor,target,1,5.318
8,67,numeric,0.03,0.2,competitor,target,1,6.255
8,68,numeric,0.1,0.05,competitor,target,1,4.573
8,69,perceptual,0.03,0.05,target,target,1,5.128
8,70,perceptual,0.1,0.2,target,target,1,4.307
8,71,perceptual,0.03,0.05,competitor,target,1,3.151
8,72,perceptual,0.03,0.2,competitor,target,1,5.027
8,73,numeric,0.1,0.2,target,target,1,8.835
8,74,perceptual,0.03,0.2,competitor,competitor,0,3.072
8,75,numeric,0.1,0.2,target,target,1,12.99
8,76,perceptual,0.1,0.05,competitor,target,1,3.265
8,77,numeric,0.1,0.2,target,target,1,6.917
8,78,numeric,0.03,0.05,target,target,1,6.308
8,79,perceptual,0.03,0.2,target,competitor,0,5.436
8,80,perceptual,0.03,0.05,target,decoy,0,4.589
8,81,numeric,0.03,0.05,target,target,1,7.436
8,82,numeric,0.03,0.2,competitor,target,1,6.173
8,83,perceptual,0.1,0.05,target,target,1,6.893
8,84,perceptual,0.1,0.05,target,target,1,3.451
8,85,numeric,0.1,0.2,competitor,target,1,7.064
8,86,perceptual,0.1,0.2,competitor,target,1,2.614
8,87,numeric,0.03,0.2,target,target,1,8.253
8,88,perceptual,0.1,0.05,competitor,target,1,3.836
8,89,perceptual,0.1,0.05,competitor,competitor,0,5.792
8,90,perceptual,0.1,0.2,target,target,1,4.101
8,91,perceptual,0.1,0.2,competitor,target,1,3.16
8,92,perceptual,0.03,0.05,target,competitor,0,4.209
8,93,numeric,0.1,0.2,target,target,1,6.581
8,94,perceptual,0.1,0.2,target,target,1,4.357
8,95,numeric,0.03,0.2,competitor,target,1,6.997
8,96,numeric,0.03,0.2,target,target,1,8.943
8,97,numeric,0.1,0.2,target,competitor,0,8.516
8,98,perceptual,0.03,0.05,competitor,target,1,6.114
8,99,numeric,0.1,0.2,competitor,target,1,5.262
8,100,numeric,0.03,0.2,competitor,competitor,0,10.726
8,101,numeric,0.03,0.2,target,target,1,10.633
8,102,numeric,0.1,0.2,competitor,target,1,6.816
8,103,perceptual,0.1,0.2,target,target,1,5.325
8,104,numeric,0.1,0.05,competitor,target,1,6.907
8,105,numeric,0.03,0.2,competitor,target,1,8.034
8,106,numeric,0.1,0.05,competitor,target,1,5.652
8,107,perceptual,0.03,0.2,target,target,1,5.1
8,108,perceptual,0.1,0.05,target,target,1,7.212
8,109,perceptual,0.03,0.2,target,target,1,5.835
8,110,perceptual,0.1,0.05,competitor,competitor,0,3.603
8,111,perceptual,0.1,0.05,target,decoy,0,4.16
8,112,perceptual,0.03,0.05,target,target,1,3.044
8,113,numeric,0.03,0.2,target,target,1,5.718
8,114,perceptual,0.1,0.05,competitor,target,1,5.55
8,115,numeric,0.1,0.2,competitor,target,1,5.333
8,116,numeric,0.1,0.2,competitor,target,1,4.341
8,117,numeric,0.03,0.05,target,target,1,7.886
8,118,perceptual,0.03,0.05,competitor,target,1,2.992
8,119,perceptual,0.1,0.05,target,target,1,3.056
8,120,perceptual,0.03,0.05,competitor,decoy,0,4.48
8,121,perceptual,0.03,0.05,target,target,1,4.215
8,122,perceptual,0.1,0.05,competitor,target,1,3.009
8,123,numeric,0.03,0.2,competitor,competitor,0,10.119
8,124,perceptual,0.03,0.2,competitor,competitor,0,3.856
8,125,numeric,0.03,0.05,competitor,competitor,0,8.242
8,126,numeric,0.03,0.05,competitor,competitor,0,6.259
8,127,perceptual,0.1,0.2,competitor,target,1,3.64
8,128,numeric,0.1,0.2,target,target,1,7.879
8,129,numeric,0.03,0.05,target,target,1,7.714
8,130,perceptual,0.03,0.2,target,competitor,0,3.241
8,131,numeric,0.1,0.05,competitor,target,1,4.797
8,132,numeric,0.03,0.2,competitor,target,1,8.488
8,133,numeric,0.03,0.2,competitor,target,1,5.266
8,134,perceptual,0.1,0.2,competitor,target,1,3.287
8,135,perceptual,0.03,0.05,competitor,target,1,3.736
8,136,numeric,0.03,0.05,competitor,target,1,8.95
8,137,numeric,0.1,0.05,target,target,1,3.934
8,138,numeric,0.1,0.05,competitor,target,1,9.093
8,139,perceptual,0.1,0.2,competitor,target,1,3.139
8,140,numeric,0.03,0.2,target,target,1,8.025
8,141,numeric,0.1,0.2,competitor,target,1,9.812
8,142,numeric,0.03,0.2,target,target,1,4.783
8,143,perceptual,0.1,0.05,competitor,decoy,0,4.039
8,144,numeric,0.1,0.05,competitor,competitor,0,7.336
8,145,perceptual,0.03,0.05,competitor,competitor,0,4.468
8,146,numeric,0.1,0.2,competitor,target,1,4.507
8,147,perceptual,0.1,0.2,competitor,target,1,3.539
8,148,perceptual,0.03,0.2,target,target,1,5.617
8,149,numeric,0.1,0.2,competitor,decoy,0,9.323
8,150,numeric,0.03,0.05,competitor,target,1,5.336
8,151,perceptual,0.03,0.2,target,target,1,5.192
8,152,numeric,0.03,0.05,target,competitor,0,7.457
8,153,perceptual,0.03,0.2,competitor,target,1,7.085
8,154,numeric,0.03,0.05,competitor,target,1,5.174
8,155,numeric,0.1,0.05,target,target,1,6.203
8,156,perceptual,0.1,0.2,competitor,target,1,3.205
8,157,numeric,0.1,0.05,competitor,target,1,5.635
8,158,perceptual,0.03,0.05,target,target,1,3.499
8,159,perceptual,0.1,0.2,target,target,1,3.011
8,160,numeric,0.03,0.2,competitor,competitor,0,10.401
8,161,numeric,0.03,0.2,target,target,1,6.881
8,162,numeric,0.1,0.05,target,target,1,11.117
8,163,perceptual,0.1,0.2,target,target,1,2.758
8,164,perceptual,0.1,0.2,target,competitor,0,4.757
8,165,perceptual,0.1,0.2,target,competitor,0,3.88
8,166,perceptual,0.1,0.05,target,target,1,5.856
8,167,numeric,0.03,0.05,target,target,1,4.254
8,168,perceptual,0.1,0.05,target,competitor,0,0.152
8,169,perceptual,0.1,0.2,competitor,target,1,3.516
8,170,perceptual,0.1,0.2,target,target,1,5.134
8,171,numeric,0.1,0.05,target,target,1,6.356
8,172,numeric,0.1,0.2,competitor,competitor,0,9.248
8,173,numeric,0.1,0.05,target,target,1,5.011
8,174,numeric,0.1,0.05,target,target,1,5.746
8,175,numeric,0.03,0.05,competitor,competitor,0,12.207
8,176,perceptual,0.1,0.2,target,target,1,4.83
8,177,perceptual,0.03,0.05,target,target,1,4.744
8,178,numeric,0.1,0.05,target,target,1,5.775
8,179,perceptual,0.1,0.05,target,decoy,0,5.254
8,180,perceptual,0.1,0.05,target,target,1,2.71
8,181,numeric,0.1,0.05,competitor,competitor,0,5.277
8,182,perceptual,0.1,0.05,competitor,competitor,0,3.627
8,183,perceptual,0.03,0.05,target,target,1,5.022
8,184,numeric,0.03,0.05,target,competitor,0,9.124
8,185,numeric,0.1,0.05,competitor,target,1,7.653
8,186,perceptual,0.03,0.2,competitor,target,1,3.488
8,187,perceptual,0.1,0.05,competitor,target,1,2.872
8,188,numeric,0.03,0.05,target,competitor,0,8.408
8,189,perceptual,0.03,0.2,target,target,1,3.68
8,190,perceptual,0.03,0.2,competitor,target,1,5.012
8,191,perceptual,0.1,0.2,competitor,target,1,2.718
8,192,numeric,0.03,0.2,competitor,competitor,0,11.096
9,1,perceptual,0.03,0.05,target,decoy,0,9.424
9,2,perceptual,0.1,0.05,target,target,1,9.45
9,3,numeric,0.1,0.05,target,decoy,0,10.441
9,4,numeric,0.1,0.05,target,competitor,0,8.637
9,5,numeric,0.03,0.2,target,target,1,15.689
9,6,perceptual,0.1,0.05,competitor,target,1,5.874
9,7,numeric,0.03,0.05,competitor,competitor,0,7.178
9,8,numeric,0.03,0.05,target,target,1,9.003
9,9,perceptual,0.03,0.2,competitor,competitor,0,4.86
9,10,perceptual,0.03,0.2,competitor,target,1,9.861
9,11,numeric,0.1,0.05,competitor,target,1,7.525
9,12,numeric,0.1,0.2,target,target,1,5.848
9,13,perceptual,0.1,0.05,competitor,competitor,0,6.02
9,14,perceptual,0.03,0.2,target,target,1,4.936
9,15,numeric,0.03,0.05,competitor,competitor,0,8.652
9,16,numeric,0.03,0.05,target,decoy,0,6.429
9,17,perceptual,0.1,0.2,competitor,target,1,4.353
9,18,numeric,0.1,0.2,target,competitor,0,4.53
9,19,numeric,0.03,0.2,competitor,target,1,6.304
9,20,perceptual,0.1,0.05,target,competitor,0,5.494
9,21,numeric,0.03,0.05,target,target,1,4.304
9,22,numeric,0.03,0.2,competitor,competitor,0,4.938
9,23,numeric,0.1,0.2,competitor,target,1,4.558
9,24,numeric,0.03,0.2,target,competitor,0,4.478
9,25,numeric,0.03,0.05,competitor,decoy,0,9.285
9,26,perceptual,0.03,0.2,competitor,target,1,4.468
9,27,numeric,0.1,0.05,competitor,target,1,8.221
9,28,perceptual,0.03,0.05,target,competitor,0,4.815
9,29,numeric,0.03,0.2,competitor,target,1,4.913
9,30,numeric,0.1,0.2,target,competitor,0,3.64
9,31,numeric,0.1,0.05,target,competitor,0,4.908
9,32,numeric,0.1,0.2,target,target,1,4.706
9,33,perceptual,0.03,0.05,target,decoy,0,2.978
9,34,perceptual,0.1,0.2,target,competitor,0,3.331
9,35,perceptual,0.03,0.05,competitor,target,1,13.111
9,36,perceptual,0.1,0.2,competitor,target,1,6.715
9,37,numeric,0.03,0.2,target,target,1,6.245
9,38,numeric,0.03,0.05,target,target,1,16.291
9,39,numeric,0.03,0.05,target,competitor,0,7.182
9,40,numeric,0.1,0.2,competitor,competitor,0,9.08
9,41,perceptual,0.1,0.05,target,competitor,0,6.114
9,42,numeric,0.1,0.05,competitor,decoy,0,11.876
9,43,perceptual,0.03,0.05,target,target,1,11.371
9,44,numeric,0.1,0.05,competitor,competitor,0,15.354
9,45,numeric,0.1,0.2,target,target,1,9.037
9,46,numeric,0.03,0.2,competitor,competitor,0,15.564
9,47,perceptual,0.1,0.2,competitor,target,1,6.662
9,48,perceptual,0.1,0.2,competitor,target,1,5.718
9,49,perceptual,0.1,0.2,competitor,target,1,4.518
9,50,perceptual,0.1,0.05,target,decoy,0,7.945
9,51,perceptual,0.03,0.05,competitor,target,1,5.43
9,52,numeric,0.03,0.2,competitor,competitor,0,4.92
9,53,numeric,0.03,0.2,competitor,target,1,5.487
9,54,perceptual,0.03,0.05,competitor,target,1,6.419
9,55,perceptual,0.1,0.05,competitor,target,1,3.185
9,56,perceptual,0.03,0.2,competitor,target,1,9.863
9,57,perceptual,0.03,0.05,target,competitor,0,14.569
9,58,perceptual,0.03,0.05,competitor,competitor,0,3.805
9,59,perceptual,0.03,0.05,target,target,1,3.624
9,60,perceptual,0.03,0.2,target,target,1,3.64
9,61,numeric,0.03,0.2,target,target,1,8.722
9,62,perceptual,0.1,0.2,competitor,target,1,3.532
9,63,numeric,0.1,0.05,target,decoy,0,4.622
9,64,numeric,0.1,0.2,competitor,target,1,3.662
9,65,perceptual,0.1,0.2,target,target,1,3.086
9,66,perceptual,0.03,0.2,competitor,competitor,0,3.588
9,67,perceptual,0.1,0.2,target,competitor,0,3.524
9,68,numeric,0.1,0.05,competitor,competitor,0,4.549
9,69,numeric,0.03,0.2,target,target,1,8.736
9,70,perceptual,0.03,0.2,competitor,target,1,4.808
9,71,perceptual,0.03,0.2,target,target,1,9.33
9,72,perceptual,0.03,0.05,target,competitor,0,6.014
9,73,numeric,0.03,0.2,competitor,target,1,6.229
9,74,numeric,0.03,0.2,competitor,competitor,0,8.801
9,75,perceptual,0.03,0.05,competitor,decoy,0,3.479
9,76,perceptual,0.03,0.05,competitor,target,1,3.611
9,77,perceptual,0.1,0.2,target,target,1,5.427
9,78,perceptual,0.1,0.2,target,competitor,0,4.558
9,79,numeric,0.1,0.2,competitor,competitor,0,4.588
9,80,numeric,0.1,0.05,competitor,target,1,6.88
9,81,numeric,0.1,0.05,target,target,1,3.708
9,82,numeric,0.1,0.05,target,competitor,0,3.257
9,83,perceptual,0.1,0.05,target,decoy,0,9.674
9,84,numeric,0.03,0.05,competitor,competitor,0,4.909
9,85,numeric,0.03,0.05,target,target,1,5.758
9,86,numeric,0.1,0.2,competitor,target,1,8.021
9,87,numeric,0.1,0.05,target,target,1,4.581
9,88,perceptual,0.03,0.05,target,competitor,0,5.391
9,89,perceptual,0.1,0.05,competitor,competitor,0,4.16
9,90,numeric,0.1,0.2,target,target,1,8.448
9,91,numeric,0.03,0.05,competitor,competitor,0,6.928
9,92,perceptual,0.03,0.05,competitor,target,1,4.023
9,93,numeric,0.03,0.05,competitor,target,1,5.041
9,94,perceptual,0.03,0.2,target,competitor,0,4.284
9,95,perceptual,0.03,0.2,competitor,competitor,0,5.963
9,96,numeric,0.03,0.05,competitor,decoy,0,8.509
9,97,numeric,0.03,0.2,target,target,1,5
9,98,numeric,0.1,0.2,target,competitor,0,3.995
9,99,perceptual,0.03,0.2,competitor,competitor,0,3.68
9,100,perceptual,0.1,0.05,competitor,target,1,4.415
9,101,perceptual,0.03,0.05,competitor,target,1,4.882
9,102,perceptual,0.1,0.2,competitor,target,1,3.541
9,103,numeric,0.1,0.2,target,competitor,0,5.37
9,104,numeric,0.1,0.05,competitor,target,1,3.701
9,105,numeric,0.03,0.2,competitor,target,1,8.089
9,106,numeric,0.1,0.05,target,competitor,0,6.446
9,107,perceptual,0.1,0.2,target,competitor,0,2.991
9,108,numeric,0.1,0.05,competitor,target,1,5.421
9,109,numeric,0.03,0.05,competitor,competitor,0,7.366
9,110,perceptual,0.03,0.05,target,target,1,4.368
9,111,numeric,0.03,0.2,target,target,1,8.013
9,112,numeric,0.1,0.2,competitor,target,1,4.835
9,113,perceptual,0.03,0.2,target,competitor,0,3.74
9,114,perceptual,0.03,0.05,competitor,target,1,4.317
9,115,perceptual,0.1,0.05,target,target,1,4.483
9,116,numeric,0.03,0.2,competitor,target,1,7.185
9,117,perceptual,0.03,0.2,target,target,1,4.064
9,118,numeric,0.1,0.2,competitor,target,1,5.035
9,119,numeric,0.03,0.2,target,target,1,15.697
9,120,perceptual,0.03,0.05,target,target,1,5.706
9,121,numeric,0.03,0.2,target,competitor,0,3.678
9,122,perceptual,0.03,0.2,competitor,target,1,3.046
9,123,numeric,0.1,0.2,competitor,competitor,0,5.283
9,124,perceptual,0.1,0.05,target,target,1,3.537
9,125,perceptual,0.1,0.05,target,decoy,0,3.271
9,126,perceptual,0.1,0.2,target,target,1,7.025
9,127,numeric,0.1,0.2,competitor,competitor,0,6.436
9,128,numeric,0.03,0.2,target,target,1,11.247
9,129,numeric,0.1,0.05,target,competitor,0,3.83
9,130,perceptual,0.1,0.05,competitor,decoy,0,3.915
9,131,perceptual,0.1,0.05,competitor,target,1,3.51
9,132,numeric,0.03,0.2,target,target,1,5.413
9,133,perceptual,0.03,0.2,target,competitor,0,5.359
9,134,numeric,0.1,0.2,target,target,1,18.198
9,135,perceptual,0.03,0.2,target,target,1,3.104
9,136,numeric,0.1,0.2,target,target,1,4.997
9,137,numeric,0.03,0.05,target,competitor,0,8.637
9,138,numeric,0.1,0.05,competitor,target,1,8.675
9,139,numeric,0.03,0.2,target,target,1,5.455
9,140,perceptual,0.03,0.2,target,competitor,0,4.33
9,141,perceptual,0.03,0.2,target,target,1,3.332
9,142,perceptual,0.03,0.2,target,competitor,0,6.279
9,143,numeric,0.1,0.2,target,target,1,5.38
9,144,numeric,0.03,0.05,competitor,target,1,7.524
9,145,numeric,0.1,0.05,target,target,1,4.497
9,146,numeric,0.03,0.05,target,competitor,0,4.816
9,147,perceptual,0.03,0.2,target,competitor,0,3.087
9,148,perceptual,0.1,0.2,competitor,competitor,0,3.106
9,149,perceptual,0.1,0.2,target,competitor,0,4.237
9,150,perceptual,0.1,0.05,target,competitor,0,2.758
9,151,perceptual,0.1,0.2,competitor,target,1,3.252
9,152,numeric,0.03,0.05,target,target,1,4.885
9,153,perceptual,0.1,0.2,target,competitor,0,3.913
9,154,perceptual,0.03,0.2,competitor,competitor,0,5.498
9,155,numeric,0.03,0.05,competitor,target,1,4.198
9,156,perceptual,0.1,0.05,competitor,decoy,0,3.474
9,157,perceptual,0.1,0.05,target,target,1,5.254
9,158,numeric,0.1,0.2,competitor,target,1,5.19
9,159,perceptual,0.03,0.05,competitor,competitor,0,4.168
9,160,perceptual,0.1,0.2,target,target,1,3.006
9,161,perceptual,0.1,0.05,target,target,1,3.286
9,162,numeric,0.03,0.05,competitor,competitor,0,4.12
9,163,numeric,0.1,0.2,target,target,1,2.864
9,164,perceptual,0.1,0.05,competitor,target,1,2.931
9,165,perceptual,0.1,0.05,competitor,target,1,2.393
9,166,numeric,0.1,0.2,competitor,target,1,2.393
9,167,numeric,0.1,0.05,competitor,target,1,3.646
9,168,numeric,0.03,0.05,target,target,1,2.612
9,169,numeric,0.03,0.2,competitor,target,1,3.449
9,170,numeric,0.1,0.2,competitor,target,1,3.074
9,171,numeric,0.03,0.05,competitor,competitor,0,2.513
9,172,perceptual,0.03,0.05,competitor,competitor,0,2.237
9,173,numeric,0.1,0.05,target,decoy,0,3.374
9,174,numeric,0.1,0.05,competitor,competitor,0,2.287
9,175,perceptual,0.03,0.05,target,target,1,2.388
9,176,perceptual,0.1,0.2,competitor,decoy,0,2.759
9,177,perceptual,0.1,0.05,competitor,target,1,2.244
9,178,perceptual,0.03,0.05,competitor,decoy,0,1.895
9,179,perceptual,0.03,0.2,competitor,decoy,0,2.196
9,180,perceptual,0.1,0.2,target,competitor,0,2.011
9,181,numeric,0.1,0.05,competitor,competitor,0,4.25
9,182,perceptual,0.1,0.2,competitor,competitor,0,3.441
9,183,numeric,0.1,0.05,target,decoy,0,3.866
9,184,perceptual,0.1,0.2,target,target,1,2.303
9,185,numeric,0.03,0.05,target,competitor,0,3.312
9,186,numeric,0.03,0.2,competitor,target,1,5.603
9,187,perceptual,0.03,0.05,target,decoy,0,2.493
9,188,perceptual,0.1,0.05,competitor,competitor,0,2.362
9,189,numeric,0.03,0.05,target,target,1,6.274
9,190,perceptual,0.1,0.05,target,target,1,4.784
9,191,perceptual,0.03,0.2,competitor,decoy,0,2.375
9,192,perceptual,0.1,0.2,competitor,target,1,2.435
10,1,perceptual,0.1,0.05,competitor,target,1,6.26
10,2,numeric,0.1,0.2,competitor,target,1,8.755
10,3,numeric,0.1,0.2,target,competitor,0,4.983
10,4,perceptual,0.1,0.05,target,competitor,0,2.649
10,5,perceptual,0.03,0.05,target,target,1,4.868
10,6,perceptual,0.03,0.05,competitor,target,1,5.754
10,7,numeric,0.1,0.2,target,competitor,0,4.198
10,8,perceptual,0.1,0.2,target,target,1,2.634
10,9,numeric,0.03,0.05,target,target,1,5.25
10,10,numeric,0.1,0.2,target,target,1,6.931
10,11,perceptual,0.03,0.05,competitor,competitor,0,3.972
10,12,numeric,0.1,0.2,target,target,1,6.741
10,13,numeric,0.03,0.2,competitor,target,1,5.449
10,14,perceptual,0.1,0.2,target,target,1,2.198
10,15,numeric,0.03,0.05,target,target,1,6.117
10,16,numeric,0.03,0.2,target,target,1,5.416
10,17,perceptual,0.03,0.05,competitor,competitor,0,3.073
10,18,perceptual,0.03,0.05,competitor,competitor,0,4.363
10,19,numeric,0.03,0.2,target,competitor,0,6.082
10,20,numeric,0.03,0.05,target,competitor,0,3.748
10,21,numeric,0.03,0.2,competitor,competitor,0,8.53
10,22,perceptual,0.1,0.2,competitor,target,1,2.644
10,23,numeric,0.03,0.2,competitor,target,1,5.683
10,24,numeric,0.03,0.05,target,competitor,0,4.454
10,25,perceptual,0.1,0.2,competitor,target,1,7.921
10,26,numeric,0.03,0.05,target,target,1,6.965
10,27,numeric,0.1,0.05,competitor,target,1,6.819
10,28,numeric,0.1,0.2,target,target,1,6.905
10,29,perceptual,0.03,0.2,target,target,1,3.248
10,30,numeric,0.1,0.05,competitor,competitor,0,4.326
10,31,perceptual,0.1,0.05,target,competitor,0,5.315
10,32,perceptual,0.03,0.05,competitor,target,1,2.98
10,33,perceptual,0.03,0.05,target,target,1,2.003
10,34,numeric,0.03,0.05,target,competitor,0,3.391
10,35,numeric,0.1,0.05,competitor,decoy,0,4.782
10,36,numeric,0.03,0.2,target,competitor,0,7.125
10,37,perceptual,0.1,0.05,competitor,target,1,3.291
10,38,perceptual,0.03,0.2,competitor,competitor,0,7.164
10,39,numeric,0.03,0.05,competitor,decoy,0,7.053
10,40,numeric,0.03,0.2,competitor,target,1,8.496
10,41,perceptual,0.03,0.2,target,target,1,0.053
10,42,numeric,0.03,0.05,competitor,target,1,5.071
10,43,numeric,0.1,0.2,competitor,competitor,0,5.066
10,44,perceptual,0.1,0.05,target,target,1,3.724
10,45,perceptual,0.1,0.2,target,target,1,3.734
10,46,perceptual,0.03,0.2,competitor,target,1,2.204
10,47,numeric,0.1,0.2,competitor,target,1,5.99
10,48,numeric,0.03,0.05,target,target,1,7.186
10,49,perceptual,0.1,0.2,competitor,competitor,0,2.559
10,50,numeric,0.03,0.05,competitor,competitor,0,5.917
10,51,perceptual,0.1,0.2,competitor,target,1,2.665
10,52,numeric,0.03,0.2,target,target,1,6.179
10,53,numeric,0.03,0.2,competitor,competitor,0,4.697
10,54,numeric,0.03,0.05,target,competitor,0,7.405
10,55,numeric,0.1,0.05,competitor,target,1,7.251
10,56,numeric,0.1,0.05,target,target,1,6.455
10,57,perceptual,0.03,0.05,competitor,competitor,0,3.749
10,58,numeric,0.03,0.2,competitor,target,1,5.571
10,59,numeric,0.1,0.05,competitor,target,1,6.072
10,60,perceptual,0.1,0.05,competitor,target,1,3.357
10,61,perceptual,0.03,0.2,competitor,target,1,3.099
10,62,perceptual,0.03,0.05,target,target,1,3.29
10,63,numeric,0.03,0.05,competitor,competitor,0,7.899
10,64,numeric,0.03,0.2,target,target,1,5.461
10,65,perceptual,0.1,0.05,target,decoy,0,4.672
10,66,numeric,0.1,0.2,competitor,target,1,5.938
10,67,numeric,0.1,0.05,target,target,1,7.506
10,68,numeric,0.03,0.2,target,target,1,6.571
10,69,perceptual,0.03,0.2,competitor,competitor,0,2.874
10,70,perceptual,0.1,0.2,target,target,1,3.548
10,71,perceptual,0.03,0.05,competitor,target,1,4.416
10,72,perceptual,0.1,0.05,target,competitor,0,4.598
10,73,numeric,0.1,0.2,target,target,1,5.197
10,74,perceptual,0.1,0.2,competitor,competitor,0,3.348
10,75,numeric,0.03,0.2,competitor,target,1,4.715
10,76,perceptual,0.03,0.2,competitor,target,1,2.496
10,77,numeric,0.1,0.2,competitor,competitor,0,2.915
10,78,perceptual,0.03,0.05,target,decoy,0,2.443
10,79,perceptual,0.03,0.05,competitor,target,1,4.812
10,80,perceptual,0.03,0.2,target,target,1,2.771
10,81,perceptual,0.1,0.2,target,target,1,3.36
10,82,numeric,0.03,0.2,target,target,1,5.864
10,83,numeric,0.1,0.05,target,target,1,6.279
10,84,perceptual,0.1,0.05,target,target,1,2.288
10,85,numeric,0.03,0.2,competitor,competitor,0,3.234
10,86,perceptual,0.03,0.05,target,target,1,4.748
10,87,numeric,0.03,0.2,target,target,1,4.203
10,88,perceptual,0.03,0.05,competitor,competitor,0,3.051
10,89,numeric,0.03,0.2,target,target,1,6.118
10,90,numeric,0.1,0.2,competitor,target,1,5.152
10,91,numeric,0.1,0.2,target,target,1,7.248
10,92,perceptual,0.03,0.2,competitor,target,1,2.968
10,93,perceptual,0.03,0.05,competitor,target,1,3.122
10,94,numeric,0.1,0.05,competitor,target,1,5.389
10,95,numeric,0.1,0.05,target,decoy,0,5.122
10,96,perceptual,0.1,0.05,competitor,competitor,0,3.266
10,97,numeric,0.1,0.05,target,target,1,4.158
10,98,numeric,0.03,0.05,target,target,1,7.206
10,99,perceptual,0.03,0.05,target,decoy,0,2.663
10,100,perceptual,0.03,0.2,target,competitor,0,3.661
10,101,numeric,0.03,0.2,competitor,target,1,7.037
10,102,numeric,0.03,0.05,target,target,1,9.028
10,103,perceptual,0.1,0.05,competitor,competitor,0,3.579
10,104,perceptual,0.1,0.2,target,competitor,0,4.985
10,105,perceptual,0.1,0.05,target,decoy,0,3.714
10,106,perceptual,0.1,0.05,target,decoy,0,3.766
10,107,numeric,0.1,0.05,competitor,competitor,0,5.348
10,108,perceptual,0.03,0.2,competitor,competitor,0,3.554
10,109,numeric,0.1,0.05,target,target,1,4.914
10,110,numeric,0.03,0.05,competitor,target,1,7.163
10,111,perceptual,0.1,0.2,competitor,target,1,2.61
10,112,numeric,0.1,0.2,competitor,target,1,14.911
10,113,perceptual,0.1,0.2,target,target,1,3.178
10,114,numeric,0.03,0.2,target,competitor,0,5.168
10,115,perceptual,0.1,0.05,competitor,competitor,0,3.418
10,116,numeric,0.03,0.05,competitor,target,1,10.148
10,117,perceptual,0.1,0.2,competitor,target,1,2.476
10,118,numeric,0.1,0.05,competitor,target,1,6.014
10,119,numeric,0.1,0.05,competitor,target,1,5.385
10,120,perceptual,0.03,0.2,competitor,target,1,3.551
10,121,numeric,0.03,0.2,target,target,1,7.522
10,122,numeric,0.1,0.05,competitor,target,1,8.435
10,123,numeric,0.03,0.05,competitor,decoy,0,8.102
10,124,numeric,0.1,0.2,competitor,target,1,9.921
10,125,numeric,0.03,0.2,competitor,competitor,0,5.637
10,126,perceptual,0.1,0.2,competitor,target,1,3.231
10,127,numeric,0.1,0.2,target,target,1,7.38
10,128,numeric,0.1,0.2,target,target,1,7.615
10,129,numeric,0.1,0.2,competitor,target,1,5.177
10,130,numeric,0.03,0.05,target,competitor,0,5.03
10,131,numeric,0.1,0.05,competitor,target,1,5.352
10,132,perceptual,0.03,0.05,target,target,1,3.965
10,133,perceptual,0.03,0.2,competitor,competitor,0,3.129
10,134,perceptual,0.03,0.2,target,target,1,2.732
10,135,perceptual,0.03,0.05,target,competitor,0,4.4
10,136,perceptual,0.03,0.2,target,target,1,2.985
10,137,perceptual,0.1,0.2,target,target,1,3.246
10,138,numeric,0.03,0.05,competitor,target,1,9.422
10,139,numeric,0.1,0.2,competitor,target,1,7.651
10,140,perceptual,0.03,0.2,competitor,competitor,0,5.15
10,141,numeric,0.1,0.05,target,target,1,3.814
10,142,numeric,0.03,0.05,competitor,target,1,5.862
10,143,perceptual,0.1,0.2,competitor,target,1,3.901
10,144,numeric,0.1,0.2,target,target,1,4.874
10,145,numeric,0.03,0.05,competitor,target,1,5.138
10,146,perceptual,0.03,0.2,target,target,1,2.444
10,147,perceptual,0.03,0.05,target,competitor,0,4.908
10,148,numeric,0.1,0.05,target,target,1,6.584
10,149,perceptual,0.1,0.2,target,competitor,0,4.699
10,150,perceptual,0.03,0.2,target,competitor,0,2.482
10,151,numeric,0.03,0.05,target,target,1,4.709
10,152,perceptual,0.1,0.2,competitor,target,1,2.295
10,153,perceptual,0.1,0.2,target,competitor,0,2.851
10,154,perceptual,0.1,0.05,target,target,1,4.274
10,155,perceptual,0.1,0.05,competitor,target,1,3.771
10,156,numeric,0.1,0.05,target,target,1,3.853
10,157,perceptual,0.03,0.2,target,target,1,2.601
10,158,numeric,0.03,0.05,competitor,competitor,0,5.171
10,159,perceptual,0.1,0.2,target,competitor,0,2.648
10,160,perceptual,0.03,0.05,target,target,1,2.282
10,161,perceptual,0.1,0.05,competitor,target,1,4.316
10,162,numeric,0.03,0.05,competitor,target,1,4.068
10,163,perceptual,0.1,0.2,competitor,target,1,2.715
10,164,perceptual,0.1,0.05,competitor,target,1,3.043
10,165,perceptual,0.1,0.2,competitor,competitor,0,3.063
10,166,numeric,0.03,0.2,target,target,1,9.041
10,167,perceptual,0.03,0.2,competitor,competitor,0,2.834
10,168,numeric,0.1,0.05,target,target,1,4.449
10,169,numeric,0.1,0.2,competitor,target,1,7.973
10,170,perceptual,0.03,0.05,target,competitor,0,2.433
10,171,numeric,0.1,0.05,competitor,competitor,0,8.787
10,172,perceptual,0.03,0.2,target,competitor,0,3.2
10,173,numeric,0.1,0.2,target,target,1,8.855
10,174,perceptual,0.03,0.2,competitor,target,1,2.532
10,175,perceptual,0.1,0.05,target,competitor,0,1.987
10,176,numeric,0.1,0.2,competitor,target,1,4.356
10,177,perceptual,0.1,0.05,competitor,decoy,0,4.585
10,178,perceptual,0.03,0.2,target,decoy,0,2.511
10,179,perceptual,0.03,0.2,target,competitor,0,2.925
10,180,perceptual,0.1,0.2,target,competitor,0,3.229
10,181,numeric,0.03,0.2,competitor,competitor,0,7.757
10,182,perceptual,0.03,0.05,competitor,target,1,3.332
10,183,perceptual,0.1,0.05,competitor,target,1,2.637
10,184,perceptual,0.1,0.05,target,competitor,0,3.398
10,185,perceptual,0.1,0.05,competitor,target,1,3.065
10,186,numeric,0.1,0.05,target,target,1,6.376
10,187,numeric,0.1,0.2,target,target,1,4.413
10,188,perceptual,0.03,0.05,competitor,competitor,0,2.229
10,189,perceptual,0.1,0.05,target,decoy,0,4.778
10,190,perceptual,0.03,0.05,target,competitor,0,3.111
10,191,numeric,0.03,0.2,competitor,target,1,4.194
10,192,numeric,0.1,0.05,target,target,1,5.492
11,1,perceptual,0.03,0.2,target,competitor,0,5.158
11,2,perceptual,0.1,0.2,target,target,1,3.739
11,3,perceptual,0.1,0.05,target,target,1,6.486
11,4,numeric,0.1,0.2,competitor,target,1,10.978
11,5,numeric,0.1,0.2,competitor,target,1,7.43
11,6,numeric,0.1,0.2,competitor,target,1,5.768
11,7,perceptual,0.03,0.2,target,competitor,0,6.35
11,8,numeric,0.1,0.05,target,target,1,7.49
11,9,numeric,0.03,0.05,competitor,competitor,0,8.353
11,10,numeric,0.03,0.2,competitor,competitor,0,5.777
11,11,perceptual,0.03,0.05,target,target,1,6.159
11,12,perceptual,0.03,0.05,competitor,target,1,7.628
11,13,numeric,0.1,0.2,competitor,competitor,0,8.518
11,14,numeric,0.03,0.2,target,target,1,8
11,15,numeric,0.1,0.05,competitor,target,1,8.076
11,16,perceptual,0.1,0.05,competitor,target,1,4.919
11,17,perceptual,0.03,0.2,competitor,target,1,7.939
11,18,perceptual,0.1,0.05,competitor,competitor,0,6.81
11,19,numeric,0.03,0.05,target,target,1,6.208
11,20,numeric,0.1,0.05,target,target,1,7.993
11,21,perceptual,0.1,0.2,competitor,target,1,5.539
11,22,perceptual,0.1,0.2,target,target,1,6.398
11,23,numeric,0.03,0.2,competitor,target,1,15.624
11,24,numeric,0.1,0.05,target,target,1,8.003
11,25,numeric,0.03,0.05,competitor,target,1,12.208
11,26,numeric,0.03,0.05,competitor,competitor,0,10.904
11,27,perceptual,0.1,0.2,target,target,1,8.111
11,28,perceptual,0.03,0.05,target,target,1,7.76
11,29,numeric,0.1,0.2,competitor,target,1,8.128
11,30,numeric,0.1,0.2,competitor,target,1,5.639
11,31,numeric,0.03,0.05,target,target,1,9.257
11,32,numeric,0.03,0.2,target,target,1,10.635
11,33,numeric,0.1,0.05,competitor,target,1,15.963
11,34,perceptual,0.03,0.05,target,target,1,9
11,35,perceptual,0.03,0.05,target,target,1,5.57
11,36,numeric,0.03,0.05,competitor,target,1,10.646
11,37,numeric,0.03,0.2,target,target,1,14.62
11,38,perceptual,0.03,0.2,competitor,target,1,8.777
11,39,numeric,0.1,0.05,competitor,target,1,4.971
11,40,perceptual,0.03,0.2,competitor,target,1,7.038
11,41,perceptual,0.03,0.2,competitor,target,1,5.481
11,42,numeric,0.03,0.05,target,target,1,13.094
11,43,numeric,0.03,0.05,competitor,competitor,0,16.031
11,44,perceptual,0.03,0.2,target,target,1,6.552
11,45,perceptual,0.1,0.2,competitor,competitor,0,11.951
11,46,numeric,0.1,0.2,competitor,target,1,9.789
11,47,numeric,0.03,0.05,competitor,target,1,13.171
11,48,perceptual,0.03,0.05,competitor,target,1,16.596
11,49,numeric,0.1,0.05,competitor,target,1,8.444
11,50,perceptual,0.1,0.2,target,target,1,8.757
11,51,perceptual,0.1,0.05,target,target,1,9.544
11,52,numeric,0.1,0.05,target,target,1,12.577
11,53,perceptual,0.03,0.05,competitor,competitor,0,10.148
11,54,perceptual,0.1,0.2,competitor,target,1,4.218
11,55,perceptual,0.1,0.2,competitor,target,1,5.528
11,56,perceptual,0.03,0.05,competitor,competitor,0,4.771
11,57,perceptual,0.1,0.05,target,target,1,5.026
11,58,perceptual,0.1,0.2,competitor,target,1,7.31
11,59,perceptual,0.03,0.2,target,target,1,6.576
11,60,perceptual,0.1,0.05,competitor,target,1,10.096
11,61,numeric,0.03,0.2,target,competitor,0,11.905
11,62,numeric,0.03,0.05,competitor,target,1,9.625
11,63,perceptual,0.1,0.05,competitor,target,1,10.419
11,64,numeric,0.03,0.2,competitor,target,1,15.343
11,65,perceptual,0.1,0.2,competitor,target,1,8.556
11,66,numeric,0.1,0.2,target,target,1,9.753
11,67,perceptual,0.03,0.05,competitor,competitor,0,16.547
11,68,perceptual,0.03,0.2,competitor,competitor,0,7.977
11,69,perceptual,0.03,0.05,competitor,target,1,13.3
11,70,numeric,0.1,0.05,competitor,target,1,10.795
11,71,numeric,0.03,0.2,target,competitor,0,17.819
11,72,numeric,0.1,0.05,competitor,target,1,8.475
11,73,numeric,0.03,0.05,competitor,target,1,13.065
11,74,numeric,0.1,0.05,competitor,target,1,14.088
11,75,perceptual,0.1,0.2,target,target,1,9.501
11,76,numeric,0.03,0.2,target,target,1,7.275
11,77,numeric,0.1,0.2,target,target,1,9.496
11,78,numeric,0.1,0.05,competitor,target,1,7.29
11,79,perceptual,0.1,0.05,target,target,1,12.075
11,80,perceptual,0.03,0.05,target,target,1,5.439
11,81,numeric,0.03,0.05,target,competitor,0,19.594
11,82,perceptual,0.1,0.2,target,target,1,4.861
11,83,numeric,0.1,0.05,target,target,1,11.302
11,84,numeric,0.1,0.05,target,target,1,12.193
11,85,perceptual,0.03,0.05,competitor,target,1,13.251
11,86,numeric,0.03,0.05,target,competitor,0,14.594
11,87,perceptual,0.1,0.2,target,target,1,12.924
11,88,perceptual,0.03,0.05,competitor,target,1,8.77
11,89,numeric,0.1,0.05,competitor,target,1,11.306
11,90,perceptual,0.03,0.2,competitor,target,1,7.897
11,91,perceptual,0.1,0.05,target,target,1,5.806
11,92,numeric,0.03,0.05,competitor,target,1,10.224
11,93,perceptual,0.1,0.2,target,target,1,6.284
11,94,numeric,0.1,0.2,target,competitor,0,16.764
11,95,perceptual,0.1,0.05,competitor,target,1,7.908
11,96,numeric,0.1,0.2,target,target,1,10.623
11,97,perceptual,0.03,0.05,target,target,1,8.796
11,98,perceptual,0.03,0.05,target,target,1,6.276
11,99,perceptual,0.03,0.2,target,target,1,12.812
11,100,perceptual,0.03,0.05,target,target,1,11.156
11,101,numeric,0.1,0.2,competitor,competitor,0,16.764
11,102,perceptual,0.1,0.2,competitor,target,1,8.504
11,103,perceptual,0.1,0.2,competitor,target,1,7.834
11,104,numeric,0.1,0.05,target,target,1,8.179
11,105,perceptual,0.03,0.2,competitor,target,1,7.304
11,106,perceptual,0.03,0.2,competitor,target,1,6.626
11,107,numeric,0.03,0.2,competitor,target,1,11.968
11,108,numeric,0.1,0.2,competitor,target,1,12.364
11,109,numeric,0.03,0.05,target,target,1,10.89
11,110,numeric,0.03,0.2,competitor,competitor,0,9.963
11,111,numeric,0.1,0.05,competitor,target,1,8.869
11,112,numeric,0.1,0.2,target,target,1,10.046
11,113,perceptual,0.1,0.05,target,target,1,7.533
11,114,numeric,0.03,0.2,competitor,competitor,0,10.029
11,115,numeric,0.1,0.2,target,target,1,15.274
11,116,numeric,0.1,0.05,target,target,1,13.723
11,117,numeric,0.03,0.2,target,competitor,0,12.826
11,118,numeric,0.03,0.2,target,target,1,13.333
