participant,block_i,expected_length,real_length,lengthDiff,trial_i_within_block,next_wave_in,targetMeanColor,distractorMeanColor,clicked_monster_id,correct,rt
37,1,6,6,0,1,6,194,363,0,1,3605
37,1,6,6,0,2,5,194,363,0,1,1688
37,1,6,6,0,3,4,194,363,0,1,2143
37,1,6,6,0,4,3,194,363,0,1,1466
37,1,6,6,0,5,2,194,363,0,1,1976
37,1,6,6,0,6,1,194,363,0,1,1334
37,2,7,6,-1,1,0,288,471,0,1,1638.00000000001
37,2,7,6,-1,2,6,288,471,0,1,1329.99999999999
37,2,7,6,-1,3,5,288,471,0,1,1165.99999999999
37,2,7,6,-1,4,4,288,471,0,1,2218
37,2,7,6,-1,5,3,288,471,0,1,1384
37,2,7,6,-1,6,2,288,471,0,1,1290
37,3,7,8,1,1,1,88,276,0,1,1508
37,3,7,8,1,2,6,88,276,0,1,1407
37,3,7,8,1,3,5,88,276,0,1,1340
37,3,7,8,1,4,4,88,276,0,1,1273.00000000001
37,3,7,8,1,5,3,88,276,0,1,1352.00000000001
37,3,7,8,1,6,2,88,276,0,1,1022
37,3,7,8,1,7,1,88,276,0,1,1876
37,3,7,8,1,8,0,88,276,0,1,1524.99999999999
37,4,5,5,0,1,5,241,440,0,1,1707
37,4,5,5,0,2,4,241,440,0,1,1330
37,4,5,5,0,3,3,241,440,0,1,1293.99999999999
37,4,5,5,0,4,2,241,440,0,1,1397
37,4,5,5,0,5,1,241,440,0,1,1971
37,5,6,6,0,1,0,155,340,0,1,1463
37,5,6,6,0,2,5,155,340,0,1,1443
37,5,6,6,0,3,4,155,340,0,1,2302
37,5,6,6,0,4,3,155,340,0,1,1206
37,5,6,6,0,5,2,155,340,0,1,3347
37,5,6,6,0,6,1,155,340,0,1,1163
37,6,6,3,-3,1,0,47,278,0,1,1414
37,6,6,3,-3,2,5,47,278,0,1,1095
37,6,6,3,-3,3,4,47,278,0,1,1289
37,7,6,8,2,1,3,336,551,0,1,1314.00000000001
37,7,6,8,2,2,5,336,551,0,1,1213
37,7,6,8,2,3,4,336,551,0,1,1086.99999999999
37,7,6,8,2,4,3,336,551,0,1,1153.00000000001
37,7,6,8,2,5,2,336,551,0,1,1270.00000000001
37,7,6,8,2,6,1,336,551,0,1,1082
37,7,6,8,2,7,0,336,551,0,1,1265
37,7,6,8,2,8,0,336,551,0,1,1099
37,8,7,11,4,1,7,33,216,0,1,1090
37,8,7,11,4,2,6,33,216,0,1,1457
37,8,7,11,4,3,5,33,216,0,1,1007
37,8,7,11,4,4,4,33,216,0,1,1550
37,8,7,11,4,5,3,33,216,0,1,1201
37,8,7,11,4,6,2,33,216,0,1,1057
37,8,7,11,4,7,1,33,216,0,1,1864
37,8,7,11,4,8,0,33,216,0,1,1262
37,8,7,11,4,9,0,33,216,0,1,1296
37,8,7,11,4,10,0,33,216,0,1,1432
37,8,7,11,4,11,0,33,216,0,1,1118
37,9,5,5,0,1,5,49,255,0,1,1224
37,9,5,5,0,2,4,49,255,0,1,985
37,9,5,5,0,3,3,49,255,0,1,1014
37,9,5,5,0,4,2,49,255,0,1,1157
37,9,5,5,0,5,1,49,255,0,1,1340
37,10,7,7,0,1,0,48,232,0,1,1250
37,10,7,7,0,2,6,48,232,0,1,1128
37,10,7,7,0,3,5,48,232,0,1,1143
37,10,7,7,0,4,4,48,232,0,1,1213
37,10,7,7,0,5,3,48,232,0,1,1432
37,10,7,7,0,6,2,48,232,0,1,1023
37,10,7,7,0,7,1,48,232,0,1,1354
37,11,7,8,1,1,0,73,244,0,1,1329.99999999997
37,11,7,8,1,2,6,73,244,0,1,1129
37,11,7,8,1,3,5,73,244,0,1,1147
37,11,7,8,1,4,4,73,244,0,1,2294
37,11,7,8,1,5,3,73,244,0,1,1211
37,11,7,8,1,6,2,73,244,0,1,1199
37,11,7,8,1,7,1,73,244,0,1,1115
37,11,7,8,1,8,0,73,244,0,1,1291
37,12,6,6,0,1,6,298,447,0,1,1774
37,12,6,6,0,2,5,298,447,0,1,1240
37,12,6,6,0,3,4,298,447,0,1,1218
37,12,6,6,0,4,3,298,447,0,1,1067.99999999997
37,12,6,6,0,5,2,298,447,0,1,1456
37,12,6,6,0,6,1,298,447,0,1,1229
37,13,7,3,-4,1,0,243,463,0,1,1241
37,13,7,3,-4,2,6,243,463,0,1,2196
37,13,7,3,-4,3,5,243,463,0,1,1151
37,14,6,2,-4,1,4,256,454,0,1,1278
37,14,6,2,-4,2,5,256,454,0,1,1193
37,15,6,9,3,1,4,54,263,0,1,1257.00000000003
37,15,6,9,3,2,5,54,263,0,1,1058
37,15,6,9,3,3,4,54,263,0,1,1131
37,15,6,9,3,4,3,54,263,0,1,1139.00000000003
37,15,6,9,3,5,2,54,263,0,1,1161
37,15,6,9,3,6,1,54,263,0,1,1147
37,15,6,9,3,7,0,54,263,0,1,1177
37,15,6,9,3,8,0,54,263,0,1,1270
37,15,6,9,3,9,0,54,263,0,1,1099
37,16,6,6,0,1,6,16,181,0,1,1180
37,16,6,6,0,2,5,16,181,0,1,1135
37,16,6,6,0,3,4,16,181,0,1,990
37,16,6,6,0,4,3,16,181,0,1,1247
37,16,6,6,0,5,2,16,181,0,1,1257
37,16,6,6,0,6,1,16,181,0,1,1106
37,17,6,4,-2,1,0,168,327,0,1,1418
37,17,6,4,-2,2,5,168,327,0,1,1286
37,17,6,4,-2,3,4,168,327,0,1,1218
37,17,6,4,-2,4,3,168,327,0,1,1269.00000000003
37,18,5,7,2,1,2,188,369,0,1,1239.99999999997
37,18,5,7,2,2,4,188,369,0,1,1191.99999999997
37,18,5,7,2,3,3,188,369,0,1,1162
37,18,5,7,2,4,2,188,369,0,1,1311
37,18,5,7,2,5,1,188,369,0,1,1215
37,18,5,7,2,6,0,188,369,0,1,1130.00000000003
37,18,5,7,2,7,0,188,369,0,1,1221
37,19,7,9,2,1,7,309,457,0,1,1915.00000000003
37,19,7,9,2,2,6,309,457,0,1,1209.99999999997
37,19,7,9,2,3,5,309,457,0,1,1539
37,19,7,9,2,4,4,309,457,0,1,1208
37,19,7,9,2,5,3,309,457,0,1,1108
37,19,7,9,2,6,2,309,457,0,1,1215.99999999997
37,19,7,9,2,7,1,309,457,0,1,1388.99999999997
37,19,7,9,2,8,0,309,457,0,1,1264
37,19,7,9,2,9,0,309,457,0,1,1141
37,20,7,7,0,1,7,192,393,0,1,1357.00000000003
37,20,7,7,0,2,6,192,393,0,1,1363
37,20,7,7,0,3,5,192,393,0,1,1333.00000000003
37,20,7,7,0,4,4,192,393,0,1,937.999999999971
37,20,7,7,0,5,3,192,393,0,1,991
37,20,7,7,0,6,2,192,393,0,1,1156
37,20,7,7,0,7,1,192,393,0,1,1045.00000000006
37,21,7,10,3,1,0,53,284,0,1,1248
37,21,7,10,3,2,6,53,284,0,1,1273
37,21,7,10,3,3,5,53,284,0,1,1160
37,21,7,10,3,4,4,53,284,0,1,1469
37,21,7,10,3,5,3,53,284,0,1,1157.00000000006
37,21,7,10,3,6,2,53,284,0,1,1931
37,21,7,10,3,7,1,53,284,0,1,1146
37,21,7,10,3,8,0,53,284,0,1,1176
37,21,7,10,3,9,0,53,284,0,1,1253
37,21,7,10,3,10,0,53,284,0,1,1178
37,22,6,3,-3,1,6,150,310,0,1,1504
37,22,6,3,-3,2,5,150,310,0,1,1822
37,22,6,3,-3,3,4,150,310,0,1,1298.99999999994
37,23,7,4,-3,1,3,150,328,0,1,2039
37,23,7,4,-3,2,6,150,328,0,1,1253
37,23,7,4,-3,3,5,150,328,0,1,1117
37,23,7,4,-3,4,4,150,328,0,1,1148
37,24,7,11,4,1,3,266,500,0,1,1306
37,24,7,11,4,2,6,266,500,0,1,1793
37,24,7,11,4,3,5,266,500,0,1,1181
37,24,7,11,4,4,4,266,500,0,1,1321
37,24,7,11,4,5,3,266,500,0,1,945
37,24,7,11,4,6,2,266,500,0,1,1095
37,24,7,11,4,7,1,266,500,0,1,1142
37,24,7,11,4,8,0,266,500,0,1,1294
37,24,7,11,4,9,0,266,500,0,1,1230.00000000006
37,24,7,11,4,10,0,266,500,0,1,1164
37,24,7,11,4,11,0,266,500,0,1,1064
37,25,7,7,0,1,7,139,299,0,1,1402
37,25,7,7,0,2,6,139,299,0,1,1359
37,25,7,7,0,3,5,139,299,0,1,1241
37,25,7,7,0,4,4,139,299,0,1,1171
37,25,7,7,0,5,3,139,299,0,1,2034
37,25,7,7,0,6,2,139,299,0,1,1073
37,25,7,7,0,7,1,139,299,0,1,977
37,26,5,6,1,1,0,272,500,0,1,1327
37,26,5,6,1,2,4,272,500,0,1,1324
37,26,5,6,1,3,3,272,500,0,1,1360.99999999994
37,26,5,6,1,4,2,272,500,0,1,1568
37,26,5,6,1,5,1,272,500,0,1,1381.99999999994
37,26,5,6,1,6,0,272,500,0,1,1423
37,27,6,6,0,1,6,185,350,0,1,1531
37,27,6,6,0,2,5,185,350,0,1,1736
37,27,6,6,0,3,4,185,350,0,1,1405.99999999994
37,27,6,6,0,4,3,185,350,0,1,1348
37,27,6,6,0,5,2,185,350,0,1,2474
37,27,6,6,0,6,1,185,350,0,1,1468.99999999994
37,28,5,5,0,1,0,117,314,0,1,1434.00000000006
37,28,5,5,0,2,4,117,314,0,1,1509
37,28,5,5,0,3,3,117,314,0,1,1430
37,28,5,5,0,4,2,117,314,0,1,2169.00000000006
37,28,5,5,0,5,1,117,314,0,1,1389
37,29,6,6,0,1,0,167,355,0,1,1595
37,29,6,6,0,2,5,167,355,0,1,1461
37,29,6,6,0,3,4,167,355,0,1,1310
37,29,6,6,0,4,3,167,355,0,1,1451
37,29,6,6,0,5,2,167,355,0,1,1365
37,29,6,6,0,6,1,167,355,0,1,1540
37,30,6,2,-4,1,0,108,285,0,1,1303
37,30,6,2,-4,2,5,108,285,0,1,1512
37,31,7,7,0,1,4,289,504,0,1,1512
37,31,7,7,0,2,6,289,504,0,1,1269.00000000006
37,31,7,7,0,3,5,289,504,0,1,1591
37,31,7,7,0,4,4,289,504,0,1,1268.00000000006
37,31,7,7,0,5,3,289,504,0,1,1249
37,31,7,7,0,6,2,289,504,0,1,1613
37,31,7,7,0,7,1,289,504,0,1,1392.00000000006
37,32,6,6,0,1,0,338,566,0,1,1482
37,32,6,6,0,2,5,338,566,0,1,1579
37,32,6,6,0,3,4,338,566,0,1,1313
37,32,6,6,0,4,3,338,566,0,1,1469
37,32,6,6,0,5,2,338,566,0,1,1463
37,32,6,6,0,6,1,338,566,0,1,1200
37,33,5,8,3,1,0,267,460,0,1,1572
37,33,5,8,3,2,4,267,460,0,1,1352
37,33,5,8,3,3,3,267,460,0,1,1330
37,33,5,8,3,4,2,267,460,0,1,1193
37,33,5,8,3,5,1,267,460,0,1,1370.99999999994
37,33,5,8,3,6,0,267,460,0,1,1399
37,33,5,8,3,7,0,267,460,0,1,1420
37,33,5,8,3,8,0,267,460,0,1,1327.99999999994
37,34,7,7,0,1,7,186,413,0,1,1275.00000000006
37,34,7,7,0,2,6,186,413,0,1,1340
37,34,7,7,0,3,5,186,413,0,1,1348
37,34,7,7,0,4,4,186,413,0,1,1390
37,34,7,7,0,5,3,186,413,0,1,1436
37,34,7,7,0,6,2,186,413,0,1,1235
37,34,7,7,0,7,1,186,413,0,1,1422
37,35,5,1,-4,1,0,38,255,0,1,2024.99999999994
37,36,7,7,0,1,7,147,323,0,1,1412
37,36,7,7,0,2,6,147,323,0,1,2184.00000000006
37,36,7,7,0,3,5,147,323,0,1,1128.00000000006
37,36,7,7,0,4,4,147,323,0,1,1214
37,36,7,7,0,5,3,147,323,0,1,1161
37,36,7,7,0,6,2,147,323,0,1,1163
37,36,7,7,0,7,1,147,323,0,1,1425
37,37,5,5,0,1,0,165,388,0,1,1176.00000000006
37,37,5,5,0,2,4,165,388,0,1,1036
37,37,5,5,0,3,3,165,388,0,1,1183
37,37,5,5,0,4,2,165,388,0,1,1014
37,37,5,5,0,5,1,165,388,0,1,1297
37,38,6,4,-2,1,0,111,300,0,1,1454.00000000006
37,38,6,4,-2,2,5,111,300,0,1,1392.99999999994
37,38,6,4,-2,3,4,111,300,0,1,1263.99999999994
37,38,6,4,-2,4,3,111,300,0,1,1394
37,39,6,5,-1,1,2,120,276,0,1,1432
37,39,6,5,-1,2,5,120,276,0,1,1278
37,39,6,5,-1,3,4,120,276,0,1,1326.99999999994
37,39,6,5,-1,4,3,120,276,0,1,1440
37,39,6,5,-1,5,2,120,276,0,1,1456
37,40,5,5,0,1,1,9,179,0,1,1384.99999999994
37,40,5,5,0,2,4,9,179,0,1,1350.00000000006
37,40,5,5,0,3,3,9,179,0,1,1522
37,40,5,5,0,4,2,9,179,0,1,1338
37,40,5,5,0,5,1,9,179,0,1,1434
37,41,7,7,0,1,0,247,415,0,1,1400
37,41,7,7,0,2,6,247,415,0,1,1165
37,41,7,7,0,3,5,247,415,0,1,1274
37,41,7,7,0,4,4,247,415,0,1,1195
37,41,7,7,0,5,3,247,415,0,1,1524
37,41,7,7,0,6,2,247,415,0,1,1396
37,41,7,7,0,7,1,247,415,0,1,1307.99999999994
37,42,6,8,2,1,0,349,549,0,1,1606
37,42,6,8,2,2,5,349,549,0,1,1386
37,42,6,8,2,3,4,349,549,0,1,1556.99999999994
37,42,6,8,2,4,3,349,549,0,1,1202
37,42,6,8,2,5,2,349,549,0,1,1408
37,42,6,8,2,6,1,349,549,0,1,1202
37,42,6,8,2,7,0,349,549,0,1,3348
37,42,6,8,2,8,0,349,549,0,1,1269.99999999994
37,43,5,3,-2,1,5,159,353,0,1,1368
37,43,5,3,-2,2,4,159,353,0,1,1351
37,43,5,3,-2,3,3,159,353,0,1,1481
37,44,7,7,0,1,2,17,221,0,1,1466.99999999994
37,44,7,7,0,2,6,17,221,0,1,1364.99999999994
37,44,7,7,0,3,5,17,221,0,1,1247
37,44,7,7,0,4,4,17,221,0,1,1330
37,44,7,7,0,5,3,17,221,0,1,1794
37,44,7,7,0,6,2,17,221,0,1,1347
37,44,7,7,0,7,1,17,221,0,1,1351.99999999994
37,45,6,9,3,1,0,9,170,0,1,1375
37,45,6,9,3,2,5,9,170,0,1,1272.99999999994
37,45,6,9,3,3,4,9,170,0,1,1322
37,45,6,9,3,4,3,9,170,0,1,1451.00000000006
37,45,6,9,3,5,2,9,170,0,1,1304
37,45,6,9,3,6,1,9,170,0,1,1258
37,45,6,9,3,7,0,9,170,0,1,1331.99999999994
37,45,6,9,3,8,0,9,170,0,1,1146
37,45,6,9,3,9,0,9,170,0,1,2305
37,46,7,7,0,1,7,298,473,0,1,1507
37,46,7,7,0,2,6,298,473,0,1,1487
37,46,7,7,0,3,5,298,473,0,1,1401
37,46,7,7,0,4,4,298,473,0,1,1345
37,46,7,7,0,5,3,298,473,0,1,1135
37,46,7,7,0,6,2,298,473,0,1,1418
37,46,7,7,0,7,1,298,473,0,1,1325
37,47,5,7,2,1,0,179,395,0,1,1410.00000000006
37,47,5,7,2,2,4,179,395,0,1,1390.00000000006
37,47,5,7,2,3,3,179,395,0,1,1439
37,47,5,7,2,4,2,179,395,0,1,1418.00000000006
37,47,5,7,2,5,1,179,395,0,1,1205
37,47,5,7,2,6,0,179,395,0,1,1494
37,47,5,7,2,7,0,179,395,0,1,1231
37,48,5,5,0,1,5,334,544,0,1,1582.00000000006
37,48,5,5,0,2,4,334,544,0,1,1164.00000000006
37,48,5,5,0,3,3,334,544,0,1,1646.00000000012
37,48,5,5,0,4,2,334,544,0,1,1449.99999999994
37,48,5,5,0,5,1,334,544,0,1,1200.00000000006
37,49,6,6,0,1,0,54,232,0,1,1329
37,49,6,6,0,2,5,54,232,0,1,1428
37,49,6,6,0,3,4,54,232,0,1,1326
37,49,6,6,0,4,3,54,232,0,1,1206.00000000012
37,49,6,6,0,5,2,54,232,0,1,2073
37,49,6,6,0,6,1,54,232,0,1,1435.00000000012
37,50,5,5,0,1,0,66,244,0,1,1432
37,50,5,5,0,2,4,66,244,0,1,1487
37,50,5,5,0,3,3,66,244,0,1,1409
37,50,5,5,0,4,2,66,244,0,1,1272
37,50,5,5,0,5,1,66,244,0,1,1281
37,51,5,5,0,1,0,7,160,0,1,1383
37,51,5,5,0,2,4,7,160,0,1,1317
37,51,5,5,0,3,3,7,160,0,1,1337.00000000012
37,51,5,5,0,4,2,7,160,0,1,1474
37,51,5,5,0,5,1,7,160,0,1,1308.99999999988
37,52,6,10,4,1,0,8,194,0,1,1318
37,52,6,10,4,2,5,8,194,0,1,1326
37,52,6,10,4,3,4,8,194,0,1,1144
37,52,6,10,4,4,3,8,194,0,1,1287
37,52,6,10,4,5,2,8,194,0,1,1226
37,52,6,10,4,6,1,8,194,0,1,1311
37,52,6,10,4,7,0,8,194,0,1,1307
37,52,6,10,4,8,0,8,194,0,1,1315
37,52,6,10,4,9,0,8,194,0,1,1154
37,52,6,10,4,10,0,8,194,0,1,1309.00000000012
37,53,5,5,0,1,5,70,297,0,1,1445
37,53,5,5,0,2,4,70,297,0,1,1259
37,53,5,5,0,3,3,70,297,0,1,1501.00000000012
37,53,5,5,0,4,2,70,297,0,1,1388
37,53,5,5,0,5,1,70,297,0,1,1328
37,54,6,6,0,1,0,284,456,0,1,1303
37,54,6,6,0,2,5,284,456,0,1,2327.99999999988
37,54,6,6,0,3,4,284,456,0,1,1207
37,54,6,6,0,4,3,284,456,0,1,1424
37,54,6,6,0,5,2,284,456,0,1,1161.00000000012
37,54,6,6,0,6,1,284,456,0,1,1360.00000000012
37,55,6,7,1,1,0,77,297,0,1,1410
37,55,6,7,1,2,5,77,297,0,1,1214
37,55,6,7,1,3,4,77,297,0,1,1217.00000000012
37,55,6,7,1,4,3,77,297,0,1,1220
37,55,6,7,1,5,2,77,297,0,1,1338
37,55,6,7,1,6,1,77,297,0,1,1144
37,55,6,7,1,7,0,77,297,0,1,1408
37,56,7,5,-2,1,7,125,357,0,1,1248
37,56,7,5,-2,2,6,125,357,0,1,1322
37,56,7,5,-2,3,5,125,357,0,1,1282
37,56,7,5,-2,4,4,125,357,0,1,2187.00000000012
37,56,7,5,-2,5,3,125,357,0,1,1295
37,57,6,5,-1,1,2,350,521,0,1,1677.99999999988
37,57,6,5,-1,2,5,350,521,0,1,1255
37,57,6,5,-1,3,4,350,521,0,1,1281.00000000012
37,57,6,5,-1,4,3,350,521,0,1,1600
37,57,6,5,-1,5,2,350,521,0,1,1212.99999999988
37,58,7,7,0,1,1,192,416,0,1,1338
37,58,7,7,0,2,6,192,416,0,1,1329.99999999988
37,58,7,7,0,3,5,192,416,0,1,1370.99999999988
37,58,7,7,0,4,4,192,416,0,1,2428
37,58,7,7,0,5,3,192,416,0,1,1275.99999999988
37,58,7,7,0,6,2,192,416,0,1,1334
37,58,7,7,0,7,1,192,416,0,1,1318.00000000012
37,59,5,2,-3,1,0,184,351,0,1,1328
37,59,5,2,-3,2,4,184,351,0,1,1447
37,60,5,4,-1,1,3,137,335,0,1,1335
37,60,5,4,-1,2,4,137,335,0,1,1357.99999999988
37,60,5,4,-1,3,3,137,335,0,1,1196.00000000012
37,60,5,4,-1,4,2,137,335,0,1,1264
37,61,6,10,4,1,1,10,232,0,1,1350
37,61,6,10,4,2,5,10,232,0,1,1509.99999999988
37,61,6,10,4,3,4,10,232,0,1,1298
37,61,6,10,4,4,3,10,232,0,1,1514
37,61,6,10,4,5,2,10,232,0,1,1435.99999999988
37,61,6,10,4,6,1,10,232,0,1,1282
37,61,6,10,4,7,0,10,232,0,1,1396
37,61,6,10,4,8,0,10,232,0,1,1231
37,61,6,10,4,9,0,10,232,0,1,1239
37,61,6,10,4,10,0,10,232,0,1,1272
37,62,6,6,0,1,6,225,443,0,1,1298
37,62,6,6,0,2,5,225,443,0,1,1250
37,62,6,6,0,3,4,225,443,0,1,1206
37,62,6,6,0,4,3,225,443,0,1,1467
37,62,6,6,0,5,2,225,443,0,1,1538
37,62,6,6,0,6,1,225,443,0,1,1346
37,63,5,3,-2,1,0,254,489,0,1,1400
37,63,5,3,-2,2,4,254,489,0,1,1602.00000000012
37,63,5,3,-2,3,3,254,489,0,1,1471
37,64,7,5,-2,1,2,63,284,0,1,1819
37,64,7,5,-2,2,6,63,284,0,1,1508
37,64,7,5,-2,3,5,63,284,0,1,1323
37,64,7,5,-2,4,4,63,284,0,1,1235
37,64,7,5,-2,5,3,63,284,0,1,1395
37,65,5,8,3,1,2,68,292,0,1,1337
37,65,5,8,3,2,4,68,292,0,1,1209
37,65,5,8,3,3,3,68,292,0,1,1389
37,65,5,8,3,4,2,68,292,0,1,1238
37,65,5,8,3,5,1,68,292,0,1,1304
37,65,5,8,3,6,0,68,292,0,1,2312
37,65,5,8,3,7,0,68,292,0,1,1426
37,65,5,8,3,8,0,68,292,0,1,1219
37,66,7,7,0,1,7,334,517,0,1,1364
37,66,7,7,0,2,6,334,517,0,1,1177
37,66,7,7,0,3,5,334,517,0,1,1342
37,66,7,7,0,4,4,334,517,0,1,1248
37,66,7,7,0,5,3,334,517,0,1,1292
37,66,7,7,0,6,2,334,517,0,1,1228
37,66,7,7,0,7,1,334,517,0,1,1323
37,67,7,7,0,1,0,246,475,0,1,1355
37,67,7,7,0,2,6,246,475,0,1,1360
37,67,7,7,0,3,5,246,475,0,1,1159.00000000012
37,67,7,7,0,4,4,246,475,0,1,1239
37,67,7,7,0,5,3,246,475,0,1,1393
37,67,7,7,0,6,2,246,475,0,1,1234
37,67,7,7,0,7,1,246,475,0,1,2200
37,68,5,5,0,1,0,184,389,0,1,1364.00000000012
37,68,5,5,0,2,4,184,389,0,1,1544
37,68,5,5,0,3,3,184,389,0,1,1398
37,68,5,5,0,4,2,184,389,0,1,1235
37,68,5,5,0,5,1,184,389,0,1,1361.00000000012
37,69,7,7,0,1,0,3,174,0,1,1473
37,69,7,7,0,2,6,3,174,0,1,1269
37,69,7,7,0,3,5,3,174,0,1,1255
37,69,7,7,0,4,4,3,174,0,1,1161
37,69,7,7,0,5,3,3,174,0,1,1491
37,69,7,7,0,6,2,3,174,0,1,1685
37,69,7,7,0,7,1,3,174,0,1,1302
37,70,5,5,0,1,0,145,318,0,1,1473
37,70,5,5,0,2,4,145,318,0,1,1243.00000000012
37,70,5,5,0,3,3,145,318,0,1,1285
37,70,5,5,0,4,2,145,318,0,1,1563
37,70,5,5,0,5,1,145,318,0,1,1892
37,71,5,9,4,1,0,315,469,0,1,1488
37,71,5,9,4,2,4,315,469,0,1,2423
37,71,5,9,4,3,3,315,469,0,1,1519
37,71,5,9,4,4,2,315,469,0,1,1391
37,71,5,9,4,5,1,315,469,0,1,1395.00000000012
37,71,5,9,4,6,0,315,469,0,1,1229
37,71,5,9,4,7,0,315,469,0,1,1947
37,71,5,9,4,8,0,315,469,0,1,1443
37,71,5,9,4,9,0,315,469,0,1,1199.00000000012
37,72,7,6,-1,1,7,337,494,0,1,1331
37,72,7,6,-1,2,6,337,494,0,1,1596
37,72,7,6,-1,3,5,337,494,0,1,1406.00000000012
37,72,7,6,-1,4,4,337,494,0,1,1249.00000000012
37,72,7,6,-1,5,3,337,494,0,1,1609
37,72,7,6,-1,6,2,337,494,0,1,1358
37,73,5,1,-4,1,1,261,487,0,1,1371.99999999988
37,74,5,5,0,1,0,296,470,0,1,1261.00000000012
37,74,5,5,0,2,4,296,470,0,1,1425
37,74,5,5,0,3,3,296,470,0,1,1941
37,74,5,5,0,4,2,296,470,0,1,1273
37,74,5,5,0,5,1,296,470,0,1,1408
37,75,5,4,-1,1,0,285,441,0,1,1277
37,75,5,4,-1,2,4,285,441,0,1,1516
37,75,5,4,-1,3,3,285,441,0,1,1154
37,75,5,4,-1,4,2,285,441,0,1,1257
37,76,6,6,0,1,1,258,466,0,1,2741
37,76,6,6,0,2,5,258,466,0,1,1396.99999999988
37,76,6,6,0,3,4,258,466,0,1,1341
37,76,6,6,0,4,3,258,466,0,1,1243
37,76,6,6,0,5,2,258,466,0,1,1317.99999999988
37,76,6,6,0,6,1,258,466,0,1,1619
37,77,7,4,-3,1,0,149,370,0,1,1463
37,77,7,4,-3,2,6,149,370,0,1,1333
37,77,7,4,-3,3,5,149,370,0,1,1404
37,77,7,4,-3,4,4,149,370,0,1,1319
37,78,7,7,0,1,3,0,230,0,1,1725
37,78,7,7,0,2,6,0,230,0,1,1389.99999999988
37,78,7,7,0,3,5,0,230,0,1,1250
37,78,7,7,0,4,4,0,230,0,1,1280
37,78,7,7,0,5,3,0,230,0,1,1265
37,78,7,7,0,6,2,0,230,0,1,1362
37,78,7,7,0,7,1,0,230,0,1,1462
37,79,6,6,0,1,0,329,527,0,1,1352
37,79,6,6,0,2,5,329,527,0,1,1204.99999999988
37,79,6,6,0,3,4,329,527,0,1,1276.99999999988
37,79,6,6,0,4,3,329,527,0,1,1142
37,79,6,6,0,5,2,329,527,0,1,1221
37,79,6,6,0,6,1,329,527,0,1,1391
37,80,6,6,0,1,0,281,479,0,1,1361
37,80,6,6,0,2,5,281,479,0,1,1264
37,80,6,6,0,3,4,281,479,0,1,1344
37,80,6,6,0,4,3,281,479,0,1,1144
37,80,6,6,0,5,2,281,479,0,1,1341.00000000012
37,80,6,6,0,6,1,281,479,0,1,1227.00000000012
37,81,5,9,4,1,0,133,365,0,1,1989.00000000012
37,81,5,9,4,2,4,133,365,0,1,1356
37,81,5,9,4,3,3,133,365,0,1,1206
37,81,5,9,4,4,2,133,365,0,1,1125
37,81,5,9,4,5,1,133,365,0,1,1179
37,81,5,9,4,6,0,133,365,0,1,1930
37,81,5,9,4,7,0,133,365,0,1,1178
37,81,5,9,4,8,0,133,365,0,1,1237
37,81,5,9,4,9,0,133,365,0,1,1079
37,82,7,7,0,1,7,14,169,0,1,1222.99999999988
37,82,7,7,0,2,6,14,169,0,1,1275.99999999988
37,82,7,7,0,3,5,14,169,0,1,1437
37,82,7,7,0,4,4,14,169,0,1,1420
37,82,7,7,0,5,3,14,169,0,1,2259
37,82,7,7,0,6,2,14,169,0,1,1051
37,82,7,7,0,7,1,14,169,0,1,1128
37,83,7,3,-4,1,0,16,215,0,1,1196
37,83,7,3,-4,2,6,16,215,0,1,1295
37,83,7,3,-4,3,5,16,215,0,1,1159
37,84,5,5,0,1,4,33,203,0,1,1873.99999999988
37,84,5,5,0,2,4,33,203,0,1,1171.00000000012
37,84,5,5,0,3,3,33,203,0,1,957
37,84,5,5,0,4,2,33,203,0,1,996
37,84,5,5,0,5,1,33,203,0,1,1102
37,85,7,7,0,1,0,52,286,0,1,1310
37,85,7,7,0,2,6,52,286,0,1,1068
37,85,7,7,0,3,5,52,286,0,1,1101
37,85,7,7,0,4,4,52,286,0,1,1075
37,85,7,7,0,5,3,52,286,0,1,1142.99999999988
37,85,7,7,0,6,2,52,286,0,1,1077
37,85,7,7,0,7,1,52,286,0,1,1156
37,86,5,5,0,1,0,198,414,0,1,1289
37,86,5,5,0,2,4,198,414,0,1,1702
37,86,5,5,0,3,3,198,414,0,1,1132.99999999988
37,86,5,5,0,4,2,198,414,0,1,1131
37,86,5,5,0,5,1,198,414,0,1,1133
37,87,5,5,0,1,0,146,369,0,1,944
37,87,5,5,0,2,4,146,369,0,1,1029
37,87,5,5,0,3,3,146,369,0,1,919
37,87,5,5,0,4,2,146,369,0,1,1000
37,87,5,5,0,5,1,146,369,0,1,1033.99999999988
37,88,7,10,3,1,0,220,454,0,1,1130.99999999988
37,88,7,10,3,2,6,220,454,0,1,1058
37,88,7,10,3,3,5,220,454,0,1,1073
37,88,7,10,3,4,4,220,454,0,1,1057
37,88,7,10,3,5,3,220,454,0,1,1021
37,88,7,10,3,6,2,220,454,0,1,1712.99999999988
37,88,7,10,3,7,1,220,454,0,1,1160
37,88,7,10,3,8,0,220,454,0,1,1722
37,88,7,10,3,9,0,220,454,0,1,1135.99999999988
37,88,7,10,3,10,0,220,454,0,1,1035.99999999988
37,89,6,6,0,1,6,235,446,0,1,1230.00000000012
37,89,6,6,0,2,5,235,446,0,1,1076.00000000012
37,89,6,6,0,3,4,235,446,0,1,1209.99999999988
37,89,6,6,0,4,3,235,446,0,1,1816
37,89,6,6,0,5,2,235,446,0,1,1122
37,89,6,6,0,6,1,235,446,0,1,1253
37,90,5,2,-3,1,0,27,193,0,1,1188
37,90,5,2,-3,2,4,27,193,0,1,1063
37,91,6,7,1,1,3,200,399,0,1,1387.99999999988
37,91,6,7,1,2,5,200,399,0,1,1111.99999999988
37,91,6,7,1,3,4,200,399,0,1,1399
37,91,6,7,1,4,3,200,399,0,1,1121
37,91,6,7,1,5,2,200,399,0,1,1045.99999999988
37,91,6,7,1,6,1,200,399,0,1,1333
37,91,6,7,1,7,0,200,399,0,1,1154
37,92,6,6,0,1,6,52,225,0,1,1021.99999999988
37,92,6,6,0,2,5,52,225,0,1,1136
37,92,6,6,0,3,4,52,225,0,1,1169
37,92,6,6,0,4,3,52,225,0,1,1060
37,92,6,6,0,5,2,52,225,0,1,1161.99999999988
37,92,6,6,0,6,1,52,225,0,1,1071.00000000012
37,93,5,6,1,1,0,51,209,0,1,1079
37,93,5,6,1,2,4,51,209,0,1,1183
37,93,5,6,1,3,3,51,209,0,1,1158
37,93,5,6,1,4,2,51,209,0,1,1017
37,93,5,6,1,5,1,51,209,0,1,1092.00000000012
37,93,5,6,1,6,0,51,209,0,1,1974
37,94,5,5,0,1,5,24,169,0,1,1285.99999999988
37,94,5,5,0,2,4,24,169,0,1,1157.00000000012
37,94,5,5,0,3,3,24,169,0,1,1057
37,94,5,5,0,4,2,24,169,0,1,1321
37,94,5,5,0,5,1,24,169,0,1,1534
37,95,6,6,0,1,0,151,331,0,1,1122.99999999988
37,95,6,6,0,2,5,151,331,0,1,1000
37,95,6,6,0,3,4,151,331,0,1,1689
37,95,6,6,0,4,3,151,331,0,1,1256
37,95,6,6,0,5,2,151,331,0,1,1120
37,95,6,6,0,6,1,151,331,0,1,955.000000000116
37,96,7,9,2,1,0,139,372,0,1,1124.00000000012
37,96,7,9,2,2,6,139,372,0,1,1075
37,96,7,9,2,3,5,139,372,0,1,1186
37,96,7,9,2,4,4,139,372,0,1,1110
37,96,7,9,2,5,3,139,372,0,1,1075
37,96,7,9,2,6,2,139,372,0,1,1223
37,96,7,9,2,7,1,139,372,0,1,1024
37,96,7,9,2,8,0,139,372,0,1,1235
37,96,7,9,2,9,0,139,372,0,1,1176
3,1,6,6,0,1,6,327,490,0,1,1896
3,1,6,6,0,2,5,327,490,0,1,1613
3,1,6,6,0,3,4,327,490,0,1,1437.99999999999
3,1,6,6,0,4,3,327,490,0,1,1340.00000000001
3,1,6,6,0,5,2,327,490,0,1,1539.00000000001
3,1,6,6,0,6,1,327,490,0,1,1471
3,2,7,11,4,1,0,267,444,0,1,1589
3,2,7,11,4,2,6,267,444,0,1,1224
3,2,7,11,4,3,5,267,444,0,1,1537
3,2,7,11,4,4,4,267,444,0,1,1307
3,2,7,11,4,5,3,267,444,0,1,1354
3,2,7,11,4,6,2,267,444,0,1,1254
3,2,7,11,4,7,1,267,444,0,1,1323.00000000001
3,2,7,11,4,8,0,267,444,0,1,1443
3,2,7,11,4,9,0,267,444,0,1,1323.99999999999
3,2,7,11,4,10,0,267,444,0,1,1239.00000000001
3,2,7,11,4,11,0,267,444,0,1,1225
3,3,5,5,0,1,5,257,469,0,1,1504
3,3,5,5,0,2,4,257,469,0,1,1223
3,3,5,5,0,3,3,257,469,0,1,1357
3,3,5,5,0,4,2,257,469,0,1,1189.99999999999
3,3,5,5,0,5,1,257,469,0,1,1407
3,4,7,7,0,1,0,29,181,0,1,1424
3,4,7,7,0,2,6,29,181,0,1,1240.00000000001
3,4,7,7,0,3,5,29,181,0,1,1140.00000000001
3,4,7,7,0,4,4,29,181,0,1,1342
3,4,7,7,0,5,3,29,181,0,1,1157.00000000001
3,4,7,7,0,6,2,29,181,0,1,1173
3,4,7,7,0,7,1,29,181,0,1,1406.99999999999
3,5,7,7,0,1,0,134,282,0,1,1542
3,5,7,7,0,2,6,134,282,0,1,1140
3,5,7,7,0,3,5,134,282,0,1,1106
3,5,7,7,0,4,4,134,282,0,1,1173
3,5,7,7,0,5,3,134,282,0,1,1224
3,5,7,7,0,6,2,134,282,0,1,1123.00000000001
3,5,7,7,0,7,1,134,282,0,1,1291.00000000004
3,6,5,5,0,1,0,55,236,0,1,1321
3,6,5,5,0,2,4,55,236,0,1,1240.00000000003
3,6,5,5,0,3,3,55,236,0,1,1190
3,6,5,5,0,4,2,55,236,0,1,1209.99999999997
3,6,5,5,0,5,1,55,236,0,1,1175
3,7,5,8,3,1,0,316,496,0,1,1224
3,7,5,8,3,2,4,316,496,0,1,1307
3,7,5,8,3,3,3,316,496,0,1,1209
3,7,5,8,3,4,2,316,496,0,1,1191
3,7,5,8,3,5,1,316,496,0,1,1306
3,7,5,8,3,6,0,316,496,0,1,1174
3,7,5,8,3,7,0,316,496,0,1,1191
3,7,5,8,3,8,0,316,496,0,1,1890.99999999997
3,8,6,10,4,1,6,358,549,0,1,1608
3,8,6,10,4,2,5,358,549,0,1,1173
3,8,6,10,4,3,4,358,549,0,1,1908
3,8,6,10,4,4,3,358,549,0,1,1288
3,8,6,10,4,5,2,358,549,0,1,1324
3,8,6,10,4,6,1,358,549,0,1,1242
3,8,6,10,4,7,0,358,549,0,1,1457
3,8,6,10,4,8,0,358,549,0,1,1191
3,8,6,10,4,9,0,358,549,0,1,1790
3,8,6,10,4,10,0,358,549,0,1,1393
3,9,5,6,1,1,5,289,501,0,1,1193
3,9,5,6,1,2,4,289,501,0,1,1206
3,9,5,6,1,3,3,289,501,0,1,1271.99999999997
3,9,5,6,1,4,2,289,501,0,1,1756
3,9,5,6,1,5,1,289,501,0,1,1193
3,9,5,6,1,6,0,289,501,0,1,2907
3,10,5,5,0,1,5,333,545,0,1,1556
3,10,5,5,0,2,4,333,545,0,1,1141
3,10,5,5,0,3,3,333,545,0,1,1142
3,10,5,5,0,4,2,333,545,0,1,1438
3,10,5,5,0,5,1,333,545,0,1,1358
3,11,6,7,1,1,0,150,302,0,1,1441.00000000003
3,11,6,7,1,2,5,150,302,0,1,1442
3,11,6,7,1,3,4,150,302,0,1,1225.00000000003
3,11,6,7,1,4,3,150,302,0,1,1305
3,11,6,7,1,5,2,150,302,0,1,1292
3,11,6,7,1,6,1,150,302,0,1,1243
3,11,6,7,1,7,0,150,302,0,1,1259
3,12,6,6,0,1,6,351,530,0,1,1158
3,12,6,6,0,2,5,351,530,0,1,1210
3,12,6,6,0,3,4,351,530,0,1,1143
3,12,6,6,0,4,3,351,530,0,1,1176
3,12,6,6,0,5,2,351,530,0,1,1179
3,12,6,6,0,6,1,351,530,0,1,1139
3,13,6,5,-1,1,0,208,407,0,1,1276.00000000003
3,13,6,5,-1,2,5,208,407,0,1,1392
3,13,6,5,-1,3,4,208,407,0,1,1292
3,13,6,5,-1,4,3,208,407,0,1,1126
3,13,6,5,-1,5,2,208,407,0,1,1377
3,14,7,10,3,1,1,182,340,0,1,1261
3,14,7,10,3,2,6,182,340,0,1,1307.00000000003
3,14,7,10,3,3,5,182,340,0,1,1275
3,14,7,10,3,4,4,182,340,0,1,1292.99999999997
3,14,7,10,3,5,3,182,340,0,1,1275.99999999997
3,14,7,10,3,6,2,182,340,0,1,1276
3,14,7,10,3,7,1,182,340,0,1,1293
3,14,7,10,3,8,0,182,340,0,1,1344
3,14,7,10,3,9,0,182,340,0,1,1308
3,14,7,10,3,10,0,182,340,0,1,1256
3,15,5,8,3,1,5,172,379,0,1,1527.99999999997
3,15,5,8,3,2,4,172,379,0,1,1326
3,15,5,8,3,3,3,172,379,0,1,1307.99999999997
3,15,5,8,3,4,2,172,379,0,1,1343
3,15,5,8,3,5,1,172,379,0,1,1374
3,15,5,8,3,6,0,172,379,0,1,1192
3,15,5,8,3,7,0,172,379,0,1,1644
3,15,5,8,3,8,0,172,379,0,1,1193
3,16,6,6,0,1,6,256,406,0,1,1309
3,16,6,6,0,2,5,256,406,0,1,1474
3,16,6,6,0,3,4,256,406,0,1,1241.99999999997
3,16,6,6,0,4,3,256,406,0,1,1094
3,16,6,6,0,5,2,256,406,0,1,1460.00000000003
3,16,6,6,0,6,1,256,406,0,1,1210
3,17,7,7,0,1,0,41,254,0,1,2818.99999999997
3,17,7,7,0,2,6,41,254,0,1,1193
3,17,7,7,0,3,5,41,254,0,1,1208
3,17,7,7,0,4,4,41,254,0,1,1161
3,17,7,7,0,5,3,41,254,0,1,1143
3,17,7,7,0,6,2,41,254,0,1,1144.00000000003
3,17,7,7,0,7,1,41,254,0,1,1463
3,18,6,2,-4,1,0,168,328,0,1,1140
3,18,6,2,-4,2,5,168,328,0,1,1909
3,19,7,7,0,1,4,90,299,0,1,1527.99999999997
3,19,7,7,0,2,6,90,299,0,1,1175
3,19,7,7,0,3,5,90,299,0,1,1511.00000000003
3,19,7,7,0,4,4,90,299,0,1,1177.99999999997
3,19,7,7,0,5,3,90,299,0,1,1245
3,19,7,7,0,6,2,90,299,0,1,1229.00000000003
3,19,7,7,0,7,1,90,299,0,1,1245
3,20,5,7,2,1,0,288,462,0,1,1443
3,20,5,7,2,2,4,288,462,0,1,1242
3,20,5,7,2,3,3,288,462,0,1,1327
3,20,5,7,2,4,2,288,462,0,1,1244
3,20,5,7,2,5,1,288,462,0,1,1292
3,20,5,7,2,6,0,288,462,0,1,1128
3,20,5,7,2,7,0,288,462,0,1,1448
3,21,5,5,0,1,5,316,513,0,1,1209
3,21,5,5,0,2,4,316,513,0,1,1179
3,21,5,5,0,3,3,316,513,0,1,1177
3,21,5,5,0,4,2,316,513,0,1,1246
3,21,5,5,0,5,1,316,513,0,1,1296
3,22,6,6,0,1,0,333,562,0,1,1278
3,22,6,6,0,2,5,333,562,0,1,1294
3,22,6,6,0,3,4,333,562,0,1,1210
3,22,6,6,0,4,3,333,562,0,1,1243.99999999994
3,22,6,6,0,5,2,333,562,0,1,1395
3,22,6,6,0,6,1,333,562,0,1,1128
3,23,6,9,3,1,0,4,150,0,1,1262
3,23,6,9,3,2,5,4,150,0,1,1295
3,23,6,9,3,3,4,4,150,0,1,1227.00000000006
3,23,6,9,3,4,3,4,150,0,1,1611
3,23,6,9,3,5,2,4,150,0,1,1262
3,23,6,9,3,6,1,4,150,0,1,1445
3,23,6,9,3,7,0,4,150,0,1,1227
3,23,6,9,3,8,0,4,150,0,1,1512
3,23,6,9,3,9,0,4,150,0,1,1426
3,24,6,5,-1,1,6,230,390,0,1,1227.99999999994
3,24,6,5,-1,2,5,230,390,0,1,1509.99999999994
3,24,6,5,-1,3,4,230,390,0,1,1277.00000000006
3,24,6,5,-1,4,3,230,390,0,1,1060
3,24,6,5,-1,5,2,230,390,0,1,1878
3,25,5,9,4,1,1,43,200,0,1,1412
3,25,5,9,4,2,4,43,200,0,1,1446
3,25,5,9,4,3,3,43,200,0,1,1231
3,25,5,9,4,4,2,43,200,0,1,1162
3,25,5,9,4,5,1,43,200,0,1,1494
3,25,5,9,4,6,0,43,200,0,1,1210
3,25,5,9,4,7,0,43,200,0,1,1162
3,25,5,9,4,8,0,43,200,0,1,1360
3,25,5,9,4,9,0,43,200,0,1,1274
3,26,6,6,0,1,6,40,208,0,1,1461
3,26,6,6,0,2,5,40,208,0,1,1725
3,26,6,6,0,3,4,40,208,0,1,1562
3,26,6,6,0,4,3,40,208,0,1,1242
3,26,6,6,0,5,2,40,208,0,1,1196
3,26,6,6,0,6,1,40,208,0,1,1363
3,27,6,10,4,1,0,206,370,0,1,1596
3,27,6,10,4,2,5,206,370,0,1,1230
3,27,6,10,4,3,4,206,370,0,1,1927.99999999994
3,27,6,10,4,4,3,206,370,0,1,2497
3,27,6,10,4,5,2,206,370,0,1,1797
3,27,6,10,4,6,1,206,370,0,1,1244.99999999994
3,27,6,10,4,7,0,206,370,0,1,1378
3,27,6,10,4,8,0,206,370,0,1,1463
3,27,6,10,4,9,0,206,370,0,1,1402
3,27,6,10,4,10,0,206,370,0,1,1296
3,28,7,8,1,1,7,182,331,0,1,1279.99999999994
3,28,7,8,1,2,6,182,331,0,1,1163
3,28,7,8,1,3,5,182,331,0,1,1310
3,28,7,8,1,4,4,182,331,0,1,1197
3,28,7,8,1,5,3,182,331,0,1,1146
3,28,7,8,1,6,2,182,331,0,1,1263
3,28,7,8,1,7,1,182,331,0,1,995.999999999942
3,28,7,8,1,8,0,182,331,0,1,1314
3,29,7,7,0,1,7,111,306,0,1,1497
3,29,7,7,0,2,6,111,306,0,1,1225
3,29,7,7,0,3,5,111,306,0,1,1111.99999999994
3,29,7,7,0,4,4,111,306,0,1,1146
3,29,7,7,0,5,3,111,306,0,1,1181
3,29,7,7,0,6,2,111,306,0,1,1346
3,29,7,7,0,7,1,111,306,0,1,1241
3,30,6,7,1,1,0,92,309,0,1,1661
3,30,6,7,1,2,5,92,309,0,1,1197
3,30,6,7,1,3,4,92,309,0,1,1147
3,30,6,7,1,4,3,92,309,0,1,1163.99999999994
3,30,6,7,1,5,2,92,309,0,1,1214
3,30,6,7,1,6,1,92,309,0,1,1196
3,30,6,7,1,7,0,92,309,0,1,1244.99999999994
3,31,7,9,2,1,7,284,495,0,1,1276.99999999994
3,31,7,9,2,2,6,284,495,0,1,1726.99999999994
3,31,7,9,2,3,5,284,495,0,1,1313
3,31,7,9,2,4,4,284,495,0,1,1212
3,31,7,9,2,5,3,284,495,0,1,1380
3,31,7,9,2,6,2,284,495,0,1,1224
3,31,7,9,2,7,1,284,495,0,1,1115
3,31,7,9,2,8,0,284,495,0,1,1732.00000000006
3,31,7,9,2,9,0,284,495,0,1,1529
3,32,6,4,-2,1,6,226,437,0,1,1197.99999999994
3,32,6,4,-2,2,5,226,437,0,1,1229.99999999994
3,32,6,4,-2,3,4,226,437,0,1,992
3,32,6,4,-2,4,3,226,437,0,1,1166
3,33,5,5,0,1,2,128,338,0,1,1364
3,33,5,5,0,2,4,128,338,0,1,1197
3,33,5,5,0,3,3,128,338,0,1,1196
3,33,5,5,0,4,2,128,338,0,1,1314
3,33,5,5,0,5,1,128,338,0,1,1163
3,34,7,7,0,1,0,11,184,0,1,1463
3,34,7,7,0,2,6,11,184,0,1,1148
3,34,7,7,0,3,5,11,184,0,1,1179
3,34,7,7,0,4,4,11,184,0,1,1048
3,34,7,7,0,5,3,11,184,0,1,1078
3,34,7,7,0,6,2,11,184,0,1,1330
3,34,7,7,0,7,1,11,184,0,1,1231
3,35,7,3,-4,1,0,343,516,0,1,1148
3,35,7,3,-4,2,6,343,516,0,1,1164
3,35,7,3,-4,3,5,343,516,0,1,1216
3,36,5,5,0,1,4,296,472,0,1,1198.00000000006
3,36,5,5,0,2,4,296,472,0,1,1163.99999999994
3,36,5,5,0,3,3,296,472,0,1,1447
3,36,5,5,0,4,2,296,472,0,1,1245
3,36,5,5,0,5,1,296,472,0,1,1163
3,37,7,7,0,1,0,322,542,0,1,1296.99999999994
3,37,7,7,0,2,6,322,542,0,1,1163.99999999994
3,37,7,7,0,3,5,322,542,0,1,1414
3,37,7,7,0,4,4,322,542,0,1,1399.99999999994
3,37,7,7,0,5,3,322,542,0,1,1214
3,37,7,7,0,6,2,322,542,0,1,1215.00000000006
3,37,7,7,0,7,1,322,542,0,1,1249
3,38,6,6,0,1,0,164,333,0,1,1599
3,38,6,6,0,2,5,164,333,0,1,1131.99999999994
3,38,6,6,0,3,4,164,333,0,1,1232.00000000006
3,38,6,6,0,4,3,164,333,0,1,1281
3,38,6,6,0,5,2,164,333,0,1,1213
3,38,6,6,0,6,1,164,333,0,1,1182.99999999994
3,39,6,2,-4,1,0,52,273,0,1,1142
3,39,6,2,-4,2,5,52,273,0,1,1082
3,40,7,4,-3,1,4,357,545,0,1,1566
3,40,7,4,-3,2,6,357,545,0,1,1199.00000000006
3,40,7,4,-3,3,5,357,545,0,1,1264.99999999994
3,40,7,4,-3,4,4,357,545,0,1,1850.00000000006
3,41,5,9,4,1,3,329,492,0,1,1267
3,41,5,9,4,2,4,329,492,0,1,1114
3,41,5,9,4,3,3,329,492,0,1,1297
3,41,5,9,4,4,2,329,492,0,1,1616
3,41,5,9,4,5,1,329,492,0,1,1233
3,41,5,9,4,6,0,329,492,0,1,1181
3,41,5,9,4,7,0,329,492,0,1,1098
3,41,5,9,4,8,0,329,492,0,1,1115.99999999994
3,41,5,9,4,9,0,329,492,0,1,1264.00000000006
3,42,5,3,-2,1,5,84,291,0,1,1333
3,42,5,3,-2,2,4,84,291,0,1,1181
3,42,5,3,-2,3,3,84,291,0,1,1163
3,43,7,7,0,1,2,316,533,0,1,1166
3,43,7,7,0,2,6,316,533,0,1,1432.99999999994
3,43,7,7,0,3,5,316,533,0,1,1549
3,43,7,7,0,4,4,316,533,0,1,1315
3,43,7,7,0,5,3,316,533,0,1,1150
3,43,7,7,0,6,2,316,533,0,1,1216.99999999994
3,43,7,7,0,7,1,316,533,0,1,1503
3,44,7,7,0,1,0,18,244,0,1,1832
3,44,7,7,0,2,6,18,244,0,1,1246
3,44,7,7,0,3,5,18,244,0,1,1215.00000000006
3,44,7,7,0,4,4,18,244,0,1,1114.99999999994
3,44,7,7,0,5,3,18,244,0,1,1166
3,44,7,7,0,6,2,18,244,0,1,1801
3,44,7,7,0,7,1,18,244,0,1,1133.00000000006
3,45,5,5,0,1,0,355,562,0,1,1264.99999999994
3,45,5,5,0,2,4,355,562,0,1,1749
3,45,5,5,0,3,3,355,562,0,1,1133.00000000006
3,45,5,5,0,4,2,355,562,0,1,1134.00000000006
3,45,5,5,0,5,1,355,562,0,1,1102
3,46,7,3,-4,1,0,110,258,0,1,1916
3,46,7,3,-4,2,6,110,258,0,1,1351
3,46,7,3,-4,3,5,110,258,0,1,1433.99999999994
3,47,6,6,0,1,4,210,410,0,1,1399
3,47,6,6,0,2,5,210,410,0,1,1162
3,47,6,6,0,3,4,210,410,0,1,1315
3,47,6,6,0,4,3,210,410,0,1,1399
3,47,6,6,0,5,2,210,410,0,1,1250
3,47,6,6,0,6,1,210,410,0,1,2001
3,48,6,6,0,1,0,140,301,0,1,1364.99999999994
3,48,6,6,0,2,5,140,301,0,1,1177
3,48,6,6,0,3,4,140,301,0,1,1158
3,48,6,6,0,4,3,140,301,0,1,1697
3,48,6,6,0,5,2,140,301,0,1,1300.99999999994
3,48,6,6,0,6,1,140,301,0,1,1220
3,49,5,2,-3,1,0,203,425,0,1,1330
3,49,5,2,-3,2,4,203,425,0,1,1180.99999999994
3,50,5,5,0,1,3,355,519,0,1,2083.00000000006
3,50,5,5,0,2,4,355,519,0,1,1168
3,50,5,5,0,3,3,355,519,0,1,1251
3,50,5,5,0,4,2,355,519,0,1,1533
3,50,5,5,0,5,1,355,519,0,1,1116.00000000012
3,51,7,6,-1,1,0,265,422,0,1,1534
3,51,7,6,-1,2,6,265,422,0,1,1252.00000000006
3,51,7,6,-1,3,5,265,422,0,1,1500.99999999994
3,51,7,6,-1,4,4,265,422,0,1,1117
3,51,7,6,-1,5,3,265,422,0,1,1034.99999999994
3,51,7,6,-1,6,2,265,422,0,1,1317.99999999994
3,52,7,7,0,1,1,85,305,0,1,1635
3,52,7,7,0,2,6,85,305,0,1,1735
3,52,7,7,0,3,5,85,305,0,1,1319
3,52,7,7,0,4,4,85,305,0,1,1585
3,52,7,7,0,5,3,85,305,0,1,1200.00000000012
3,52,7,7,0,6,2,85,305,0,1,1201
3,52,7,7,0,7,1,85,305,0,1,1183
3,53,6,6,0,1,0,24,256,0,1,1733
3,53,6,6,0,2,5,24,256,0,1,1184
3,53,6,6,0,3,4,24,256,0,1,1500
3,53,6,6,0,4,3,24,256,0,1,1603
3,53,6,6,0,5,2,24,256,0,1,1186
3,53,6,6,0,6,1,24,256,0,1,1502
3,54,7,10,3,1,0,30,197,0,1,1285
3,54,7,10,3,2,6,30,197,0,1,1267
3,54,7,10,3,3,5,30,197,0,1,1153
3,54,7,10,3,4,4,30,197,0,1,1368
3,54,7,10,3,5,3,30,197,0,1,1421
3,54,7,10,3,6,2,30,197,0,1,1118
3,54,7,10,3,7,1,30,197,0,1,1118
3,54,7,10,3,8,0,30,197,0,1,1218
3,54,7,10,3,9,0,30,197,0,1,1136
3,54,7,10,3,10,0,30,197,0,1,1385
3,55,5,2,-3,1,5,134,289,0,1,1508.00000000012
3,55,5,2,-3,2,4,134,289,0,1,1154
3,56,6,8,2,1,3,329,509,0,1,1416
3,56,6,8,2,2,5,329,509,0,1,1567
3,56,6,8,2,3,4,329,509,0,1,1036
3,56,6,8,2,4,3,329,509,0,1,1451
3,56,6,8,2,5,2,329,509,0,1,1519
3,56,6,8,2,6,1,329,509,0,1,1385
3,56,6,8,2,7,0,329,509,0,1,1218
3,56,6,8,2,8,0,329,509,0,1,1187
3,57,5,5,0,1,5,16,193,0,1,1350
3,57,5,5,0,2,4,16,193,0,1,1202
3,57,5,5,0,3,3,16,193,0,1,1085.99999999988
3,57,5,5,0,4,2,16,193,0,1,1686
3,57,5,5,0,5,1,16,193,0,1,1269
3,58,5,5,0,1,0,57,288,0,1,1933.99999999988
3,58,5,5,0,2,4,57,288,0,1,1269
3,58,5,5,0,3,3,57,288,0,1,1170
3,58,5,5,0,4,2,57,288,0,1,1153
3,58,5,5,0,5,1,57,288,0,1,1153
3,59,6,6,0,1,0,112,344,0,1,1753.00000000012
3,59,6,6,0,2,5,112,344,0,1,1752.99999999988
3,59,6,6,0,3,4,112,344,0,1,1351
3,59,6,6,0,4,3,112,344,0,1,2003.99999999988
3,59,6,6,0,5,2,112,344,0,1,1702.99999999988
3,59,6,6,0,6,1,112,344,0,1,1185
3,60,5,5,0,1,0,336,536,0,1,2005
3,60,5,5,0,2,4,336,536,0,1,1156.99999999988
3,60,5,5,0,3,3,336,536,0,1,1474
3,60,5,5,0,4,2,336,536,0,1,1407
3,60,5,5,0,5,1,336,536,0,1,1192
3,61,6,6,0,1,0,134,367,0,1,1456
3,61,6,6,0,2,5,134,367,0,1,1208
3,61,6,6,0,3,4,134,367,0,1,1307
3,61,6,6,0,4,3,134,367,0,1,1293
3,61,6,6,0,5,2,134,367,0,1,1310
3,61,6,6,0,6,1,134,367,0,1,1157
3,62,7,9,2,1,0,95,317,0,1,1126
3,62,7,9,2,2,6,95,317,0,1,1075.99999999988
3,62,7,9,2,3,5,95,317,0,1,1060
3,62,7,9,2,4,4,95,317,0,1,1194
3,62,7,9,2,5,3,95,317,0,1,1209.99999999988
3,62,7,9,2,6,2,95,317,0,1,1177
3,62,7,9,2,7,1,95,317,0,1,1176
3,62,7,9,2,8,0,95,317,0,1,1295
3,62,7,9,2,9,0,95,317,0,1,1194
3,63,5,3,-2,1,5,298,498,0,1,1356
3,63,5,3,-2,2,4,298,498,0,1,1225
3,63,5,3,-2,3,3,298,498,0,1,1159
3,64,5,5,0,1,2,331,480,0,1,1229
3,64,5,5,0,2,4,331,480,0,1,1061
3,64,5,5,0,3,3,331,480,0,1,1228
3,64,5,5,0,4,2,331,480,0,1,1460
3,64,5,5,0,5,1,331,480,0,1,1228
3,65,5,1,-4,1,0,328,479,0,1,1476.99999999988
3,66,5,4,-1,1,5,22,216,0,1,1144
3,66,5,4,-1,2,4,22,216,0,1,1110.99999999988
3,66,5,4,-1,3,3,22,216,0,1,1159
3,66,5,4,-1,4,2,22,216,0,1,1920
3,67,5,5,0,1,1,309,537,0,1,1055
3,67,5,5,0,2,4,309,537,0,1,1143
3,67,5,5,0,3,3,309,537,0,1,1712
3,67,5,5,0,4,2,309,537,0,1,1797.00000000012
3,67,5,5,0,5,1,309,537,0,1,1209.00000000012
3,68,6,9,3,1,0,250,449,0,1,1080
3,68,6,9,3,2,5,250,449,0,1,1095
3,68,6,9,3,3,4,250,449,0,1,1181
3,68,6,9,3,4,3,250,449,0,1,1229
3,68,6,9,3,5,2,250,449,0,1,1431
3,68,6,9,3,6,1,250,449,0,1,1046
3,68,6,9,3,7,0,250,449,0,1,1112
3,68,6,9,3,8,0,250,449,0,1,1095
3,68,6,9,3,9,0,250,449,0,1,1696
3,69,7,8,1,1,7,247,472,0,1,1797
3,69,7,8,1,2,6,247,472,0,1,1248
3,69,7,8,1,3,5,247,472,0,1,1395
3,69,7,8,1,4,4,247,472,0,1,1296
3,69,7,8,1,5,3,247,472,0,1,1228.99999999988
3,69,7,8,1,6,2,247,472,0,1,1194
3,69,7,8,1,7,1,247,472,0,1,1264
3,69,7,8,1,8,0,247,472,0,1,1142
3,70,5,7,2,1,5,354,510,0,1,1346.99999999988
3,70,5,7,2,2,4,354,510,0,1,1242.99999999988
3,70,5,7,2,3,3,354,510,0,1,1162
3,70,5,7,2,4,2,354,510,0,1,1180.99999999988
3,70,5,7,2,5,1,354,510,0,1,1692
3,70,5,7,2,6,0,354,510,0,1,1197
3,70,5,7,2,7,0,354,510,0,1,1216
3,71,5,6,1,1,5,40,256,0,1,1198.00000000012
3,71,5,6,1,2,4,40,256,0,1,1177
3,71,5,6,1,3,3,40,256,0,1,1205
3,71,5,6,1,4,2,40,256,0,1,1263
3,71,5,6,1,5,1,40,256,0,1,1164.00000000012
3,71,5,6,1,6,0,40,256,0,1,2031
3,72,6,6,0,1,6,98,278,0,1,1597.00000000012
3,72,6,6,0,2,5,98,278,0,1,1147
3,72,6,6,0,3,4,98,278,0,1,1146
3,72,6,6,0,4,3,98,278,0,1,1029
3,72,6,6,0,5,2,98,278,0,1,1246
3,72,6,6,0,6,1,98,278,0,1,1692
3,73,7,7,0,1,0,342,535,0,1,1181.99999999988
3,73,7,7,0,2,6,342,535,0,1,1913
3,73,7,7,0,3,5,342,535,0,1,1115
3,73,7,7,0,4,4,342,535,0,1,1248
3,73,7,7,0,5,3,342,535,0,1,1196.00000000012
3,73,7,7,0,6,2,342,535,0,1,1747
3,73,7,7,0,7,1,342,535,0,1,1198.00000000012
3,74,7,5,-2,1,0,107,326,0,1,1563.00000000012
3,74,7,5,-2,2,6,107,326,0,1,1096
3,74,7,5,-2,3,5,107,326,0,1,1247
3,74,7,5,-2,4,4,107,326,0,1,1248
3,74,7,5,-2,5,3,107,326,0,1,1314
3,75,5,5,0,1,2,18,180,0,1,1515
3,75,5,5,0,2,4,18,180,0,1,1182
3,75,5,5,0,3,3,18,180,0,1,1032
3,75,5,5,0,4,2,18,180,0,1,1216
3,75,5,5,0,5,1,18,180,0,1,1098
3,76,7,11,4,1,0,162,371,0,1,1399
3,76,7,11,4,2,6,162,371,0,1,1180
3,76,7,11,4,3,5,162,371,0,1,1211.99999999988
3,76,7,11,4,4,4,162,371,0,1,1197
3,76,7,11,4,5,3,162,371,0,1,1147
3,76,7,11,4,6,2,162,371,0,1,1316
3,76,7,11,4,7,1,162,371,0,1,1234.00000000012
3,76,7,11,4,8,0,162,371,0,1,1114
3,76,7,11,4,9,0,162,371,0,1,1197
3,76,7,11,4,10,0,162,371,0,1,1144
3,76,7,11,4,11,0,162,371,0,1,1446
3,77,5,1,-4,1,5,284,462,0,1,1481
3,78,7,7,0,1,4,12,242,0,1,1280
3,78,7,7,0,2,6,12,242,0,1,1180
3,78,7,7,0,3,5,12,242,0,1,1082
3,78,7,7,0,4,4,12,242,0,1,1196
3,78,7,7,0,5,3,12,242,0,1,1881
3,78,7,7,0,6,2,12,242,0,1,1315
3,78,7,7,0,7,1,12,242,0,1,1180
3,79,6,8,2,1,0,336,485,0,1,1480
3,79,6,8,2,2,5,336,485,0,1,1133
3,79,6,8,2,3,4,336,485,0,1,1308
3,79,6,8,2,4,3,336,485,0,1,1200
3,79,6,8,2,5,2,336,485,0,1,1198
3,79,6,8,2,6,1,336,485,0,1,1165.99999999988
3,79,6,8,2,7,0,336,485,0,1,1239
3,79,6,8,2,8,0,336,485,0,1,1346
3,80,7,7,0,1,7,260,435,0,1,1150
3,80,7,7,0,2,6,260,435,0,1,1182
3,80,7,7,0,3,5,260,435,0,1,1227.99999999988
3,80,7,7,0,4,4,260,435,0,1,1197.99999999988
3,80,7,7,0,5,3,260,435,0,1,1182
3,80,7,7,0,6,2,260,435,0,1,1281.99999999988
3,80,7,7,0,7,1,260,435,0,1,1232
3,81,7,5,-2,1,0,27,237,0,1,1263
3,81,7,5,-2,2,6,27,237,0,1,1149.99999999988
3,81,7,5,-2,3,5,27,237,0,1,1649
3,81,7,5,-2,4,4,27,237,0,1,1298
3,81,7,5,-2,5,3,27,237,0,1,1133.00000000012
3,82,7,7,0,1,2,151,354,0,1,1198
3,82,7,7,0,2,6,151,354,0,1,1632.99999999988
3,82,7,7,0,3,5,151,354,0,1,1734
3,82,7,7,0,4,4,151,354,0,1,1798
3,82,7,7,0,5,3,151,354,0,1,1150
3,82,7,7,0,6,2,151,354,0,1,1015
3,82,7,7,0,7,1,151,354,0,1,1184.00000000012
3,83,5,4,-1,1,0,191,411,0,1,1348
3,83,5,4,-1,2,4,191,411,0,1,1250
3,83,5,4,-1,3,3,191,411,0,1,1498
3,83,5,4,-1,4,2,191,411,0,1,1682
3,84,5,5,0,1,1,255,433,0,1,1351
3,84,5,5,0,2,4,255,433,0,1,1267
3,84,5,5,0,3,3,255,433,0,1,1267
3,84,5,5,0,4,2,255,433,0,1,1335
3,84,5,5,0,5,1,255,433,0,1,1150
3,85,6,6,0,1,0,169,364,0,1,1266
3,85,6,6,0,2,5,169,364,0,1,1217
3,85,6,6,0,3,4,169,364,0,1,1234.00000000012
3,85,6,6,0,4,3,169,364,0,1,1817.99999999988
3,85,6,6,0,5,2,169,364,0,1,1550
3,85,6,6,0,6,1,169,364,0,1,1105.00000000012
3,86,6,6,0,1,0,264,467,0,1,1383.00000000012
3,86,6,6,0,2,5,264,467,0,1,1199.99999999988
3,86,6,6,0,3,4,264,467,0,1,1183.00000000012
3,86,6,6,0,4,3,264,467,0,1,1448
3,86,6,6,0,5,2,264,467,0,1,1750
3,86,6,6,0,6,1,264,467,0,1,1252.00000000012
3,87,6,3,-3,1,0,4,206,0,1,1485
3,87,6,3,-3,2,5,4,206,0,1,1135
3,87,6,3,-3,3,4,4,206,0,1,1167
3,88,7,7,0,1,3,236,432,0,1,1269.00000000012
3,88,7,7,0,2,6,236,432,0,1,1199
3,88,7,7,0,3,5,236,432,0,1,1202
3,88,7,7,0,4,4,236,432,0,1,1166
3,88,7,7,0,5,3,236,432,0,1,1483
3,88,7,7,0,6,2,236,432,0,1,1216.99999999988
3,88,7,7,0,7,1,236,432,0,1,1201.00000000012
3,89,7,7,0,1,0,220,407,0,1,1185
3,89,7,7,0,2,6,220,407,0,1,1748
3,89,7,7,0,3,5,220,407,0,1,1151
3,89,7,7,0,4,4,220,407,0,1,1301
3,89,7,7,0,5,3,220,407,0,1,1651
3,89,7,7,0,6,2,220,407,0,1,1153.00000000012
3,89,7,7,0,7,1,220,407,0,1,1368
3,90,6,6,0,1,0,196,376,0,1,1169
3,90,6,6,0,2,5,196,376,0,1,1368
3,90,6,6,0,3,4,196,376,0,1,1268
3,90,6,6,0,4,3,196,376,0,1,1201
3,90,6,6,0,5,2,196,376,0,1,1100.00000000012
3,90,6,6,0,6,1,196,376,0,1,1118
3,91,7,4,-3,1,0,98,320,0,1,1283
3,91,7,4,-3,2,6,98,320,0,1,1268
3,91,7,4,-3,3,5,98,320,0,1,1217
3,91,7,4,-3,4,4,98,320,0,1,1118
3,92,5,5,0,1,3,55,281,0,1,1218
3,92,5,5,0,2,4,55,281,0,1,1218
3,92,5,5,0,3,3,55,281,0,1,1150.99999999988
3,92,5,5,0,4,2,55,281,0,1,1202
3,92,5,5,0,5,1,55,281,0,1,1451
3,93,6,4,-2,1,0,161,363,0,1,1653
3,93,6,4,-2,2,5,161,363,0,1,1217
3,93,6,4,-2,3,4,161,363,0,1,1233
3,93,6,4,-2,4,3,161,363,0,1,1133.00000000012
3,94,6,3,-3,1,2,311,537,0,1,1302
3,94,6,3,-3,2,5,311,537,0,1,1101
3,94,6,3,-3,3,4,311,537,0,1,1151
3,95,6,6,0,1,3,339,545,0,1,1132
3,95,6,6,0,2,5,339,545,0,1,1015.99999999988
3,95,6,6,0,3,4,339,545,0,1,1268.00000000012
3,95,6,6,0,4,3,339,545,0,1,1249.00000000012
3,95,6,6,0,5,2,339,545,0,1,1179
3,95,6,6,0,6,1,339,545,0,1,1087.00000000012
3,96,7,6,-1,1,0,292,510,0,1,1183
3,96,7,6,-1,2,6,292,510,0,1,1135.00000000012
3,96,7,6,-1,3,5,292,510,0,1,1220
3,96,7,6,-1,4,4,292,510,0,1,1115
3,96,7,6,-1,5,3,292,510,0,1,1168
3,96,7,6,-1,6,2,292,510,0,1,1382
30,1,7,3,-4,1,7,302,451,0,1,1767.30000000447
30,1,7,3,-4,2,6,302,451,0,1,1332.10000000149
30,1,7,3,-4,3,5,302,451,0,1,1533
30,2,7,7,0,1,4,246,412,0,1,1365.60000000149
30,2,7,7,0,2,6,246,412,0,1,1299.20000000298
30,2,7,7,0,3,5,246,412,0,1,1216.60000000149
30,2,7,7,0,4,4,246,412,0,1,1332.30000000447
30,2,7,7,0,5,3,246,412,0,1,1132.80000000447
30,2,7,7,0,6,2,246,412,0,1,1232.5
30,2,7,7,0,7,1,246,412,0,1,1183.30000000447
30,3,5,6,1,1,0,308,489,0,1,1333.10000000149
30,3,5,6,1,2,4,308,489,0,1,1316.29999999702
30,3,5,6,1,3,3,308,489,0,1,1150.5
30,3,5,6,1,4,2,308,489,0,1,1199.79999999702
30,3,5,6,1,5,1,308,489,0,1,1216.5
30,3,5,6,1,6,0,308,489,0,1,1250.80000000447
30,4,6,8,2,1,6,354,583,0,1,1567.10000000149
30,4,6,8,2,2,5,354,583,0,1,1133.59999999404
30,4,6,8,2,3,4,354,583,0,1,1117.19999999553
30,4,6,8,2,4,3,354,583,0,1,1283.69999999553
30,4,6,8,2,5,2,354,583,0,1,1195.60000000149
30,4,6,8,2,6,1,354,583,0,1,1133.79999999702
30,4,6,8,2,7,0,354,583,0,1,1179.20000000298
30,4,6,8,2,8,0,354,583,0,1,1165.20000000298
30,5,7,9,2,1,7,97,266,0,1,1430.29999999702
30,5,7,9,2,2,6,97,266,0,1,1167
30,5,7,9,2,3,5,97,266,0,1,1683.80000000447
30,5,7,9,2,4,4,97,266,0,1,1249.60000000149
30,5,7,9,2,5,3,97,266,0,1,1333.79999999702
30,5,7,9,2,6,2,97,266,0,1,1282.89999999851
30,5,7,9,2,7,1,97,266,0,1,1283.5
30,5,7,9,2,8,0,97,266,0,1,1166.5
30,5,7,9,2,9,0,97,266,0,1,966.80000000447
30,6,6,6,0,1,6,191,393,0,1,1783.5
30,6,6,6,0,2,5,191,393,0,1,1300.19999999553
30,6,6,6,0,3,4,191,393,0,1,1200.39999999851
30,6,6,6,0,4,3,191,393,0,1,1233.10000000149
30,6,6,6,0,5,2,191,393,0,1,1100.30000000447
30,6,6,6,0,6,1,191,393,0,1,1199.79999999702
30,7,7,10,3,1,0,213,430,0,1,1449.89999999851
30,7,7,10,3,2,6,213,430,0,1,1383.89999999851
30,7,7,10,3,3,5,213,430,0,1,1166.70000000298
30,7,7,10,3,4,4,213,430,,,
30,7,7,10,3,5,3,213,430,0,1,1411.80000000447
30,7,7,10,3,6,2,213,430,,,
30,7,7,10,3,7,1,213,430,0,1,1362.5
30,7,7,10,3,8,0,213,430,0,1,1299.30000000447
30,7,7,10,3,9,0,213,430,0,1,1166.5
30,7,7,10,3,10,0,213,430,0,1,1148.89999999851
30,8,7,7,0,1,7,150,348,0,1,1283.20000000298
30,8,7,7,0,2,6,150,348,0,1,1350.39999999851
30,8,7,7,0,3,5,150,348,0,1,1200
30,8,7,7,0,4,4,150,348,0,1,1183.10000000149
30,8,7,7,0,5,3,150,348,0,1,1016.29999999702
30,8,7,7,0,6,2,150,348,0,1,1182.39999999851
30,8,7,7,0,7,1,150,348,0,1,1182.89999999851
30,9,7,7,0,1,0,260,482,0,1,1216
30,9,7,7,0,2,6,260,482,0,1,1349.60000000149
30,9,7,7,0,3,5,260,482,0,1,1383
30,9,7,7,0,4,4,260,482,0,1,1216.29999999702
30,9,7,7,0,5,3,260,482,0,1,1199.29999999702
30,9,7,7,0,6,2,260,482,0,1,1149.09999999404
30,9,7,7,0,7,1,260,482,0,1,1233
30,10,6,6,0,1,0,163,386,0,1,1483.10000000149
30,10,6,6,0,2,5,163,386,0,1,1249.79999999702
30,10,6,6,0,3,4,163,386,0,1,966.5
30,10,6,6,0,4,3,163,386,0,1,1200
30,10,6,6,0,5,2,163,386,0,1,1316.39999999851
30,10,6,6,0,6,1,163,386,0,1,1352.79999999702
30,11,6,7,1,1,0,339,532,0,1,1082.60000000149
30,11,6,7,1,2,5,339,532,0,1,1182.70000000298
30,11,6,7,1,3,4,339,532,0,1,1415.79999999702
30,11,6,7,1,4,3,339,532,0,1,1266.5
30,11,6,7,1,5,2,339,532,0,1,1232.89999999851
30,11,6,7,1,6,1,339,532,0,1,1284
30,11,6,7,1,7,0,339,532,0,1,1266.29999999702
30,12,5,5,0,1,5,311,494,0,1,1333
30,12,5,5,0,2,4,311,494,0,1,1215.29999999702
30,12,5,5,0,3,3,311,494,0,1,1132.60000000149
30,12,5,5,0,4,2,311,494,0,1,1032.59999999404
30,12,5,5,0,5,1,311,494,0,1,1083.5
30,13,7,9,2,1,0,295,513,0,1,1083.20000000298
30,13,7,9,2,2,6,295,513,0,1,1082.89999999851
30,13,7,9,2,3,5,295,513,0,1,1016
30,13,7,9,2,4,4,295,513,0,1,1066
30,13,7,9,2,5,3,295,513,0,1,1132.80000000447
30,13,7,9,2,6,2,295,513,0,1,1182
30,13,7,9,2,7,1,295,513,0,1,1132.39999999851
30,13,7,9,2,8,0,295,513,0,1,1099.30000000447
30,13,7,9,2,9,0,295,513,0,1,1232.5
30,14,5,6,1,1,5,137,312,0,1,1348.60000000149
30,14,5,6,1,2,4,137,312,0,1,1466.10000000149
30,14,5,6,1,3,3,137,312,0,1,1099.70000000298
30,14,5,6,1,4,2,137,312,0,1,1332
30,14,5,6,1,5,1,137,312,0,1,1133.29999999702
30,14,5,6,1,6,0,137,312,0,1,1100.20000000298
30,15,7,7,0,1,7,327,507,0,1,1549.5
30,15,7,7,0,2,6,327,507,0,1,1182.20000000298
30,15,7,7,0,3,5,327,507,0,1,1182.5
30,15,7,7,0,4,4,327,507,0,1,1049.10000000149
30,15,7,7,0,5,3,327,507,0,1,1218
30,15,7,7,0,6,2,327,507,0,1,1234.20000000298
30,15,7,7,0,7,1,327,507,0,1,1349.60000000149
30,16,7,6,-1,1,0,103,323,0,1,1533
30,16,7,6,-1,2,6,103,323,,,
30,16,7,6,-1,3,5,103,323,0,1,1810.20000000298
30,16,7,6,-1,4,4,103,323,0,1,1298.79999999702
30,16,7,6,-1,5,3,103,323,0,1,1449.20000000298
30,16,7,6,-1,6,2,103,323,0,1,1350
30,17,6,10,4,1,1,331,484,0,1,1414.5
30,17,6,10,4,2,5,331,484,0,1,1332.80000000447
30,17,6,10,4,3,4,331,484,0,1,1082.89999999851
30,17,6,10,4,4,3,331,484,0,1,1066.20000000298
30,17,6,10,4,5,2,331,484,0,1,1066.39999999851
30,17,6,10,4,6,1,331,484,0,1,1149.80000000447
30,17,6,10,4,7,0,331,484,0,1,1082.70000000298
30,17,6,10,4,8,0,331,484,0,1,1117.39999999851
30,17,6,10,4,9,0,331,484,0,1,1132.79999999702
30,17,6,10,4,10,0,331,484,,,
30,18,5,5,0,1,5,210,369,0,1,1261.70000000298
30,18,5,5,0,2,4,210,369,0,1,1367.60000000149
30,18,5,5,0,3,3,210,369,0,1,1199.90000000596
30,18,5,5,0,4,2,210,369,0,1,1116.39999999851
30,18,5,5,0,5,1,210,369,0,1,1150.69999999553
30,19,7,5,-2,1,0,179,338,0,1,1316.60000000149
30,19,7,5,-2,2,6,179,338,0,1,1099.5
30,19,7,5,-2,3,5,179,338,0,1,1001.69999999553
30,19,7,5,-2,4,4,179,338,0,1,983.5
30,19,7,5,-2,5,3,179,338,0,1,1166.30000000447
30,20,7,7,0,1,2,180,393,0,1,1117.5
30,20,7,7,0,2,6,180,393,0,1,1082.89999999851
30,20,7,7,0,3,5,180,393,0,1,1132.5
30,20,7,7,0,4,4,180,393,0,1,1066.60000000149
30,20,7,7,0,5,3,180,393,0,1,1333.29999999702
30,20,7,7,0,6,2,180,393,0,1,1282.69999999553
30,20,7,7,0,7,1,180,393,0,1,1085.19999999553
30,21,6,5,-1,1,0,63,284,0,1,1450.10000000149
30,21,6,5,-1,2,5,63,284,0,1,1100.89999999851
30,21,6,5,-1,3,4,63,284,0,1,1132.89999999851
30,21,6,5,-1,4,3,63,284,0,1,1335
30,21,6,5,-1,5,2,63,284,0,1,949.30000000447
30,22,7,7,0,1,1,313,489,0,1,1200.29999999702
30,22,7,7,0,2,6,313,489,0,1,1133
30,22,7,7,0,3,5,313,489,0,1,899.19999999553
30,22,7,7,0,4,4,313,489,0,1,1233.19999999553
30,22,7,7,0,5,3,313,489,0,1,1250
30,22,7,7,0,6,2,313,489,0,1,1400.29999999702
30,22,7,7,0,7,1,313,489,0,1,1349.90000000596
30,23,7,6,-1,1,0,216,434,,,
30,23,7,6,-1,2,6,216,434,0,1,1228.20000000298
30,23,7,6,-1,3,5,216,434,0,1,1133.69999999553
30,23,7,6,-1,4,4,216,434,0,1,1216.30000000447
30,23,7,6,-1,5,3,216,434,0,1,1167
30,23,7,6,-1,6,2,216,434,0,1,1199.79999999702
30,24,5,2,-3,1,1,219,429,0,1,1233.10000000149
30,24,5,2,-3,2,4,219,429,0,1,1468.40000000596
30,25,6,6,0,1,3,274,452,0,1,1050.5
30,25,6,6,0,2,5,274,452,0,1,1316.39999999851
30,25,6,6,0,3,4,274,452,0,1,1100.10000000149
30,25,6,6,0,4,3,274,452,0,1,1000.60000000149
30,25,6,6,0,5,2,274,452,0,1,1083.39999999851
30,25,6,6,0,6,1,274,452,0,1,1134.39999999851
30,26,7,4,-3,1,0,163,313,0,1,1334.20000000298
30,26,7,4,-3,2,6,163,313,0,1,1100.39999999851
30,26,7,4,-3,3,5,163,313,0,1,1099.89999999851
30,26,7,4,-3,4,4,163,313,0,1,1266.10000000149
30,27,6,4,-2,1,3,125,272,0,1,1284.30000000447
30,27,6,4,-2,2,5,125,272,0,1,950.29999999702
30,27,6,4,-2,3,4,125,272,0,1,1299.60000000149
30,27,6,4,-2,4,3,125,272,0,1,1118.10000000149
30,28,6,10,4,1,2,335,555,0,1,1366.69999999553
30,28,6,10,4,2,5,335,555,0,1,1218.60000000149
30,28,6,10,4,3,4,335,555,0,1,1183.30000000447
30,28,6,10,4,4,3,335,555,0,1,1316.5
30,28,6,10,4,5,2,335,555,0,1,1167.40000000596
30,28,6,10,4,6,1,335,555,0,1,1350.20000000298
30,28,6,10,4,7,0,335,555,0,1,933.10000000149
30,28,6,10,4,8,0,335,555,0,1,1051.39999999851
30,28,6,10,4,9,0,335,555,0,1,1118.60000000149
30,28,6,10,4,10,0,335,555,0,1,933.60000000149
30,29,6,9,3,1,6,36,217,0,1,1749.60000000149
30,29,6,9,3,2,5,36,217,0,1,1201
30,29,6,9,3,3,4,36,217,0,1,1151.10000000149
30,29,6,9,3,4,3,36,217,0,1,1099.89999999851
30,29,6,9,3,5,2,36,217,0,1,1050.5
30,29,6,9,3,6,1,36,217,0,1,1117.80000000447
30,29,6,9,3,7,0,36,217,0,1,1116.60000000149
30,29,6,9,3,8,0,36,217,0,1,1032.39999999851
30,29,6,9,3,9,0,36,217,0,1,1567.30000000447
30,30,5,9,4,1,5,239,466,0,1,1434.20000000298
30,30,5,9,4,2,4,239,466,0,1,1149.29999999702
30,30,5,9,4,3,3,239,466,0,1,1316.40000000596
30,30,5,9,4,4,2,239,466,0,1,1216.20000000298
30,30,5,9,4,5,1,239,466,0,1,1151.39999999851
30,30,5,9,4,6,0,239,466,0,1,1150
30,30,5,9,4,7,0,239,466,0,1,1266.89999999851
30,30,5,9,4,8,0,239,466,0,1,1135.19999999553
30,30,5,9,4,9,0,239,466,0,1,1017.30000000447
30,31,5,4,-1,1,5,278,478,0,1,1116.59999999404
30,31,5,4,-1,2,4,278,478,0,1,1283.29999999702
30,31,5,4,-1,3,3,278,478,0,1,1050.5
30,31,5,4,-1,4,2,278,478,0,1,1418.59999999404
30,32,6,6,0,1,1,289,439,0,1,1233.60000000149
30,32,6,6,0,2,5,289,439,0,1,1283.79999999702
30,32,6,6,0,3,4,289,439,0,1,1233
30,32,6,6,0,4,3,289,439,0,1,1000.39999999851
30,32,6,6,0,5,2,289,439,0,1,1268.5
30,32,6,6,0,6,1,289,439,0,1,1284.39999999851
30,33,5,5,0,1,0,50,244,0,1,1302.30000000447
30,33,5,5,0,2,4,50,244,0,1,1033.80000000447
30,33,5,5,0,3,3,50,244,0,1,1150.80000000447
30,33,5,5,0,4,2,50,244,0,1,1166.80000000447
30,33,5,5,0,5,1,50,244,0,1,1101.10000000149
30,34,7,7,0,1,0,226,392,0,1,1399.30000000447
30,34,7,7,0,2,6,226,392,0,1,1318.19999999553
30,34,7,7,0,3,5,226,392,0,1,1300.10000000149
30,34,7,7,0,4,4,226,392,0,1,1165.79999999702
30,34,7,7,0,5,3,226,392,0,1,1133.39999999851
30,34,7,7,0,6,2,226,392,0,1,1016.40000000596
30,34,7,7,0,7,1,226,392,0,1,1218.59999999404
30,35,7,7,0,1,0,169,324,0,1,1333.20000000298
30,35,7,7,0,2,6,169,324,0,1,1151.60000000149
30,35,7,7,0,3,5,169,324,,,
30,35,7,7,0,4,4,169,324,0,1,1444.5
30,35,7,7,0,5,3,169,324,0,1,1400.59999999404
30,35,7,7,0,6,2,169,324,0,1,1149.39999999851
30,35,7,7,0,7,1,169,324,0,1,1185.39999999851
30,36,6,2,-4,1,0,259,472,0,1,1399.90000000596
30,36,6,2,-4,2,5,259,472,0,1,1150.10000000149
30,37,5,5,0,1,4,339,504,0,1,1118.39999999851
30,37,5,5,0,2,4,339,504,0,1,1168.80000000447
30,37,5,5,0,3,3,339,504,0,1,1218.5
30,37,5,5,0,4,2,339,504,0,1,1399.29999999702
30,37,5,5,0,5,1,339,504,0,1,1368.69999999553
30,38,6,9,3,1,0,193,356,0,1,1649.89999999851
30,38,6,9,3,2,5,193,356,0,1,1585
30,38,6,9,3,3,4,193,356,0,1,1283
30,38,6,9,3,4,3,193,356,0,1,1166.89999999851
30,38,6,9,3,5,2,193,356,0,1,1267.10000000149
30,38,6,9,3,6,1,193,356,0,1,1316.80000000447
30,38,6,9,3,7,0,193,356,0,1,1218.19999999553
30,38,6,9,3,8,0,193,356,0,1,1400.5
30,38,6,9,3,9,0,193,356,0,1,1434.70000000298
30,39,7,7,0,1,7,344,533,0,1,1250.10000000149
30,39,7,7,0,2,6,344,533,0,1,1333.59999999404
30,39,7,7,0,3,5,344,533,0,1,1201.89999999851
30,39,7,7,0,4,4,344,533,0,1,1149.39999999851
30,39,7,7,0,5,3,344,533,0,1,1117
30,39,7,7,0,6,2,344,533,0,1,1400
30,39,7,7,0,7,1,344,533,0,1,1151
30,40,7,3,-4,1,0,6,234,0,1,1333.30000000447
30,40,7,3,-4,2,6,6,234,0,1,1350.39999999851
30,40,7,3,-4,3,5,6,234,0,1,1250.5
30,41,7,11,4,1,4,277,473,0,1,1266.79999999702
30,41,7,11,4,2,6,277,473,,,
30,41,7,11,4,3,5,277,473,0,1,1192.5
30,41,7,11,4,4,4,277,473,0,1,1050.30000000447
30,41,7,11,4,5,3,277,473,0,1,1368.39999999851
30,41,7,11,4,6,2,277,473,0,1,1249.89999999851
30,41,7,11,4,7,1,277,473,0,1,1017.5
30,41,7,11,4,8,0,277,473,0,1,1100.10000000149
30,41,7,11,4,9,0,277,473,0,1,1050.10000000149
30,41,7,11,4,10,0,277,473,0,1,1217.20000000298
30,41,7,11,4,11,0,277,473,0,1,1200.60000000149
30,42,5,5,0,1,5,201,381,0,1,1183.19999999553
30,42,5,5,0,2,4,201,381,0,1,1088.89999999851
30,42,5,5,0,3,3,201,381,0,1,1234.89999999851
30,42,5,5,0,4,2,201,381,0,1,1301
30,42,5,5,0,5,1,201,381,0,1,1418.5
30,43,7,10,3,1,0,56,211,0,1,1283.39999999851
30,43,7,10,3,2,6,56,211,0,1,1334.80000000447
30,43,7,10,3,3,5,56,211,0,1,1250.10000000149
30,43,7,10,3,4,4,56,211,0,1,1284.79999999702
30,43,7,10,3,5,3,56,211,0,1,1068.10000000149
30,43,7,10,3,6,2,56,211,0,1,1134.40000000596
30,43,7,10,3,7,1,56,211,0,1,1084.79999999702
30,43,7,10,3,8,0,56,211,0,1,1151.89999999851
30,43,7,10,3,9,0,56,211,0,1,1134.79999999702
30,43,7,10,3,10,0,56,211,0,1,1134.5
30,44,6,6,0,1,6,309,487,0,1,1052
30,44,6,6,0,2,5,309,487,0,1,1034.80000000447
30,44,6,6,0,3,4,309,487,0,1,1118.20000000298
30,44,6,6,0,4,3,309,487,0,1,1035
30,44,6,6,0,5,2,309,487,0,1,1135.40000000596
30,44,6,6,0,6,1,309,487,0,1,1168.39999999851
30,45,7,7,0,1,0,23,238,0,1,1201.10000000149
30,45,7,7,0,2,6,23,238,0,1,1285.59999999404
30,45,7,7,0,3,5,23,238,0,1,1134.29999999702
30,45,7,7,0,4,4,23,238,0,1,867.10000000149
30,45,7,7,0,5,3,23,238,0,1,1085.19999999553
30,45,7,7,0,6,2,23,238,0,1,1135.89999999851
30,45,7,7,0,7,1,23,238,0,1,1068.20000000298
30,46,5,5,0,1,0,122,326,0,1,1250.5
30,46,5,5,0,2,4,122,326,0,1,1101.29999999702
30,46,5,5,0,3,3,122,326,0,1,983.89999999851
30,46,5,5,0,4,2,122,326,0,1,1134
30,46,5,5,0,5,1,122,326,0,1,1268.30000000447
30,47,5,9,4,1,0,239,451,0,1,1184.19999999553
30,47,5,9,4,2,4,239,451,0,1,1283.29999999702
30,47,5,9,4,3,3,239,451,0,1,1134.29999999702
30,47,5,9,4,4,2,239,451,0,1,1051.59999999404
30,47,5,9,4,5,1,239,451,0,1,1100.39999999851
30,47,5,9,4,6,0,239,451,0,1,1101.30000000447
30,47,5,9,4,7,0,239,451,0,1,1085.09999999404
30,47,5,9,4,8,0,239,451,0,1,1267.80000000447
30,47,5,9,4,9,0,239,451,0,1,1285.60000000149
30,48,7,4,-3,1,7,18,194,0,1,1301.39999999851
30,48,7,4,-3,2,6,18,194,0,1,1484.19999999553
30,48,7,4,-3,3,5,18,194,0,1,1184.90000000596
30,48,7,4,-3,4,4,18,194,0,1,918
30,49,6,7,1,1,3,290,476,0,1,1425.09999999404
30,49,6,7,1,2,5,290,476,0,1,1001.59999999404
30,49,6,7,1,3,4,290,476,0,1,1085.10000000149
30,49,6,7,1,4,3,290,476,0,1,1150.80000000447
30,49,6,7,1,5,2,290,476,,,
30,49,6,7,1,6,1,290,476,0,1,1215.5
30,49,6,7,1,7,0,290,476,0,1,1134.39999999851
30,50,5,1,-4,1,5,79,274,0,1,1168.80000000447
30,51,6,6,0,1,4,273,444,0,1,984.69999999553
30,51,6,6,0,2,5,273,444,0,1,1135.09999999404
30,51,6,6,0,3,4,273,444,0,1,1085.39999999851
30,51,6,6,0,4,3,273,444,0,1,1184.19999999553
30,51,6,6,0,5,2,273,444,0,1,1234.20000000298
30,51,6,6,0,6,1,273,444,0,1,1068.39999999851
30,52,5,5,0,1,0,357,544,0,1,1401.90000000596
30,52,5,5,0,2,4,357,544,0,1,1085.39999999851
30,52,5,5,0,3,3,357,544,0,1,1068.5
30,52,5,5,0,4,2,357,544,0,1,1316.70000000298
30,52,5,5,0,5,1,357,544,0,1,935.5
30,53,5,4,-1,1,0,268,469,0,1,1051.5
30,53,5,4,-1,2,4,268,469,0,1,1068.59999999404
30,53,5,4,-1,3,3,268,469,0,1,1018.39999999851
30,53,5,4,-1,4,2,268,469,0,1,1101.80000000447
30,54,5,5,0,1,1,341,543,0,1,1134.29999999702
30,54,5,5,0,2,4,341,543,0,1,1001.5
30,54,5,5,0,3,3,341,543,0,1,1102.10000000149
30,54,5,5,0,4,2,341,543,0,1,1152.10000000149
30,54,5,5,0,5,1,341,543,0,1,1201.20000000298
30,55,7,5,-2,1,0,216,421,,,
30,55,7,5,-2,2,6,216,421,0,1,1313.09999999404
30,55,7,5,-2,3,5,216,421,0,1,1085.10000000149
30,55,7,5,-2,4,4,216,421,0,1,951.89999999851
30,55,7,5,-2,5,3,216,421,0,1,1235.20000000298
30,56,6,6,0,1,2,333,551,0,1,1268.59999999404
30,56,6,6,0,2,5,333,551,0,1,1002
30,56,6,6,0,3,4,333,551,0,1,1318.5
30,56,6,6,0,4,3,333,551,0,1,1068.5
30,56,6,6,0,5,2,333,551,0,1,1068.60000000149
30,56,6,6,0,6,1,333,551,0,1,1118.29999999702
30,57,7,8,1,1,0,69,294,0,1,985.10000000149
30,57,7,8,1,2,6,69,294,0,1,984.89999999851
30,57,7,8,1,3,5,69,294,0,1,1035.10000000149
30,57,7,8,1,4,4,69,294,0,1,885
30,57,7,8,1,5,3,69,294,0,1,1318.30000000447
30,57,7,8,1,6,2,69,294,,,
30,57,7,8,1,7,1,69,294,0,1,1147.59999999404
30,57,7,8,1,8,0,69,294,0,1,1268.5
30,58,5,5,0,1,5,277,446,0,1,1168.5
30,58,5,5,0,2,4,277,446,0,1,1085.39999999851
30,58,5,5,0,3,3,277,446,0,1,1068.60000000149
30,58,5,5,0,4,2,277,446,0,1,1117.70000000298
30,58,5,5,0,5,1,277,446,0,1,1351.19999999553
30,59,7,8,1,1,0,163,359,0,1,1119
30,59,7,8,1,2,6,163,359,0,1,1184.60000000149
30,59,7,8,1,3,5,163,359,0,1,1351.90000000596
30,59,7,8,1,4,4,163,359,0,1,1335.29999999702
30,59,7,8,1,5,3,163,359,0,1,1152
30,59,7,8,1,6,2,163,359,0,1,1068.59999999404
30,59,7,8,1,7,1,163,359,0,1,1201.79999999702
30,59,7,8,1,8,0,163,359,0,1,967.89999999851
30,60,5,7,2,1,5,229,392,0,1,1402.20000000298
30,60,5,7,2,2,4,229,392,0,1,1118.39999999851
30,60,5,7,2,3,3,229,392,0,1,1118.70000000298
30,60,5,7,2,4,2,229,392,0,1,1036.19999999553
30,60,5,7,2,5,1,229,392,0,1,1085.10000000149
30,60,5,7,2,6,0,229,392,,,
30,60,5,7,2,7,0,229,392,0,1,1147.10000000149
30,61,7,7,0,1,7,64,271,0,1,1102.19999999553
30,61,7,7,0,2,6,64,271,0,1,1068.20000000298
30,61,7,7,0,3,5,64,271,0,1,1485.59999999404
30,61,7,7,0,4,4,64,271,0,1,1068.80000000447
30,61,7,7,0,5,3,64,271,0,1,1385.39999999851
30,61,7,7,0,6,2,64,271,0,1,1117.39999999851
30,61,7,7,0,7,1,64,271,0,1,1302.30000000447
30,62,6,2,-4,1,0,289,458,0,1,1118.5
30,62,6,2,-4,2,5,289,458,0,1,1168.70000000298
30,63,5,8,3,1,4,138,305,0,1,1252.29999999702
30,63,5,8,3,2,4,138,305,0,1,1102
30,63,5,8,3,3,3,138,305,0,1,1318.5
30,63,5,8,3,4,2,138,305,0,1,1085.39999999851
30,63,5,8,3,5,1,138,305,0,1,1018.80000000447
30,63,5,8,3,6,0,138,305,0,1,918.20000000298
30,63,5,8,3,7,0,138,305,0,1,1068.59999999404
30,63,5,8,3,8,0,138,305,0,1,1152.10000000149
30,64,6,6,0,1,6,258,436,0,1,1001.80000000447
30,64,6,6,0,2,5,258,436,0,1,1052.10000000149
30,64,6,6,0,3,4,258,436,0,1,1218.80000000447
30,64,6,6,0,4,3,258,436,0,1,1068.89999999851
30,64,6,6,0,5,2,258,436,0,1,1318.10000000149
30,64,6,6,0,6,1,258,436,0,1,1101.79999999702
30,65,5,5,0,1,0,313,538,0,1,1217
30,65,5,5,0,2,4,313,538,0,1,1168.39999999851
30,65,5,5,0,3,3,313,538,0,1,1118.69999999553
30,65,5,5,0,4,2,313,538,0,1,967.89999999851
30,65,5,5,0,5,1,313,538,0,1,1018.79999999702
30,66,6,6,0,1,0,102,328,0,1,952
30,66,6,6,0,2,5,102,328,0,1,1067.39999999851
30,66,6,6,0,3,4,102,328,0,1,1301.89999999851
30,66,6,6,0,4,3,102,328,0,1,1001.79999999702
30,66,6,6,0,5,2,102,328,0,1,1268.60000000149
30,66,6,6,0,6,1,102,328,0,1,1152.19999999553
30,67,6,8,2,1,0,127,300,0,1,1152.10000000149
30,67,6,8,2,2,5,127,300,0,1,1218.10000000149
30,67,6,8,2,3,4,127,300,0,1,1085.39999999851
30,67,6,8,2,4,3,127,300,0,1,1068.79999999702
30,67,6,8,2,5,2,127,300,0,1,901.89999999851
30,67,6,8,2,6,1,127,300,0,1,1068.80000000447
30,67,6,8,2,7,0,127,300,0,1,1169
30,67,6,8,2,8,0,127,300,0,1,1218.69999999553
30,68,6,6,0,1,6,165,332,0,1,1285.39999999851
30,68,6,6,0,2,5,165,332,0,1,1319.10000000149
30,68,6,6,0,3,4,165,332,0,1,1018.60000000149
30,68,6,6,0,4,3,165,332,0,1,1252.10000000149
30,68,6,6,0,5,2,165,332,0,1,1102.29999999702
30,68,6,6,0,6,1,165,332,0,1,1118.60000000149
30,69,6,6,0,1,0,122,312,0,1,1068.60000000149
30,69,6,6,0,2,5,122,312,9,0,1085.29999999702
30,69,6,6,0,3,4,122,312,0,1,1199.70000000298
30,69,6,6,0,4,3,122,312,0,1,1235.5
30,69,6,6,0,5,2,122,312,0,1,1152.19999999553
30,69,6,6,0,6,1,122,312,0,1,1202.10000000149
30,70,6,5,-1,1,0,185,413,0,1,1151.80000000447
30,70,6,5,-1,2,5,185,413,0,1,1168.69999999553
30,70,6,5,-1,3,4,185,413,0,1,1135.70000000298
30,70,6,5,-1,4,3,185,413,0,1,1585
30,70,6,5,-1,5,2,185,413,0,1,1235.39999999851
30,71,5,5,0,1,1,279,427,0,1,1352
30,71,5,5,0,2,4,279,427,0,1,1185.30000000447
30,71,5,5,0,3,3,279,427,0,1,1218.89999999851
30,71,5,5,0,4,2,279,427,0,1,1152.20000000298
30,71,5,5,0,5,1,279,427,0,1,1368.60000000149
30,72,5,1,-4,1,0,124,334,0,1,1102
30,73,6,3,-3,1,6,177,374,0,1,1118.09999999404
30,73,6,3,-3,2,5,177,374,0,1,1151.80000000447
30,73,6,3,-3,3,4,177,374,0,1,1085.60000000149
30,74,5,5,0,1,3,295,520,0,1,1318.19999999553
30,74,5,5,0,2,4,295,520,0,1,1102.10000000149
30,74,5,5,0,3,3,295,520,0,1,1101.90000000596
30,74,5,5,0,4,2,295,520,0,1,1168.80000000447
30,74,5,5,0,5,1,295,520,0,1,1052.19999999553
30,75,7,7,0,1,0,188,415,0,1,1068.20000000298
30,75,7,7,0,2,6,188,415,0,1,1233.39999999851
30,75,7,7,0,3,5,188,415,0,1,1085.30000000447
30,75,7,7,0,4,4,188,415,0,1,1302.19999999553
30,75,7,7,0,5,3,188,415,0,1,1152.5
30,75,7,7,0,6,2,188,415,0,1,1168.60000000149
30,75,7,7,0,7,1,188,415,0,1,1052.29999999702
30,76,6,4,-2,1,0,311,471,0,1,1185.39999999851
30,76,6,4,-2,2,5,311,471,0,1,1168.70000000298
30,76,6,4,-2,3,4,311,471,0,1,968.5
30,76,6,4,-2,4,3,311,471,0,1,1068.79999999702
30,77,5,8,3,1,2,246,434,0,1,1168.70000000298
30,77,5,8,3,2,4,246,434,0,1,1035.70000000298
30,77,5,8,3,3,3,246,434,0,1,1052
30,77,5,8,3,4,2,246,434,0,1,1284.89999999851
30,77,5,8,3,5,1,246,434,0,1,1168.5
30,77,5,8,3,6,0,246,434,0,1,1202.5
30,77,5,8,3,7,0,246,434,0,1,1152.20000000298
30,77,5,8,3,8,0,246,434,0,1,1135.20000000298
30,78,7,7,0,1,7,237,405,0,1,1185.10000000149
30,78,7,7,0,2,6,237,405,0,1,1118.79999999702
30,78,7,7,0,3,5,237,405,0,1,1218.90000000596
30,78,7,7,0,4,4,237,405,0,1,1268.89999999851
30,78,7,7,0,5,3,237,405,0,1,1002.10000000149
30,78,7,7,0,6,2,237,405,0,1,1101.5
30,78,7,7,0,7,1,237,405,0,1,1052.10000000149
30,79,6,6,0,1,0,58,239,0,1,1068.59999999404
30,79,6,6,0,2,5,58,239,0,1,1069
30,79,6,6,0,3,4,58,239,0,1,1235.20000000298
30,79,6,6,0,4,3,58,239,0,1,1302
30,79,6,6,0,5,2,58,239,0,1,1035.10000000149
30,79,6,6,0,6,1,58,239,0,1,1118.90000000596
30,80,6,3,-3,1,0,306,519,0,1,1301.89999999851
30,80,6,3,-3,2,5,306,519,0,1,1485.60000000149
30,80,6,3,-3,3,4,306,519,0,1,952.19999999553
30,81,7,11,4,1,3,96,313,0,1,1278.39999999851
30,81,7,11,4,2,6,96,313,,,
30,81,7,11,4,3,5,96,313,0,1,1248.29999999702
30,81,7,11,4,4,4,96,313,0,1,1068.20000000298
30,81,7,11,4,5,3,96,313,,,
30,81,7,11,4,6,2,96,313,0,1,1181.60000000149
30,81,7,11,4,7,1,96,313,0,1,1268.69999999553
30,81,7,11,4,8,0,96,313,3,0,1401.60000000149
30,81,7,11,4,9,0,96,313,0,1,1200.10000000149
30,81,7,11,4,10,0,96,313,0,1,1135.60000000149
30,81,7,11,4,11,0,96,313,0,1,1052.29999999702
30,82,5,3,-2,1,5,32,236,0,1,1051.79999999702
30,82,5,3,-2,2,4,32,236,,,
30,82,5,3,-2,3,3,32,236,0,1,1382.39999999851
30,83,5,5,0,1,2,162,372,0,1,1335.39999999851
30,83,5,5,0,2,4,162,372,0,1,1069
30,83,5,5,0,3,3,162,372,0,1,1085.69999999553
30,83,5,5,0,4,2,162,372,0,1,1085.79999999702
30,83,5,5,0,5,1,162,372,0,1,1218.80000000447
30,84,6,6,0,1,0,144,300,0,1,1335.60000000149
30,84,6,6,0,2,5,144,300,0,1,1118.89999999851
30,84,6,6,0,3,4,144,300,0,1,1335.20000000298
30,84,6,6,0,4,3,144,300,0,1,1402.5
30,84,6,6,0,5,2,144,300,,,
30,84,6,6,0,6,1,144,300,0,1,1365.60000000149
30,85,7,7,0,1,0,295,455,0,1,1402.30000000447
30,85,7,7,0,2,6,295,455,0,1,1251.89999999851
30,85,7,7,0,3,5,295,455,0,1,1185.59999999404
30,85,7,7,0,4,4,295,455,0,1,1335.39999999851
30,85,7,7,0,5,3,295,455,0,1,1285.59999999404
30,85,7,7,0,6,2,295,455,0,1,1068.70000000298
30,85,7,7,0,7,1,295,455,0,1,1084.60000000149
30,86,5,5,0,1,0,202,370,0,1,1102.09999999404
30,86,5,5,0,2,4,202,370,0,1,1135.19999999553
30,86,5,5,0,3,3,202,370,0,1,1035.60000000149
30,86,5,5,0,4,2,202,370,0,1,1218.70000000298
30,86,5,5,0,5,1,202,370,0,1,1119.10000000149
30,87,6,6,0,1,0,280,505,0,1,1018.79999999702
30,87,6,6,0,2,5,280,505,0,1,1101.89999999851
30,87,6,6,0,3,4,280,505,0,1,1285.60000000149
30,87,6,6,0,4,3,280,505,0,1,1302.39999999851
30,87,6,6,0,5,2,280,505,0,1,1152.20000000298
30,87,6,6,0,6,1,280,505,0,1,1335.29999999702
30,88,5,2,-3,1,0,95,257,0,1,1252.19999999553
30,88,5,2,-3,2,4,95,257,0,1,1119
30,89,5,5,0,1,3,116,277,0,1,1152
30,89,5,5,0,2,4,116,277,0,1,1085.70000000298
30,89,5,5,0,3,3,116,277,0,1,1035.29999999702
30,89,5,5,0,4,2,116,277,0,1,1168.39999999851
30,89,5,5,0,5,1,116,277,0,1,1035.60000000149
30,90,5,7,2,1,0,272,486,0,1,1235.89999999851
30,90,5,7,2,2,4,272,486,0,1,1219.10000000149
30,90,5,7,2,3,3,272,486,0,1,1052
30,90,5,7,2,4,2,272,486,0,1,1052.39999999851
30,90,5,7,2,5,1,272,486,0,1,1019.19999999553
30,90,5,7,2,6,0,272,486,0,1,968.70000000298
30,90,5,7,2,7,0,272,486,0,1,1119.10000000149
30,91,7,7,0,1,7,356,524,0,1,1052.30000000447
30,91,7,7,0,2,6,356,524,0,1,1102.10000000149
30,91,7,7,0,3,5,356,524,0,1,1069.19999999553
30,91,7,7,0,4,4,356,524,0,1,1102.29999999702
30,91,7,7,0,5,3,356,524,0,1,968.89999999851
30,91,7,7,0,6,2,356,524,0,1,1119.20000000298
30,91,7,7,0,7,1,356,524,0,1,1285.69999999553
30,92,6,6,0,1,0,267,440,0,1,1085.59999999404
30,92,6,6,0,2,5,267,440,0,1,1035.80000000447
30,92,6,6,0,3,4,267,440,0,1,1118.60000000149
30,92,6,6,0,4,3,267,440,0,1,935.70000000298
30,92,6,6,0,5,2,267,440,0,1,935.60000000149
30,92,6,6,0,6,1,267,440,0,1,1168.79999999702
30,93,6,6,0,1,0,126,314,0,1,1385.80000000447
30,93,6,6,0,2,5,126,314,0,1,1251.80000000447
30,93,6,6,0,3,4,126,314,0,1,1319.10000000149
30,93,6,6,0,4,3,126,314,0,1,1052.10000000149
30,93,6,6,0,5,2,126,314,0,1,1152.5
30,93,6,6,0,6,1,126,314,0,1,1152.29999999702
30,94,7,7,0,1,0,281,482,0,1,1318.60000000149
30,94,7,7,0,2,6,281,482,0,1,1202.20000000298
30,94,7,7,0,3,5,281,482,0,1,1235.60000000149
30,94,7,7,0,4,4,281,482,0,1,1152.39999999851
30,94,7,7,0,5,3,281,482,0,1,1068.79999999702
30,94,7,7,0,6,2,281,482,0,1,985.70000000298
30,94,7,7,0,7,1,281,482,0,1,1152.60000000149
30,95,5,5,0,1,0,94,324,0,1,1285.5
30,95,5,5,0,2,4,94,324,0,1,1119.20000000298
30,95,5,5,0,3,3,94,324,0,1,1168.79999999702
30,95,5,5,0,4,2,94,324,0,1,1235.59999999404
30,95,5,5,0,5,1,94,324,0,1,1385.69999999553
30,96,5,3,-2,1,0,58,291,0,1,1185.89999999851
30,96,5,3,-2,2,4,58,291,0,1,1118.5
30,96,5,3,-2,3,3,58,291,0,1,1235.70000000298
23,1,6,6,0,1,6,358,522,0,1,1944
23,1,6,6,0,2,5,358,522,0,1,1921
23,1,6,6,0,3,4,358,522,0,1,1457
23,1,6,6,0,4,3,358,522,0,1,1771
23,1,6,6,0,5,2,358,522,0,1,1142
23,1,6,6,0,6,1,358,522,0,1,1217
23,2,6,4,-2,1,0,277,437,0,1,1554
23,2,6,4,-2,2,5,277,437,0,1,1207
23,2,6,4,-2,3,4,277,437,0,1,1508
23,2,6,4,-2,4,3,277,437,0,1,1307
23,3,7,8,1,1,2,147,309,0,1,1790
23,3,7,8,1,2,6,147,309,0,1,1858.00000000001
23,3,7,8,1,3,5,147,309,0,1,2392
23,3,7,8,1,4,4,147,309,0,1,1274
23,3,7,8,1,5,3,147,309,0,1,1407
23,3,7,8,1,6,2,147,309,0,1,1309
23,3,7,8,1,7,1,147,309,0,1,1159
23,3,7,8,1,8,0,147,309,0,1,1325
23,4,6,6,0,1,6,330,499,0,1,1658
23,4,6,6,0,2,5,330,499,0,1,2275.00000000001
23,4,6,6,0,3,4,330,499,0,1,1342
23,4,6,6,0,4,3,330,499,0,1,1509
23,4,6,6,0,5,2,330,499,0,1,1775
23,4,6,6,0,6,1,330,499,0,1,1343
23,5,5,2,-3,1,0,96,268,0,1,2158.99999999999
23,5,5,2,-3,2,4,96,268,0,1,1460.00000000001
23,6,7,7,0,1,3,35,263,0,1,3241
23,6,7,7,0,2,6,35,263,0,1,1210
23,6,7,7,0,3,5,35,263,0,1,1308.99999999999
23,6,7,7,0,4,4,35,263,0,1,1127
23,6,7,7,0,5,3,35,263,0,1,1342
23,6,7,7,0,6,2,35,263,0,1,1274.99999999999
23,6,7,7,0,7,1,35,263,0,1,1207
23,7,6,6,0,1,0,73,286,0,1,1374
23,7,6,6,0,2,5,73,286,0,1,1160
23,7,6,6,0,3,4,73,286,0,1,1342
23,7,6,6,0,4,3,73,286,0,1,1293
23,7,6,6,0,5,2,73,286,0,1,1310
23,7,6,6,0,6,1,73,286,0,1,1226
23,8,6,6,0,1,0,102,316,0,1,1276
23,8,6,6,0,2,5,102,316,0,1,1278
23,8,6,6,0,3,4,102,316,0,1,1259
23,8,6,6,0,4,3,102,316,0,1,1309
23,8,6,6,0,5,2,102,316,0,1,1277
23,8,6,6,0,6,1,102,316,0,1,1226
23,9,5,3,-2,1,0,202,373,0,1,1427
23,9,5,3,-2,2,4,202,373,0,1,1360
23,9,5,3,-2,3,3,202,373,0,1,1143
23,10,5,5,0,1,2,211,406,0,1,1227
23,10,5,5,0,2,4,211,406,0,1,1210
23,10,5,5,0,3,3,211,406,0,1,1393
23,10,5,5,0,4,2,211,406,0,1,1176
23,10,5,5,0,5,1,211,406,0,1,1127.00000000001
23,11,6,6,0,1,0,351,569,0,1,2095
23,11,6,6,0,2,5,351,569,0,1,1778
23,11,6,6,0,3,4,351,569,0,1,1411
23,11,6,6,0,4,3,351,569,0,1,1259
23,11,6,6,0,5,2,351,569,0,1,1326
23,11,6,6,0,6,1,351,569,0,1,1543.99999999999
23,12,7,7,0,1,0,88,294,0,1,1478.00000000001
23,12,7,7,0,2,6,88,294,0,1,1212.00000000001
23,12,7,7,0,3,5,88,294,0,1,2195
23,12,7,7,0,4,4,88,294,0,1,1210.99999999999
23,12,7,7,0,5,3,88,294,0,1,1129
23,12,7,7,0,6,2,88,294,0,1,1113
23,12,7,7,0,7,1,88,294,0,1,1160
23,13,7,10,3,1,0,269,492,0,1,1428
23,13,7,10,3,2,6,269,492,0,1,2078
23,13,7,10,3,3,5,269,492,0,1,1244.99999999997
23,13,7,10,3,4,4,269,492,0,1,1312
23,13,7,10,3,5,3,269,492,0,1,1745.00000000003
23,13,7,10,3,6,2,269,492,0,1,1161
23,13,7,10,3,7,1,269,492,0,1,1130
23,13,7,10,3,8,0,269,492,0,1,1262
23,13,7,10,3,9,0,269,492,0,1,1127.00000000003
23,13,7,10,3,10,0,269,492,0,1,1081.99999999997
23,14,7,7,0,1,7,327,556,1,0,1195
23,,,,,,,,,,,
23,14,7,7,0,2,6,327,556,0,1,1357
23,14,7,7,0,3,5,327,556,0,1,1529
23,14,7,7,0,4,4,327,556,0,1,1579
23,14,7,7,0,5,3,327,556,0,1,1213
23,14,7,7,0,6,2,327,556,0,1,1164.00000000003
23,14,7,7,0,7,1,327,556,0,1,1396.00000000003
23,15,7,7,0,1,0,60,207,0,1,1213
23,15,7,7,0,2,6,60,207,0,1,1259.99999999997
23,15,7,7,0,3,5,60,207,0,1,1179
23,15,7,7,0,4,4,60,207,0,1,1212
23,15,7,7,0,5,3,60,207,0,1,1196.99999999997
23,15,7,7,0,6,2,60,207,0,1,1397
23,15,7,7,0,7,1,60,207,0,1,1229.00000000003
23,16,5,2,-3,1,0,267,456,0,1,1330
23,16,5,2,-3,2,4,267,456,0,1,1279
23,17,7,7,0,1,3,171,336,0,1,1420
23,17,7,7,0,2,6,171,336,0,1,1164
23,17,7,7,0,3,5,171,336,0,1,1230
23,17,7,7,0,4,4,171,336,0,1,1144
23,17,7,7,0,5,3,171,336,0,1,1247
23,17,7,7,0,6,2,171,336,0,1,1281
23,17,7,7,0,7,1,171,336,0,1,1330
23,18,5,5,0,1,0,128,344,0,1,1297
23,18,5,5,0,2,4,128,344,0,1,1264.00000000003
23,18,5,5,0,3,3,128,344,0,1,1381
23,18,5,5,0,4,2,128,344,0,1,1664.00000000003
23,18,5,5,0,5,1,128,344,0,1,1148
23,19,5,5,0,1,0,106,307,0,1,1848
23,19,5,5,0,2,4,106,307,0,1,1199
23,19,5,5,0,3,3,106,307,0,1,1281
23,19,5,5,0,4,2,106,307,0,1,2082
23,19,5,5,0,5,1,106,307,0,1,1181.00000000003
23,20,5,4,-1,1,0,165,318,0,1,1365.99999999997
23,20,5,4,-1,2,4,165,318,0,1,1131
23,20,5,4,-1,3,3,165,318,0,1,1314
23,20,5,4,-1,4,2,165,318,0,1,1182
23,21,6,7,1,1,1,288,514,0,1,1730
23,21,6,7,1,2,5,288,514,0,1,1298
23,21,6,7,1,3,4,288,514,0,1,1264
23,21,6,7,1,4,3,288,514,0,1,1849
23,21,6,7,1,5,2,288,514,0,1,2898
23,21,6,7,1,6,1,288,514,0,1,1396.99999999997
23,21,6,7,1,7,0,288,514,0,1,1316
23,22,5,5,0,1,5,329,479,0,1,2699
23,22,5,5,0,2,4,329,479,0,1,1283
23,22,5,5,0,3,3,329,479,0,1,1317
23,22,5,5,0,4,2,329,479,0,1,1365.00000000003
23,22,5,5,0,5,1,329,479,0,1,1282
23,23,5,5,0,1,0,196,367,0,1,1266
23,23,5,5,0,2,4,196,367,0,1,1182
23,23,5,5,0,3,3,196,367,0,1,1217.00000000003
23,23,5,5,0,4,2,196,367,0,1,1149
23,23,5,5,0,5,1,196,367,0,1,1400.00000000003
23,24,7,8,1,1,0,158,383,0,1,1149
23,24,7,8,1,2,6,158,383,0,1,1282.99999999997
23,24,7,8,1,3,5,158,383,0,1,1199
23,24,7,8,1,4,4,158,383,0,1,1365
23,24,7,8,1,5,3,158,383,0,1,1750.99999999997
23,24,7,8,1,6,2,158,383,0,1,1231
23,24,7,8,1,7,1,158,383,0,1,1533
23,24,7,8,1,8,0,158,383,0,1,1151
23,25,7,3,-4,1,7,87,260,0,1,1532.00000000003
23,25,7,3,-4,2,6,87,260,0,1,1317.00000000003
23,25,7,3,-4,3,5,87,260,0,1,1384
23,26,6,2,-4,1,4,244,411,0,1,2216
23,26,6,2,-4,2,5,244,411,0,1,1267
23,27,6,6,0,1,4,346,529,0,1,1500
23,27,6,6,0,2,5,346,529,0,1,1200
23,27,6,6,0,3,4,346,529,0,1,1351
23,27,6,6,0,4,3,346,529,0,1,1600
23,27,6,6,0,5,2,346,529,0,1,1266
23,27,6,6,0,6,1,346,529,0,1,1167
23,28,7,7,0,1,0,208,384,0,1,1634
23,28,7,7,0,2,6,208,384,0,1,1068
23,28,7,7,0,3,5,208,384,0,1,1299
23,28,7,7,0,4,4,208,384,0,1,1334.99999999997
23,28,7,7,0,5,3,208,384,0,1,1217.00000000003
23,28,7,7,0,6,2,208,384,0,1,1567
23,28,7,7,0,7,1,208,384,0,1,1300.99999999997
23,29,5,9,4,1,0,286,518,0,1,1401.99999999997
23,29,5,9,4,2,4,286,518,0,1,1267
23,29,5,9,4,3,3,286,518,0,1,1236
23,29,5,9,4,4,2,286,518,0,1,1385
23,29,5,9,4,5,1,286,518,0,1,1135
23,29,5,9,4,6,0,286,518,0,1,1400.99999999994
23,29,5,9,4,7,0,286,518,0,1,1433.99999999994
23,29,5,9,4,8,0,286,518,0,1,1418
23,29,5,9,4,9,0,286,518,0,1,1384
23,30,6,3,-3,1,6,133,360,0,1,1485
23,30,6,3,-3,2,5,133,360,0,1,1301
23,30,6,3,-3,3,4,133,360,0,1,1185
23,31,6,2,-4,1,3,38,217,0,1,1951
23,31,6,2,-4,2,5,38,217,0,1,1652
23,32,7,11,4,1,4,35,244,0,1,1235
23,32,7,11,4,2,6,35,244,0,1,1336
23,32,7,11,4,3,5,35,244,0,1,1269
23,32,7,11,4,4,4,35,244,0,1,1050
23,32,7,11,4,5,3,35,244,0,1,1236
23,32,7,11,4,6,2,35,244,0,1,1185
23,32,7,11,4,7,1,35,244,0,1,1351.99999999994
23,32,7,11,4,8,0,35,244,0,1,1303
23,32,7,11,4,9,0,35,244,0,1,1736
23,32,7,11,4,10,0,35,244,0,1,1287
23,32,7,11,4,11,0,35,244,0,1,1619
23,33,7,10,3,1,7,105,281,0,1,1680.99999999994
23,33,7,10,3,2,6,105,281,0,1,1333
23,33,7,10,3,3,5,105,281,0,1,1321
23,33,7,10,3,4,4,105,281,0,1,1251.99999999994
23,33,7,10,3,5,3,105,281,0,1,1652
23,33,7,10,3,6,2,105,281,0,1,1320
23,33,7,10,3,7,1,105,281,0,1,1269
23,33,7,10,3,8,0,105,281,0,1,1269.99999999994
23,33,7,10,3,9,0,105,281,0,1,1653
23,33,7,10,3,10,0,105,281,0,1,1185.99999999994
23,34,6,6,0,1,6,260,493,0,1,1637
23,34,6,6,0,2,5,260,493,0,1,1354
23,34,6,6,0,3,4,260,493,0,1,1070.00000000006
23,34,6,6,0,4,3,260,493,0,1,1355
23,34,6,6,0,5,2,260,493,0,1,1253
23,34,6,6,0,6,1,260,493,0,1,1154
23,35,6,7,1,1,0,4,176,0,1,1821
23,35,6,7,1,2,5,4,176,0,1,1454
23,35,6,7,1,3,4,4,176,0,1,1238
23,35,6,7,1,4,3,4,176,0,1,1186.99999999994
23,35,6,7,1,5,2,4,176,0,1,1304
23,35,6,7,1,6,1,4,176,0,1,1520
23,35,6,7,1,7,0,4,176,0,1,1354.00000000006
23,36,6,6,0,1,6,36,244,0,1,1172
23,36,6,6,0,2,5,36,244,0,1,1187
23,36,6,6,0,3,4,36,244,0,1,1286
23,36,6,6,0,4,3,36,244,0,1,1307.00000000006
23,36,6,6,0,5,2,36,244,0,1,1388
23,36,6,6,0,6,1,36,244,0,1,1171.00000000006
23,37,6,6,0,1,0,322,493,0,1,1355
23,37,6,6,0,2,5,322,493,0,1,1289
23,37,6,6,0,3,4,322,493,0,1,1338
23,37,6,6,0,4,3,322,493,0,1,1489.00000000006
23,37,6,6,0,5,2,322,493,0,1,1321
23,37,6,6,0,6,1,322,493,0,1,1203.99999999994
23,38,5,7,2,1,0,163,336,0,1,2438.00000000006
23,38,5,7,2,2,4,163,336,0,1,1289
23,38,5,7,2,3,3,163,336,0,1,1505
23,38,5,7,2,4,2,163,336,0,1,1272
23,38,5,7,2,5,1,163,336,0,1,1271
23,38,5,7,2,6,0,163,336,0,1,1240
23,38,5,7,2,7,0,163,336,0,1,1989
23,39,7,11,4,1,7,35,239,0,1,1372.00000000006
23,39,7,11,4,2,6,35,239,0,1,1255
23,39,7,11,4,3,5,35,239,0,1,1555.00000000006
23,39,7,11,4,4,4,35,239,0,1,1390
23,39,7,11,4,5,3,35,239,0,1,1239
23,39,7,11,4,6,2,35,239,0,1,1255.99999999994
23,39,7,11,4,7,1,35,239,0,1,1273
23,39,7,11,4,8,0,35,239,0,1,1306
23,39,7,11,4,9,0,35,239,0,1,1823.00000000006
23,39,7,11,4,10,0,35,239,0,1,1288
23,39,7,11,4,11,0,35,239,0,1,1473
23,40,5,1,-4,1,5,327,526,0,1,1205.00000000006
23,41,5,6,1,1,4,248,479,0,1,1223
23,41,5,6,1,2,4,248,479,0,1,1222.99999999994
23,41,5,6,1,3,3,248,479,0,1,1323.99999999994
23,41,5,6,1,4,2,248,479,0,1,1372.99999999994
23,41,5,6,1,5,1,248,479,0,1,1291
23,41,5,6,1,6,0,248,479,0,1,1471.99999999994
23,42,5,8,3,1,5,29,218,0,1,1623
23,42,5,8,3,2,4,29,218,0,1,1306.00000000006
23,42,5,8,3,3,3,29,218,0,1,1274
23,42,5,8,3,4,2,29,218,0,1,1423
23,42,5,8,3,5,1,29,218,0,1,1224
23,42,5,8,3,6,0,29,218,0,1,1224.00000000006
23,42,5,8,3,7,0,29,218,0,1,1174
23,42,5,8,3,8,0,29,218,0,1,1123
23,43,5,4,-1,1,5,288,435,0,1,2274
23,43,5,4,-1,2,4,288,435,0,1,1591
23,43,5,4,-1,3,3,288,435,0,1,1258
23,43,5,4,-1,4,2,288,435,0,1,1308
23,44,5,9,4,1,1,126,324,0,1,1473
23,44,5,9,4,2,4,126,324,0,1,1208
23,44,5,9,4,3,3,126,324,0,1,1509
23,44,5,9,4,4,2,126,324,0,1,1541
23,44,5,9,4,5,1,126,324,0,1,1454
23,44,5,9,4,6,0,126,324,0,1,1402
23,44,5,9,4,7,0,126,324,0,1,1465
23,44,5,9,4,8,0,126,324,0,1,1295
23,44,5,9,4,9,0,126,324,0,1,1295
23,45,5,5,0,1,5,34,263,0,1,1274
23,45,5,5,0,2,4,34,263,0,1,1272
23,45,5,5,0,3,3,34,263,0,1,1236.99999999994
23,45,5,5,0,4,2,34,263,0,1,1086.00000000006
23,45,5,5,0,5,1,34,263,0,1,1034.00000000006
23,46,7,3,-4,1,0,65,270,0,1,1515
23,46,7,3,-4,2,6,65,270,0,1,1182
23,46,7,3,-4,3,5,65,270,0,1,1278
23,47,7,5,-2,1,4,329,563,0,1,1228
23,47,7,5,-2,2,6,329,563,0,1,1209
23,47,7,5,-2,3,5,329,563,0,1,1276
23,47,7,5,-2,4,4,329,563,0,1,1242.00000000006
23,47,7,5,-2,5,3,329,563,0,1,1273.00000000006
23,48,7,7,0,1,2,84,285,6,0,1555
23,,,,,,,,,,,
23,48,7,7,0,2,6,84,285,0,1,1466
23,48,7,7,0,3,5,84,285,0,1,2135
23,48,7,7,0,4,4,84,285,0,1,1232
23,48,7,7,0,5,3,84,285,0,1,1651
23,48,7,7,0,6,2,84,285,0,1,1249
23,48,7,7,0,7,1,84,285,0,1,1265
23,49,5,8,3,1,0,92,251,0,1,1621
23,49,5,8,3,2,4,92,251,0,1,1231.99999999994
23,49,5,8,3,3,3,92,251,0,1,1498
23,49,5,8,3,4,2,92,251,0,1,1363
23,49,5,8,3,5,1,92,251,0,1,1747.99999999994
23,49,5,8,3,6,0,92,251,0,1,1131
23,49,5,8,3,7,0,92,251,0,1,1281
23,49,5,8,3,8,0,92,251,0,1,1230.00000000006
23,50,7,7,0,1,7,159,388,0,1,1282
23,50,7,7,0,2,6,159,388,0,1,1212.99999999994
23,50,7,7,0,3,5,159,388,0,1,2047
23,50,7,7,0,4,4,159,388,0,1,1330.00000000006
23,50,7,7,0,5,3,159,388,0,1,1229
23,50,7,7,0,6,2,159,388,0,1,1231
23,50,7,7,0,7,1,159,388,0,1,1296
23,51,5,5,0,1,0,309,543,0,1,1396
23,51,5,5,0,2,4,309,543,0,1,1146.00000000006
23,51,5,5,0,3,3,309,543,0,1,1263.99999999994
23,51,5,5,0,4,2,309,543,0,1,1328
23,51,5,5,0,5,1,309,543,0,1,1394.99999999994
23,52,6,6,0,1,0,283,493,0,1,1196
23,52,6,6,0,2,5,283,493,0,1,1314
23,52,6,6,0,3,4,283,493,0,1,1163
23,52,6,6,0,4,3,283,493,0,1,1312
23,52,6,6,0,5,2,283,493,0,1,1778.00000000006
23,52,6,6,0,6,1,283,493,0,1,1462.99999999994
23,53,6,8,2,1,0,145,352,0,1,1396
23,53,6,8,2,2,5,145,352,0,1,1279
23,53,6,8,2,3,4,145,352,0,1,1296
23,53,6,8,2,4,3,145,352,0,1,1212
23,53,6,8,2,5,2,145,352,0,1,1313
23,53,6,8,2,6,1,145,352,0,1,1230
23,53,6,8,2,7,0,145,352,0,1,1480.00000000006
23,53,6,8,2,8,0,145,352,0,1,1178.99999999994
23,54,5,5,0,1,5,68,257,0,1,1146
23,54,5,5,0,2,4,68,257,0,1,1247.00000000006
23,54,5,5,0,3,3,68,257,0,1,1229.99999999994
23,54,5,5,0,4,2,68,257,0,1,1230
23,54,5,5,0,5,1,68,257,0,1,979
23,55,7,4,-3,1,0,197,359,0,1,1311.99999999994
23,55,7,4,-3,2,6,197,359,0,1,1296
23,55,7,4,-3,3,5,197,359,0,1,1246
23,55,7,4,-3,4,4,197,359,0,1,1346
23,56,6,10,4,1,3,243,428,0,1,1428.99999999994
23,56,6,10,4,2,5,243,428,0,1,1162
23,56,6,10,4,3,4,243,428,0,1,1627
23,56,6,10,4,4,3,243,428,0,1,1145
23,56,6,10,4,5,2,243,428,0,1,1296.99999999994
23,56,6,10,4,6,1,243,428,0,1,1363
23,56,6,10,4,7,0,243,428,0,1,1263.00000000006
23,56,6,10,4,8,0,243,428,0,1,1262.99999999994
23,56,6,10,4,9,0,243,428,0,1,1113
23,56,6,10,4,10,0,243,428,0,1,1130
23,57,5,5,0,1,5,274,454,0,1,1197.99999999994
23,57,5,5,0,2,4,274,454,0,1,1129.00000000006
23,57,5,5,0,3,3,274,454,0,1,1197
23,57,5,5,0,4,2,274,454,0,1,1298
23,57,5,5,0,5,1,274,454,0,1,1181.00000000006
23,58,5,5,0,1,0,192,367,0,1,1195.99999999994
23,58,5,5,0,2,4,192,367,0,1,1163
23,58,5,5,0,3,3,192,367,0,1,1329
23,58,5,5,0,4,2,192,367,0,1,1331
23,58,5,5,0,5,1,192,367,0,1,1245
23,59,6,6,0,1,0,272,480,0,1,2097
23,59,6,6,0,2,5,272,480,0,1,1096
23,59,6,6,0,3,4,272,480,0,1,1180.99999999994
23,59,6,6,0,4,3,272,480,0,1,1280.99999999994
23,59,6,6,0,5,2,272,480,0,1,1280.99999999994
23,59,6,6,0,6,1,272,480,0,1,1030
23,60,6,4,-2,1,0,170,338,0,1,1313.99999999994
23,60,6,4,-2,2,5,170,338,0,1,1231
23,60,6,4,-2,3,4,170,338,0,1,1597
23,60,6,4,-2,4,3,170,338,0,1,1364
23,61,6,8,2,1,2,73,294,0,1,1214
23,61,6,8,2,2,5,73,294,0,1,1113.99999999994
23,61,6,8,2,3,4,73,294,0,1,1097
23,61,6,8,2,4,3,73,294,0,1,1130.99999999994
23,61,6,8,2,5,2,73,294,0,1,1198.00000000012
23,61,6,8,2,6,1,73,294,0,1,1264
23,61,6,8,2,7,0,73,294,0,1,1281.00000000006
23,61,6,8,2,8,0,73,294,0,1,1212.99999999994
23,62,6,6,0,1,6,323,494,0,1,1630.99999999994
23,62,6,6,0,2,5,323,494,0,1,1346.99999999994
23,62,6,6,0,3,4,323,494,0,1,1780
23,62,6,6,0,4,3,323,494,0,1,1265
23,62,6,6,0,5,2,323,494,0,1,1180.99999999994
23,62,6,6,0,6,1,323,494,0,1,1296.99999999988
23,63,5,7,2,1,0,109,269,0,1,1565
23,63,5,7,2,2,4,109,269,0,1,1081
23,63,5,7,2,3,3,109,269,0,1,1564
23,63,5,7,2,4,2,109,269,0,1,1215
23,63,5,7,2,5,1,109,269,0,1,1131
23,63,5,7,2,6,0,109,269,0,1,1199
23,63,5,7,2,7,0,109,269,0,1,1180.99999999988
23,64,6,5,-1,1,6,219,437,0,1,1382
23,64,6,5,-1,2,5,219,437,0,1,1248
23,64,6,5,-1,3,4,219,437,0,1,1549
23,64,6,5,-1,4,3,219,437,0,1,1248.99999999988
23,64,6,5,-1,5,2,219,437,0,1,1265.00000000012
23,65,5,5,0,1,1,279,451,0,1,1558
23,65,5,5,0,2,4,279,451,0,1,1349
23,65,5,5,0,3,3,279,451,0,1,1315
23,65,5,5,0,4,2,279,451,0,1,1317
23,65,5,5,0,5,1,279,451,0,1,1382
23,66,7,5,-2,1,0,156,381,0,1,1266
23,66,7,5,-2,2,6,156,381,0,1,1166
23,66,7,5,-2,3,5,156,381,0,1,1299
23,66,7,5,-2,4,4,156,381,0,1,1549.00000000012
23,66,7,5,-2,5,3,156,381,0,1,1416
23,67,6,6,0,1,2,213,445,0,1,1816.00000000012
23,67,6,6,0,2,5,213,445,0,1,1265
23,67,6,6,0,3,4,213,445,0,1,1284
23,67,6,6,0,4,3,213,445,0,1,1133
23,67,6,6,0,5,2,213,445,0,1,1666
23,67,6,6,0,6,1,213,445,0,1,1515
23,68,6,9,3,1,0,78,290,0,1,1584.00000000012
23,68,6,9,3,2,5,78,290,0,1,1117
23,68,6,9,3,3,4,78,290,0,1,1183
23,68,6,9,3,4,3,78,290,0,1,1198.99999999988
23,68,6,9,3,5,2,78,290,0,1,1115
23,68,6,9,3,6,1,78,290,0,1,1149
23,68,6,9,3,7,0,78,290,0,1,1166
23,68,6,9,3,8,0,78,290,0,1,1233.00000000012
23,68,6,9,3,9,0,78,290,0,1,1316
23,69,5,5,0,1,5,104,281,0,1,1198
23,69,5,5,0,2,4,104,281,0,1,1017
23,69,5,5,0,3,3,104,281,0,1,1282
23,69,5,5,0,4,2,104,281,0,1,1182
23,69,5,5,0,5,1,104,281,0,1,1267
23,70,7,7,0,1,0,307,462,0,1,1783
23,70,7,7,0,2,6,307,462,0,1,1499
23,70,7,7,0,3,5,307,462,0,1,1148
23,70,7,7,0,4,4,307,462,0,1,1100
23,70,7,7,0,5,3,307,462,0,1,1248.99999999988
23,70,7,7,0,6,2,307,462,0,1,1283
23,70,7,7,0,7,1,307,462,0,1,1150
23,71,7,4,-3,1,0,39,252,0,1,1783
23,71,7,4,-3,2,6,39,252,0,1,1183
23,71,7,4,-3,3,5,39,252,0,1,1201
23,71,7,4,-3,4,4,39,252,0,1,1500
23,72,5,5,0,1,3,304,535,0,1,1301
23,72,5,5,0,2,4,304,535,0,1,1149
23,72,5,5,0,3,3,304,535,0,1,1184.00000000012
23,72,5,5,0,4,2,304,535,0,1,1283
23,72,5,5,0,5,1,304,535,0,1,1216
23,73,7,9,2,1,0,286,433,0,1,1350.00000000012
23,73,7,9,2,2,6,286,433,0,1,1151
23,73,7,9,2,3,5,286,433,0,1,1633
23,73,7,9,2,4,4,286,433,0,1,1735
23,73,7,9,2,5,3,286,433,0,1,1250
23,73,7,9,2,6,2,286,433,0,1,1601
23,73,7,9,2,7,1,286,433,0,1,1201
23,73,7,9,2,8,0,286,433,0,1,1200.99999999988
23,73,7,9,2,9,0,286,433,0,1,1118
23,74,7,6,-1,1,7,161,342,0,1,1335.00000000012
23,74,7,6,-1,2,6,161,342,0,1,1502
23,74,7,6,-1,3,5,161,342,0,1,1235.00000000012
23,74,7,6,-1,4,4,161,342,0,1,1148
23,74,7,6,-1,5,3,161,342,0,1,1216
23,74,7,6,-1,6,2,161,342,0,1,1534
23,75,6,3,-3,1,1,36,247,0,1,1586
23,75,6,3,-3,2,5,36,247,0,1,1217
23,75,6,3,-3,3,4,36,247,0,1,1368
23,76,7,7,0,1,3,2,194,0,1,1518
23,76,7,7,0,2,6,2,194,0,1,1151.99999999988
23,76,7,7,0,3,5,2,194,0,1,1200
23,76,7,7,0,4,4,2,194,0,1,1451
23,76,7,7,0,5,3,2,194,0,1,1167
23,76,7,7,0,6,2,2,194,0,1,1168.99999999988
23,76,7,7,0,7,1,2,194,0,1,1202
23,77,7,7,0,1,0,297,462,0,1,1318.00000000012
23,77,7,7,0,2,6,297,462,0,1,1032
23,77,7,7,0,3,5,297,462,0,1,1101
23,77,7,7,0,4,4,297,462,0,1,1702
23,77,7,7,0,5,3,297,462,0,1,1235
23,77,7,7,0,6,2,297,462,0,1,1585.99999999988
23,77,7,7,0,7,1,297,462,0,1,1186
23,78,6,6,0,1,0,54,279,0,1,1152
23,78,6,6,0,2,5,54,279,0,1,1552.00000000012
23,78,6,6,0,3,4,54,279,0,1,1085
23,78,6,6,0,4,3,54,279,0,1,1302
23,78,6,6,0,5,2,54,279,0,1,1152
23,78,6,6,0,6,1,54,279,0,1,1169
23,79,5,6,1,1,0,251,461,0,1,1502
23,79,5,6,1,2,4,251,461,0,1,1102
23,79,5,6,1,3,3,251,461,0,1,1135
23,79,5,6,1,4,2,251,461,0,1,1151
23,79,5,6,1,5,1,251,461,0,1,1202
23,79,5,6,1,6,0,251,461,0,1,1201
23,80,7,6,-1,1,7,248,401,0,1,1103
23,80,7,6,-1,2,6,248,401,0,1,1752
23,80,7,6,-1,3,5,248,401,0,1,1086
23,80,7,6,-1,4,4,248,401,0,1,1086
23,80,7,6,-1,5,3,248,401,0,1,1237
23,80,7,6,-1,6,2,248,401,0,1,1169
23,81,6,9,3,1,1,121,281,0,1,1633
23,81,6,9,3,2,5,121,281,0,1,1452
23,81,6,9,3,3,4,121,281,0,1,1599
23,81,6,9,3,4,3,121,281,0,1,1304
23,81,6,9,3,5,2,121,281,0,1,1336
23,81,6,9,3,6,1,121,281,0,1,1387
23,81,6,9,3,7,0,121,281,0,1,1386
23,81,6,9,3,8,0,121,281,0,1,1186
23,81,6,9,3,9,0,121,281,0,1,1486
23,82,5,3,-2,1,5,270,490,0,1,1467
23,82,5,3,-2,2,4,270,490,0,1,1403
23,82,5,3,-2,3,3,270,490,0,1,1669
23,83,5,5,0,1,2,349,521,0,1,1503
23,83,5,5,0,2,4,349,521,0,1,1237
23,83,5,5,0,3,3,349,521,0,1,1051.00000000012
23,83,5,5,0,4,2,349,521,0,1,1135
23,83,5,5,0,5,1,349,521,0,1,1287.00000000012
23,84,5,5,0,1,0,192,413,0,1,1238
23,84,5,5,0,2,4,192,413,0,1,1186
23,84,5,5,0,3,3,192,413,0,1,1304
23,84,5,5,0,4,2,192,413,0,1,1003.00000000012
23,84,5,5,0,5,1,192,413,0,1,1185.00000000012
23,85,6,5,-1,1,0,348,536,0,1,1456
23,85,6,5,-1,2,5,348,536,0,1,1271
23,85,6,5,-1,3,4,348,536,0,1,1154
23,85,6,5,-1,4,3,348,536,0,1,1204
23,85,6,5,-1,5,2,348,536,0,1,1237
23,86,6,6,0,1,1,263,436,0,1,1187.00000000012
23,86,6,6,0,2,5,263,436,0,1,1121.00000000012
23,86,6,6,0,3,4,263,436,0,1,1038
23,86,6,6,0,4,3,263,436,0,1,1288
23,86,6,6,0,5,2,263,436,0,1,1186
23,86,6,6,0,6,1,263,436,0,1,1204
23,87,6,6,0,1,0,22,231,0,1,1588
23,87,6,6,0,2,5,22,231,0,1,1137
23,87,6,6,0,3,4,22,231,0,1,1154
23,87,6,6,0,4,3,22,231,0,1,1221.00000000012
23,87,6,6,0,5,2,22,231,0,1,1304
23,87,6,6,0,6,1,22,231,0,1,1220
23,88,7,7,0,1,0,185,375,0,1,1453
23,88,7,7,0,2,6,185,375,0,1,1103
23,88,7,7,0,3,5,185,375,0,1,1055
23,88,7,7,0,4,4,185,375,0,1,1172
23,88,7,7,0,5,3,185,375,0,1,1172
23,88,7,7,0,6,2,185,375,0,1,1287
23,88,7,7,0,7,1,185,375,0,1,1219
23,89,7,7,0,1,0,36,204,0,1,1488
23,89,7,7,0,2,6,36,204,0,1,1388
23,89,7,7,0,3,5,36,204,0,1,1204
23,89,7,7,0,4,4,36,204,0,1,1455
23,89,7,7,0,5,3,36,204,0,1,1555
23,89,7,7,0,6,2,36,204,0,1,1253.99999999988
23,89,7,7,0,7,1,36,204,0,1,1055
23,90,6,10,4,1,0,224,455,0,1,1871
23,90,6,10,4,2,5,224,455,0,1,1339.00000000012
23,90,6,10,4,3,4,224,455,0,1,1155.00000000012
23,90,6,10,4,4,3,224,455,0,1,1220
23,90,6,10,4,5,2,224,455,0,1,1139
23,90,6,10,4,6,1,224,455,0,1,1270.99999999988
23,90,6,10,4,7,0,224,455,0,1,1155
23,90,6,10,4,8,0,224,455,0,1,1705
23,90,6,10,4,9,0,224,455,0,1,1555.00000000012
23,90,6,10,4,10,0,224,455,0,1,1405
23,91,7,9,2,1,7,86,320,0,1,1656
23,91,7,9,2,2,6,86,320,0,1,1206
23,91,7,9,2,3,5,86,320,0,1,1305
23,91,7,9,2,4,4,86,320,0,1,1389
23,91,7,9,2,5,3,86,320,0,1,1206
23,91,7,9,2,6,2,86,320,0,1,1189.00000000012
23,91,7,9,2,7,1,86,320,0,1,1457
23,91,7,9,2,8,0,86,320,0,1,1203
23,91,7,9,2,9,0,86,320,0,1,1155
23,92,5,1,-4,1,5,64,218,0,1,1286
23,93,7,7,0,1,4,229,461,0,1,1438
23,93,7,7,0,2,6,229,461,0,1,1571
23,93,7,7,0,3,5,229,461,0,1,1240
23,93,7,7,0,4,4,229,461,0,1,1223.00000000012
23,93,7,7,0,5,3,229,461,0,1,1306
23,93,7,7,0,6,2,229,461,0,1,1339
23,93,7,7,0,7,1,229,461,0,1,1139
23,94,7,7,0,1,0,289,518,0,1,1323
23,94,7,7,0,2,6,289,518,0,1,1207
23,94,7,7,0,3,5,289,518,0,1,1339.99999999988
23,94,7,7,0,4,4,289,518,0,1,1257
23,94,7,7,0,5,3,289,518,0,1,1238.99999999988
23,94,7,7,0,6,2,289,518,0,1,1172
23,94,7,7,0,7,1,289,518,0,1,1237.99999999988
23,95,5,5,0,1,0,135,363,0,1,1406
23,95,5,5,0,2,4,135,363,0,1,1388
23,95,5,5,0,3,3,135,363,0,1,1223
23,95,5,5,0,4,2,135,363,0,1,1323
23,95,5,5,0,5,1,135,363,0,1,1423
23,96,7,7,0,1,0,258,439,0,1,1390
23,96,7,7,0,2,6,258,439,0,1,1508
23,96,7,7,0,3,5,258,439,0,1,1157.00000000012
23,96,7,7,0,4,4,258,439,0,1,1123.00000000012
23,96,7,7,0,5,3,258,439,0,1,1272
23,96,7,7,0,6,2,258,439,0,1,1207
23,96,7,7,0,7,1,258,439,0,1,1139.99999999988
8,1,5,2,-3,1,5,308,537,0,1,1881.5
8,1,5,2,-3,2,4,308,537,0,1,1358.69999999926
8,2,6,3,-3,1,3,250,438,0,1,1562.89999999851
8,2,6,3,-3,2,5,250,438,0,1,1455.79999999702
8,2,6,3,-3,3,4,250,438,0,1,1465
8,3,7,7,0,1,3,64,215,0,1,1756.09999999777
8,3,7,7,0,2,6,64,215,0,1,1445.5
8,3,7,7,0,3,5,64,215,0,1,1372.60000000149
8,3,7,7,0,4,4,64,215,0,1,1315.5
8,3,7,7,0,5,3,64,215,0,1,1308.69999999926
8,3,7,7,0,6,2,64,215,0,1,2289.29999999702
8,3,7,7,0,7,1,64,215,0,1,1429.59999999777
8,4,7,7,0,1,0,357,560,0,1,1517.80000000075
8,4,7,7,0,2,6,357,560,0,1,1401.30000000075
8,4,7,7,0,3,5,357,560,0,1,1506.30000000075
8,4,7,7,0,4,4,357,560,0,1,1390.60000000149
8,4,7,7,0,5,3,357,560,0,1,1233.79999999702
8,4,7,7,0,6,2,357,560,0,1,1274.5
8,4,7,7,0,7,1,357,560,0,1,1197.60000000149
8,5,6,6,0,1,0,224,372,0,1,1207.5
8,5,6,6,0,2,5,224,372,0,1,1309.10000000149
8,5,6,6,0,3,4,224,372,0,1,1677.79999999702
8,5,6,6,0,4,3,224,372,0,1,1572.30000000075
8,5,6,6,0,5,2,224,372,0,1,1283.10000000149
8,5,6,6,0,6,1,224,372,0,1,1367.10000000149
8,6,6,9,3,1,0,153,328,0,1,1321.59999999776
8,6,6,9,3,2,5,153,328,0,1,2053
8,6,6,9,3,3,4,153,328,0,1,1447.59999999777
8,6,6,9,3,4,3,153,328,0,1,1365.5
8,6,6,9,3,5,2,153,328,0,1,1759.40000000224
8,6,6,9,3,6,1,153,328,0,1,1239.90000000224
8,6,6,9,3,7,0,153,328,0,1,1863.69999999926
8,6,6,9,3,8,0,153,328,0,1,1409.39999999851
8,6,6,9,3,9,0,153,328,0,1,1411.40000000224
8,7,7,4,-3,1,7,30,209,0,1,1675.70000000298
8,7,7,4,-3,2,6,30,209,0,1,1521.5
8,7,7,4,-3,3,5,30,209,0,1,1300.69999999926
8,7,7,4,-3,4,4,30,209,0,1,1285.79999999702
8,8,6,10,4,1,3,58,278,0,1,1972
8,8,6,10,4,2,5,58,278,0,1,1459.80000000075
8,8,6,10,4,3,4,58,278,0,1,1273
8,8,6,10,4,4,3,58,278,0,1,1223.39999999851
8,8,6,10,4,5,2,58,278,0,1,1375.60000000149
8,8,6,10,4,6,1,58,278,0,1,1364.39999999851
8,8,6,10,4,7,0,58,278,0,1,1270.80000000075
8,8,6,10,4,8,0,58,278,0,1,1175.5
8,8,6,10,4,9,0,58,278,0,1,1240.89999999851
8,8,6,10,4,10,0,58,278,0,1,1200.80000000075
8,9,7,5,-2,1,7,110,312,0,1,1502.19999999926
8,9,7,5,-2,2,6,110,312,0,1,1414.80000000075
8,9,7,5,-2,3,5,110,312,0,1,1335.19999999926
8,9,7,5,-2,4,4,110,312,0,1,1244.69999999926
8,9,7,5,-2,5,3,110,312,0,1,1282.89999999851
8,10,7,7,0,1,2,292,474,0,1,2787.5
8,10,7,7,0,2,6,292,474,0,1,1421
8,10,7,7,0,3,5,292,474,0,1,1308.29999999702
8,10,7,7,0,4,4,292,474,0,1,1309.60000000149
8,10,7,7,0,5,3,292,474,0,1,1267.39999999851
8,10,7,7,0,6,2,292,474,0,1,1800.5
8,10,7,7,0,7,1,292,474,0,1,1184.30000000075
8,11,5,5,0,1,0,321,499,0,1,2185.69999999926
8,11,5,5,0,2,4,321,499,0,1,1209.69999999926
8,11,5,5,0,3,3,321,499,0,1,1268.90000000224
8,11,5,5,0,4,2,321,499,0,1,1741
8,11,5,5,0,5,1,321,499,0,1,1534.69999999926
8,12,5,5,0,1,0,185,416,0,1,1306.5
8,12,5,5,0,2,4,185,416,0,1,1281.80000000075
8,12,5,5,0,3,3,185,416,0,1,1649
8,12,5,5,0,4,2,185,416,0,1,1625.59999999776
8,12,5,5,0,5,1,185,416,0,1,1686.59999999776
8,13,7,11,4,1,0,301,482,0,1,1699
8,13,7,11,4,2,6,301,482,0,1,1274.90000000224
8,13,7,11,4,3,5,301,482,0,1,1219.5
8,13,7,11,4,4,4,301,482,0,1,1226
8,13,7,11,4,5,3,301,482,0,1,1228.40000000224
8,13,7,11,4,6,2,301,482,0,1,1224.29999999702
8,13,7,11,4,7,1,301,482,0,1,1311.20000000298
8,13,7,11,4,8,0,301,482,0,1,1282
8,13,7,11,4,9,0,301,482,0,1,1573
8,13,7,11,4,10,0,301,482,0,1,1646.80000000075
8,13,7,11,4,11,0,301,482,0,1,1663.69999999926
8,14,6,6,0,1,6,250,460,0,1,1273.39999999851
8,14,6,6,0,2,5,250,460,0,1,1402.10000000149
8,14,6,6,0,3,4,250,460,0,1,1347.19999999926
8,14,6,6,0,4,3,250,460,0,1,1424.39999999851
8,14,6,6,0,5,2,250,460,0,1,1440.90000000224
8,14,6,6,0,6,1,250,460,0,1,1392.19999999926
8,15,6,4,-2,1,0,171,336,0,1,1225.90000000224
8,15,6,4,-2,2,5,171,336,0,1,1329.20000000298
8,15,6,4,-2,3,4,171,336,0,1,1361.60000000149
8,15,6,4,-2,4,3,171,336,0,1,1665.80000000075
8,16,5,5,0,1,2,14,206,0,1,1546.69999999926
8,16,5,5,0,2,4,14,206,0,1,1343.10000000149
8,16,5,5,0,3,3,14,206,0,1,1403.80000000075
8,16,5,5,0,4,2,14,206,0,1,1369.80000000075
8,16,5,5,0,5,1,14,206,0,1,1975.89999999851
8,17,5,4,-1,1,0,10,218,0,1,1282.89999999851
8,17,5,4,-1,2,4,10,218,0,1,1070
8,17,5,4,-1,3,3,10,218,0,1,1566.80000000075
8,17,5,4,-1,4,2,10,218,0,1,1612.09999999776
8,18,6,7,1,1,1,335,532,0,1,1765.39999999851
8,18,6,7,1,2,5,335,532,0,1,1293.69999999926
8,18,6,7,1,3,4,335,532,0,1,1237
8,18,6,7,1,4,3,335,532,0,1,1336.60000000149
8,18,6,7,1,5,2,335,532,0,1,1276.80000000075
8,18,6,7,1,6,1,335,532,0,1,1543.39999999851
8,18,6,7,1,7,0,335,532,0,1,1927.5
8,19,7,7,0,1,7,292,470,0,1,1571.39999999851
8,19,7,7,0,2,6,292,470,0,1,1315.90000000224
8,19,7,7,0,3,5,292,470,0,1,1238
8,19,7,7,0,4,4,292,470,0,1,1777.19999999926
8,19,7,7,0,5,3,292,470,0,1,1464.80000000075
8,19,7,7,0,6,2,292,470,0,1,1226
8,19,7,7,0,7,1,292,470,0,1,1375.5
8,20,6,6,0,1,0,273,450,0,1,1319
8,20,6,6,0,2,5,273,450,0,1,1220.10000000149
8,20,6,6,0,3,4,273,450,0,1,1209.90000000224
8,20,6,6,0,4,3,273,450,0,1,1284.39999999851
8,20,6,6,0,5,2,273,450,0,1,1454.5
8,20,6,6,0,6,1,273,450,0,1,1166.10000000149
8,21,7,8,1,1,0,351,566,0,1,1179.80000000075
8,21,7,8,1,2,6,351,566,0,1,1248.10000000149
8,21,7,8,1,3,5,351,566,0,1,1662.40000000224
8,21,7,8,1,4,4,351,566,0,1,1217.59999999777
8,21,7,8,1,5,3,351,566,0,1,1572.69999999926
8,21,7,8,1,6,2,351,566,0,1,1221.69999999926
8,21,7,8,1,7,1,351,566,0,1,1550.30000000075
8,21,7,8,1,8,0,351,566,0,1,1550.89999999851
8,22,6,10,4,1,6,263,451,0,1,1736.19999999926
8,22,6,10,4,2,5,263,451,0,1,1619.20000000298
8,22,6,10,4,3,4,263,451,0,1,1719.60000000149
8,22,6,10,4,4,3,263,451,0,1,1227.29999999702
8,22,6,10,4,5,2,263,451,0,1,1552.30000000075
8,22,6,10,4,6,1,263,451,0,1,1225.19999999926
8,22,6,10,4,7,0,263,451,0,1,1676.20000000298
8,22,6,10,4,8,0,263,451,0,1,1333.80000000075
8,22,6,10,4,9,0,263,451,0,1,1368.90000000224
8,22,6,10,4,10,0,263,451,0,1,1182.79999999702
8,23,5,5,0,1,5,176,351,0,1,1222.5
8,23,5,5,0,2,4,176,351,0,1,1287.69999999926
8,23,5,5,0,3,3,176,351,0,1,1538.69999999926
8,23,5,5,0,4,2,176,351,0,1,1258
8,23,5,5,0,5,1,176,351,0,1,1508.19999999926
8,24,7,10,3,1,0,324,539,0,1,2775.69999999926
8,24,7,10,3,2,6,324,539,0,1,1571.80000000075
8,24,7,10,3,3,5,324,539,0,1,2389.80000000075
8,24,7,10,3,4,4,324,539,0,1,1435.89999999851
8,24,7,10,3,5,3,324,539,0,1,1361
8,24,7,10,3,6,2,324,539,0,1,1361.89999999851
8,24,7,10,3,7,1,324,539,0,1,1539.60000000149
8,24,7,10,3,8,0,324,539,0,1,1743
8,24,7,10,3,9,0,324,539,0,1,1309.30000000075
8,24,7,10,3,10,0,324,539,0,1,1335.10000000149
8,25,7,9,2,1,7,101,249,0,1,1534.10000000149
8,25,7,9,2,2,6,101,249,0,1,1348.10000000149
8,25,7,9,2,3,5,101,249,0,1,1396.30000000075
8,25,7,9,2,4,4,101,249,0,1,1330.30000000075
8,25,7,9,2,5,3,101,249,0,1,1484.59999999776
8,25,7,9,2,6,2,101,249,0,1,1292.5
8,25,7,9,2,7,1,101,249,0,1,1719.69999999926
8,25,7,9,2,8,0,101,249,0,1,1342.60000000149
8,25,7,9,2,9,0,101,249,0,1,1169.79999999702
8,26,5,5,0,1,5,1,212,0,1,1395.19999999926
8,26,5,5,0,2,4,1,212,0,1,1239.19999999926
8,26,5,5,0,3,3,1,212,0,1,1338.60000000149
8,26,5,5,0,4,2,1,212,0,1,1191.39999999851
8,26,5,5,0,5,1,1,212,0,1,1423.79999999702
8,27,6,6,0,1,0,142,343,0,1,1266.20000000298
8,27,6,6,0,2,5,142,343,0,1,1847.60000000149
8,27,6,6,0,3,4,142,343,0,1,1285.19999999926
8,27,6,6,0,4,3,142,343,0,1,1872.5
8,27,6,6,0,5,2,142,343,0,1,1727.30000000075
8,27,6,6,0,6,1,142,343,0,1,1380.5
8,28,5,7,2,1,0,313,466,0,1,1644.69999999925
8,28,5,7,2,2,4,313,466,0,1,1291.89999999851
8,28,5,7,2,3,3,313,466,0,1,1294.10000000149
8,28,5,7,2,4,2,313,466,0,1,1312.80000000075
8,28,5,7,2,5,1,313,466,0,1,1282.19999999926
8,28,5,7,2,6,0,313,466,0,1,1312.40000000224
8,28,5,7,2,7,0,313,466,0,1,1212.19999999926
8,29,6,8,2,1,6,357,545,0,1,1276
8,29,6,8,2,2,5,357,545,0,1,1425.19999999926
8,29,6,8,2,3,4,357,545,0,1,1306.69999999926
8,29,6,8,2,4,3,357,545,0,1,1394.5
8,29,6,8,2,5,2,357,545,0,1,1326.90000000224
8,29,6,8,2,6,1,357,545,0,1,1822.60000000149
8,29,6,8,2,7,0,357,545,0,1,1279.40000000224
8,29,6,8,2,8,0,357,545,0,1,1211.39999999851
8,30,6,8,2,1,6,198,358,0,1,2077.39999999851
8,30,6,8,2,2,5,198,358,0,1,1240
8,30,6,8,2,3,4,198,358,0,1,1484.20000000298
8,30,6,8,2,4,3,198,358,0,1,1376.19999999926
8,30,6,8,2,5,2,198,358,0,1,1532.89999999851
8,30,6,8,2,6,1,198,358,0,1,1165.5
8,30,6,8,2,7,0,198,358,0,1,1067.60000000149
8,30,6,8,2,8,0,198,358,0,1,1507
8,31,6,6,0,1,6,228,408,0,1,1400.59999999776
8,31,6,6,0,2,5,228,408,0,1,1693.80000000075
8,31,6,6,0,3,4,228,408,0,1,1271.39999999851
8,31,6,6,0,4,3,228,408,0,1,1140.89999999851
8,31,6,6,0,5,2,228,408,0,1,1103.60000000149
8,31,6,6,0,6,1,228,408,0,1,1627.19999999926
8,32,7,7,0,1,0,119,345,0,1,1743.09999999776
8,32,7,7,0,2,6,119,345,0,1,1259
8,32,7,7,0,3,5,119,345,0,1,1579.60000000149
8,32,7,7,0,4,4,119,345,0,1,1185.69999999926
8,32,7,7,0,5,3,119,345,0,1,1376.5
8,32,7,7,0,6,2,119,345,0,1,1677.10000000149
8,32,7,7,0,7,1,119,345,0,1,1284.59999999776
8,33,6,6,0,1,0,124,282,0,1,1656.30000000075
8,33,6,6,0,2,5,124,282,0,1,1231.79999999702
8,33,6,6,0,3,4,124,282,0,1,1180.19999999926
8,33,6,6,0,4,3,124,282,0,1,1405
8,33,6,6,0,5,2,124,282,0,1,1600.80000000075
8,33,6,6,0,6,1,124,282,0,1,1155.19999999926
8,34,7,10,3,1,0,186,341,0,1,1388.59999999777
8,34,7,10,3,2,6,186,341,0,1,1607.90000000224
8,34,7,10,3,3,5,186,341,0,1,1543.5
8,34,7,10,3,4,4,186,341,0,1,1349.89999999851
8,34,7,10,3,5,3,186,341,0,1,1455
8,34,7,10,3,6,2,186,341,0,1,1528.90000000224
8,34,7,10,3,7,1,186,341,0,1,1336.5
8,34,7,10,3,8,0,186,341,0,1,1437.09999999777
8,34,7,10,3,9,0,186,341,0,1,1821.10000000149
8,34,7,10,3,10,0,186,341,0,1,1405.39999999851
8,35,7,4,-3,1,7,235,468,0,1,1313.89999999851
8,35,7,4,-3,2,6,235,468,0,1,1473
8,35,7,4,-3,3,5,235,468,0,1,1223.20000000298
8,35,7,4,-3,4,4,235,468,0,1,1774.10000000149
8,36,6,6,0,1,3,348,554,0,1,1685.69999999926
8,36,6,6,0,2,5,348,554,0,1,1557.59999999776
8,36,6,6,0,3,4,348,554,0,1,1224
8,36,6,6,0,4,3,348,554,0,1,1365.5
8,36,6,6,0,5,2,348,554,0,1,1707.09999999777
8,36,6,6,0,6,1,348,554,0,1,1269
8,37,7,5,-2,1,0,102,336,0,1,1514.29999999702
8,37,7,5,-2,2,6,102,336,0,1,1394.70000000298
8,37,7,5,-2,3,5,102,336,0,1,1183.89999999851
8,37,7,5,-2,4,4,102,336,0,1,1121.40000000224
8,37,7,5,-2,5,3,102,336,0,1,1545.5
8,38,7,7,0,1,2,193,344,0,1,1275.69999999925
8,38,7,7,0,2,6,193,344,0,1,2104.19999999926
8,38,7,7,0,3,5,193,344,0,1,1361.40000000224
8,38,7,7,0,4,4,193,344,0,1,1440.90000000224
8,38,7,7,0,5,3,193,344,0,1,1344.10000000149
8,38,7,7,0,6,2,193,344,0,1,1107.5
8,38,7,7,0,7,1,193,344,0,1,1263.5
8,39,6,2,-4,1,0,203,435,0,1,1269.90000000224
8,39,6,2,-4,2,5,203,435,0,1,1674.69999999926
8,40,6,6,0,1,4,26,222,0,1,1203.80000000075
8,40,6,6,0,2,5,26,222,0,1,1250.80000000075
8,40,6,6,0,3,4,26,222,0,1,1379.29999999702
8,40,6,6,0,4,3,26,222,0,1,1219
8,40,6,6,0,5,2,26,222,0,1,1263.79999999702
8,40,6,6,0,6,1,26,222,0,1,1325.59999999776
8,41,5,6,1,1,0,307,454,0,1,1389.5
8,41,5,6,1,2,4,307,454,0,1,1857.59999999776
8,41,5,6,1,3,3,307,454,0,1,1148.89999999851
8,41,5,6,1,4,2,307,454,0,1,1819.19999999926
8,41,5,6,1,5,1,307,454,0,1,1183.59999999777
8,41,5,6,1,6,0,307,454,0,1,1247.30000000075
8,42,7,3,-4,1,7,108,320,0,1,1369.59999999776
8,42,7,3,-4,2,6,108,320,0,1,1313.39999999851
8,42,7,3,-4,3,5,108,320,0,1,1837.19999999926
8,43,7,7,0,1,4,295,462,0,1,1113.89999999851
8,43,7,7,0,2,6,295,462,0,1,1112.70000000298
8,43,7,7,0,3,5,295,462,0,1,1518.5
8,43,7,7,0,4,4,295,462,0,1,1191.80000000075
8,43,7,7,0,5,3,295,462,0,1,1593.89999999851
8,43,7,7,0,6,2,295,462,0,1,1236.19999999926
8,43,7,7,0,7,1,295,462,0,1,1175
8,44,6,3,-3,1,0,154,365,0,1,1338
8,44,6,3,-3,2,5,154,365,0,1,1149.5
8,44,6,3,-3,3,4,154,365,0,1,1540.70000000298
8,45,7,6,-1,1,3,30,177,0,1,1293.90000000224
8,45,7,6,-1,2,6,30,177,11,0,236.400000002235
8,,,,,,,,,,,
8,45,7,6,-1,3,5,30,177,0,1,1773.5
8,45,7,6,-1,4,4,30,177,0,1,1439.39999999851
8,45,7,6,-1,5,3,30,177,0,1,1227.39999999851
8,45,7,6,-1,6,2,30,177,0,1,1385.60000000149
8,46,7,7,0,1,1,167,373,0,1,1279.10000000149
8,46,7,7,0,2,6,167,373,0,1,1453.59999999777
8,46,7,7,0,3,5,167,373,0,1,1565.30000000075
8,46,7,7,0,4,4,167,373,0,1,1553.79999999702
8,46,7,7,0,5,3,167,373,0,1,1254.60000000149
8,46,7,7,0,6,2,167,373,0,1,1605.39999999851
8,46,7,7,0,7,1,167,373,0,1,1421.19999999926
8,47,5,5,0,1,0,250,401,0,1,1542.5
8,47,5,5,0,2,4,250,401,0,1,1455.80000000075
8,47,5,5,0,3,3,250,401,0,1,1351.60000000149
8,47,5,5,0,4,2,250,401,0,1,1341.5
8,47,5,5,0,5,1,250,401,0,1,1410.70000000298
8,48,5,9,4,1,0,52,204,0,1,1302.60000000149
8,48,5,9,4,2,4,52,204,0,1,1222
8,48,5,9,4,3,3,52,204,0,1,1130.60000000149
8,48,5,9,4,4,2,52,204,0,1,1388.39999999851
8,48,5,9,4,5,1,52,204,0,1,1194.10000000149
8,48,5,9,4,6,0,52,204,0,1,1342
8,48,5,9,4,7,0,52,204,0,1,1310.39999999851
8,48,5,9,4,8,0,52,204,0,1,1417
8,48,5,9,4,9,0,52,204,0,1,1246.69999999926
8,49,5,1,-4,1,5,201,375,0,1,1255.19999999926
8,50,5,4,-1,1,4,282,466,0,1,1572.19999999926
8,50,5,4,-1,2,4,282,466,0,1,1197.19999999925
8,50,5,4,-1,3,3,282,466,0,1,1238.60000000149
8,50,5,4,-1,4,2,282,466,0,1,1292.19999999926
8,51,6,6,0,1,1,296,444,0,1,1391.5
8,51,6,6,0,2,5,296,444,0,1,1244.80000000075
8,51,6,6,0,3,4,296,444,0,1,1308.80000000075
8,51,6,6,0,4,3,296,444,0,1,1216.60000000149
8,51,6,6,0,5,2,296,444,0,1,1226.89999999851
8,51,6,6,0,6,1,296,444,0,1,1360
8,52,7,9,2,1,0,74,304,0,1,1549.40000000224
8,52,7,9,2,2,6,74,304,0,1,1355
8,52,7,9,2,3,5,74,304,0,1,1417.80000000075
8,52,7,9,2,4,4,74,304,0,1,1257.59999999777
8,52,7,9,2,5,3,74,304,0,1,1127.5
8,52,7,9,2,6,2,74,304,0,1,1235.60000000149
8,52,7,9,2,7,1,74,304,0,1,1315.69999999926
8,52,7,9,2,8,0,74,304,0,1,1438.69999999926
8,52,7,9,2,9,0,74,304,0,1,1275.5
8,53,6,6,0,1,6,204,402,0,1,1607.69999999926
8,53,6,6,0,2,5,204,402,0,1,1318.19999999926
8,53,6,6,0,3,4,204,402,0,1,1124.19999999925
8,53,6,6,0,4,3,204,402,0,1,1314.10000000149
8,53,6,6,0,5,2,204,402,0,1,1151.89999999851
8,53,6,6,0,6,1,204,402,0,1,1167.30000000075
8,54,7,7,0,1,0,149,337,0,1,1261.19999999926
8,54,7,7,0,2,6,149,337,0,1,1399.5
8,54,7,7,0,3,5,149,337,0,1,1293.89999999851
8,54,7,7,0,4,4,149,337,0,1,1229.69999999926
8,54,7,7,0,5,3,149,337,0,1,1228.10000000149
8,54,7,7,0,6,2,149,337,0,1,1190.40000000224
8,54,7,7,0,7,1,149,337,0,1,1837.60000000149
8,55,5,5,0,1,0,261,465,0,1,1319.60000000149
8,55,5,5,0,2,4,261,465,0,1,1166.69999999926
8,55,5,5,0,3,3,261,465,0,1,1091.30000000075
8,55,5,5,0,4,2,261,465,0,1,1165
8,55,5,5,0,5,1,261,465,0,1,1117.09999999776
8,56,6,2,-4,1,0,166,326,0,1,1143.30000000075
8,56,6,2,-4,2,5,166,326,0,1,1297.80000000075
8,57,5,3,-2,1,4,117,311,0,1,1426
