participant,block_i,expected_length,real_length,lengthDiff,trial_i_within_block,next_wave_in,targetMeanColor,distractorMeanColor,clicked_monster_id,correct,rt
20,1,6,6,0,1,6,123,336,0,1,2711.69999998808
20,1,6,6,0,2,5,123,336,0,1,1859.40000003576
20,1,6,6,0,3,4,123,336,0,1,1661.29999995232
20,1,6,6,0,4,3,123,336,0,1,1493.10000002384
20,1,6,6,0,5,2,123,336,0,1,1562.90000003576
20,1,6,6,0,6,1,123,336,0,1,1343.39999997616
20,2,7,11,4,1,0,23,173,0,1,2211
20,2,7,11,4,2,6,23,173,0,1,2192
20,2,7,11,4,3,5,23,173,0,1,1493.89999997616
20,2,7,11,4,4,4,23,173,0,1,2161.10000002384
20,2,7,11,4,5,3,23,173,0,1,1679.69999998808
20,2,7,11,4,6,2,23,173,0,1,1458.59999996424
20,2,7,11,4,7,1,23,173,0,1,1626.90000003576
20,2,7,11,4,8,0,23,173,0,1,1579.19999998808
20,2,7,11,4,9,0,23,173,0,1,1658.5
20,2,7,11,4,10,0,23,173,0,1,1810.69999998808
20,2,7,11,4,11,0,23,173,0,1,1561.60000002384
20,3,5,1,-4,1,5,110,335,0,1,1662.60000002384
20,4,7,9,2,1,4,93,323,0,1,1562.29999995232
20,4,7,9,2,2,6,93,323,0,1,1544.90000003576
20,4,7,9,2,3,5,93,323,0,1,1682.69999998808
20,4,7,9,2,4,4,93,323,0,1,1194.59999996424
20,4,7,9,2,5,3,93,323,0,1,1291.59999996424
20,4,7,9,2,6,2,93,323,0,1,1378.79999995232
20,4,7,9,2,7,1,93,323,0,1,1862.80000001192
20,4,7,9,2,8,0,93,323,0,1,1145.39999997616
20,4,7,9,2,9,0,93,323,0,1,1576.39999997616
20,5,7,7,0,1,7,115,343,0,1,2045.5
20,5,7,7,0,2,6,115,343,0,1,1278.19999998808
20,5,7,7,0,3,5,115,343,0,1,1345.19999998808
20,5,7,7,0,4,4,115,343,0,1,1343.10000002384
20,5,7,7,0,5,3,115,343,0,1,1562.5
20,5,7,7,0,6,2,115,343,0,1,1213.60000002384
20,5,7,7,0,7,1,115,343,0,1,1519.39999997616
20,6,7,7,0,1,0,282,445,0,1,2095.90000003576
20,6,7,7,0,2,6,282,445,0,1,1496.30000001192
20,6,7,7,0,3,5,282,445,0,1,1391.80000001192
20,6,7,7,0,4,4,282,445,0,1,1295.89999997616
20,6,7,7,0,5,3,282,445,0,1,1278.40000003576
20,6,7,7,0,6,2,282,445,0,1,1220.19999998808
20,6,7,7,0,7,1,282,445,0,1,1397.90000003576
20,7,6,5,-1,1,0,97,289,0,1,1495.89999997616
20,7,6,5,-1,2,5,97,289,0,1,1243.39999997616
20,7,6,5,-1,3,4,97,289,0,1,1257.90000003576
20,7,6,5,-1,4,3,97,289,0,1,1282.70000004768
20,7,6,5,-1,5,2,97,289,0,1,1492.59999996424
20,8,5,5,0,1,1,102,310,0,1,1338
20,8,5,5,0,2,4,102,310,0,1,1461.39999997616
20,8,5,5,0,3,3,102,310,0,1,1411.5
20,8,5,5,0,4,2,102,310,0,1,1511.40000003576
20,8,5,5,0,5,1,102,310,0,1,1562.60000002384
20,9,5,2,-3,1,0,209,362,0,1,1694.5
20,9,5,2,-3,2,4,209,362,0,1,2179.29999995232
20,10,5,8,3,1,3,340,540,0,1,1429.09999996424
20,10,5,8,3,2,4,340,540,0,1,1278.19999998808
20,10,5,8,3,3,3,340,540,0,1,1361.5
20,10,5,8,3,4,2,340,540,0,1,1340.5
20,10,5,8,3,5,1,340,540,0,1,1361.40000003576
20,10,5,8,3,6,0,340,540,0,1,1246.5
20,10,5,8,3,7,0,340,540,0,1,1292.39999997616
20,10,5,8,3,8,0,340,540,0,1,1443.60000002384
20,11,6,7,1,1,6,130,342,0,1,3613.09999996424
20,11,6,7,1,2,5,130,342,0,1,1509.80000001192
20,11,6,7,1,3,4,130,342,0,1,1278.39999997616
20,11,6,7,1,4,3,130,342,0,1,1362.29999995232
20,11,6,7,1,5,2,130,342,0,1,1430.90000003576
20,11,6,7,1,6,1,130,342,0,1,1558.19999998808
20,11,6,7,1,7,0,130,342,0,1,1928.69999998808
20,12,5,5,0,1,5,140,310,0,1,1378.59999996424
20,12,5,5,0,2,4,140,310,0,1,1294.40000003576
20,12,5,5,0,3,3,140,310,0,1,1163.40000003576
20,12,5,5,0,4,2,140,310,0,1,1227.89999997616
20,12,5,5,0,5,1,140,310,0,1,1404.89999997616
20,13,7,6,-1,1,0,55,225,0,1,1397.60000002384
20,13,7,6,-1,2,6,55,225,0,1,1344
20,13,7,6,-1,3,5,55,225,0,1,1410.90000003576
20,13,7,6,-1,4,4,55,225,0,1,1813.30000001192
20,13,7,6,-1,5,3,55,225,0,1,2191.90000003576
20,13,7,6,-1,6,2,55,225,0,1,1311.10000002384
20,14,7,4,-3,1,1,244,454,0,1,1328.89999997616
20,14,7,4,-3,2,6,244,454,0,1,1207.79999995232
20,14,7,4,-3,3,5,244,454,0,1,1277.5
20,14,7,4,-3,4,4,244,454,0,1,1377
20,15,6,6,0,1,3,2,233,0,1,1776.89999997616
20,15,6,6,0,2,5,2,233,0,1,1312.89999997616
20,15,6,6,0,3,4,2,233,0,1,1128
20,15,6,6,0,4,3,2,233,0,1,2397
20,15,6,6,0,5,2,2,233,0,1,1682.39999997616
20,15,6,6,0,6,1,2,233,0,1,1125.89999997616
20,16,5,5,0,1,0,153,315,0,1,3344.80000001192
20,16,5,5,0,2,4,153,315,0,1,1245
20,16,5,5,0,3,3,153,315,0,1,1212.40000003576
20,16,5,5,0,4,2,153,315,0,1,1460.60000002384
20,16,5,5,0,5,1,153,315,0,1,1360.70000004768
20,17,7,7,0,1,0,252,433,0,1,1924.10000002384
20,17,7,7,0,2,6,252,433,0,1,1296.80000001192
20,17,7,7,0,3,5,252,433,0,1,1313.29999995232
20,17,7,7,0,4,4,252,433,0,1,1343.60000002384
20,17,7,7,0,5,3,252,433,0,1,1223.10000002384
20,17,7,7,0,6,2,252,433,0,1,1182.30000001192
20,17,7,7,0,7,1,252,433,0,1,1175.90000003576
20,18,5,1,-4,1,0,225,376,0,1,1482.90000003576
20,19,6,6,0,1,6,297,483,0,1,1258.69999998808
20,19,6,6,0,2,5,297,483,0,1,1207.89999997616
20,19,6,6,0,3,4,297,483,0,1,1713.40000003576
20,19,6,6,0,4,3,297,483,0,1,1112.19999998808
20,19,6,6,0,5,2,297,483,0,1,1212.19999998808
20,19,6,6,0,6,1,297,483,0,1,1212.29999995232
20,20,6,2,-4,1,0,99,289,0,1,1605
20,20,6,2,-4,2,5,99,289,0,1,1194.80000001192
20,21,6,6,0,1,4,320,489,0,1,1362
20,21,6,6,0,2,5,320,489,0,1,1763.40000003576
20,21,6,6,0,3,4,320,489,0,1,1129.30000001192
20,21,6,6,0,4,3,320,489,0,1,1343.40000003576
20,21,6,6,0,5,2,320,489,0,1,1180
20,21,6,6,0,6,1,320,489,0,1,1222.69999998808
20,22,5,5,0,1,0,5,201,0,1,1362.19999998808
20,22,5,5,0,2,4,5,201,0,1,1112.10000002384
20,22,5,5,0,3,3,5,201,0,1,1361.19999998808
20,22,5,5,0,4,2,5,201,0,1,1064.80000001192
20,22,5,5,0,5,1,5,201,0,1,1021.20000004768
20,23,6,9,3,1,0,96,286,0,1,1327.90000003576
20,23,6,9,3,2,5,96,286,0,1,2212.39999997616
20,23,6,9,3,3,4,96,286,0,1,1178.69999998808
20,23,6,9,3,4,3,96,286,0,1,1746.59999996424
20,23,6,9,3,5,2,96,286,0,1,1263.70000004768
20,23,6,9,3,6,1,96,286,0,1,1276.40000003576
20,23,6,9,3,7,0,96,286,0,1,1229.60000002384
20,23,6,9,3,8,0,96,286,0,1,1415.39999997616
20,23,6,9,3,9,0,96,286,0,1,970.400000035763
20,24,7,4,-3,1,7,54,279,0,1,1128.5
20,24,7,4,-3,2,6,54,279,0,1,1064.19999998808
20,24,7,4,-3,3,5,54,279,0,1,1323.59999996424
20,24,7,4,-3,4,4,54,279,0,1,1027.80000001192
20,25,5,7,2,1,3,46,196,0,1,1245.39999997616
20,25,5,7,2,2,4,46,196,0,1,1080.79999995232
20,25,5,7,2,3,3,46,196,0,1,1062.39999997616
20,25,5,7,2,4,2,46,196,0,1,940.699999988079
20,25,5,7,2,5,1,46,196,0,1,1179.39999997616
20,25,5,7,2,6,0,46,196,0,1,995.199999988079
20,25,5,7,2,7,0,46,196,0,1,1273.90000003576
20,26,7,9,2,1,7,169,333,0,1,1394.19999998808
20,26,7,9,2,2,6,169,333,0,1,1178.89999997616
20,26,7,9,2,3,5,169,333,0,1,1211.79999995232
20,26,7,9,2,4,4,169,333,0,1,1379.5
20,26,7,9,2,5,3,169,333,0,1,1173.5
20,26,7,9,2,6,2,169,333,0,1,1095
20,26,7,9,2,7,1,169,333,0,1,1211.30000001192
20,26,7,9,2,8,0,169,333,0,1,1624.69999998808
20,26,7,9,2,9,0,169,333,0,1,995.200000047684
20,27,6,7,1,1,6,135,355,0,1,1129.79999995232
20,27,6,7,1,2,5,135,355,0,1,1262.5
20,27,6,7,1,3,4,135,355,0,1,1061.59999996424
20,27,6,7,1,4,3,135,355,0,1,1606.5
20,27,6,7,1,5,2,135,355,0,1,1277.39999997616
20,27,6,7,1,6,1,135,355,0,1,2946.30000001192
20,27,6,7,1,7,0,135,355,0,1,1178.5
20,28,7,7,0,1,7,117,299,0,1,1378.40000003576
20,28,7,7,0,2,6,117,299,0,1,1245.59999996424
20,28,7,7,0,3,5,117,299,0,1,1279.19999998808
20,28,7,7,0,4,4,117,299,0,1,1562.79999995232
20,28,7,7,0,5,3,117,299,0,1,1074.09999996424
20,28,7,7,0,6,2,117,299,0,1,1412.5
20,28,7,7,0,7,1,117,299,0,1,1179.19999998808
20,29,5,4,-1,1,0,58,265,0,1,1145
20,29,5,4,-1,2,4,58,265,0,1,1162.5
20,29,5,4,-1,3,3,58,265,0,1,1341.30000001192
20,29,5,4,-1,4,2,58,265,0,1,1645.89999997616
20,30,7,7,0,1,1,330,512,0,1,1394.30000001192
20,30,7,7,0,2,6,330,512,0,1,1095.10000002384
20,30,7,7,0,3,5,330,512,0,1,1044.80000001192
20,30,7,7,0,4,4,330,512,0,1,973
20,30,7,7,0,5,3,330,512,0,1,1211.79999995232
20,30,7,7,0,6,2,330,512,0,1,1279
20,30,7,7,0,7,1,330,512,0,1,1290.30000001192
20,31,7,3,-4,1,0,1,203,0,1,1329.40000003576
20,31,7,3,-4,2,6,1,203,0,1,1144.70000004768
20,31,7,3,-4,3,5,1,203,0,1,1229.19999998808
20,32,7,7,0,1,4,290,509,0,1,1814.5
20,32,7,7,0,2,6,290,509,0,1,1110.89999997616
20,32,7,7,0,3,5,290,509,0,1,1262.80000001192
20,32,7,7,0,4,4,290,509,0,1,1257.80000001192
20,32,7,7,0,5,3,290,509,0,1,1112.80000001192
20,32,7,7,0,6,2,290,509,0,1,1112.30000001192
20,32,7,7,0,7,1,290,509,0,1,1289.80000001192
20,33,5,5,0,1,0,314,518,0,1,1390.89999997616
20,33,5,5,0,2,4,314,518,0,1,1129.19999998808
20,33,5,5,0,3,3,314,518,0,1,1062.5
20,33,5,5,0,4,2,314,518,0,1,1178.10000002384
20,33,5,5,0,5,1,314,518,0,1,1189.90000003576
20,34,7,10,3,1,0,333,525,0,1,1213.89999997616
20,34,7,10,3,2,6,333,525,0,1,1161.39999997616
20,34,7,10,3,3,5,333,525,0,1,1296.79999995232
20,34,7,10,3,4,4,333,525,0,1,1112.40000003576
20,34,7,10,3,5,3,333,525,0,1,1041.60000002384
20,34,7,10,3,6,2,333,525,0,1,2644.60000002384
20,34,7,10,3,7,1,333,525,0,1,1345.40000003576
20,34,7,10,3,8,0,333,525,0,1,1412.19999998808
20,34,7,10,3,9,0,333,525,0,1,1345.19999998808
20,34,7,10,3,10,0,333,525,0,1,3130.09999996424
20,35,6,6,0,1,6,21,219,0,1,1461.19999998808
20,35,6,6,0,2,5,21,219,0,1,1178.80000001192
20,35,6,6,0,3,4,21,219,0,1,1279.19999998808
20,35,6,6,0,4,3,21,219,0,1,1441.79999995232
20,35,6,6,0,5,2,21,219,0,1,1428.80000001192
20,35,6,6,0,6,1,21,219,0,1,1462.60000002384
20,36,5,8,3,1,0,151,317,0,1,1261.10000002384
20,36,5,8,3,2,4,151,317,0,1,1811.59999996424
20,36,5,8,3,3,3,151,317,0,1,1478.89999997616
20,36,5,8,3,4,2,151,317,0,1,1465.79999995232
20,36,5,8,3,5,1,151,317,0,1,1244.19999998808
20,36,5,8,3,6,0,151,317,0,1,1344.19999998808
20,36,5,8,3,7,0,151,317,0,1,1378.20000004768
20,36,5,8,3,8,0,151,317,0,1,1379.30000001192
20,37,6,6,0,1,6,346,513,0,1,2523.90000003576
20,37,6,6,0,2,5,346,513,0,1,1612.39999997616
20,37,6,6,0,3,4,346,513,0,1,1595
20,37,6,6,0,4,3,346,513,0,1,1478.5
20,37,6,6,0,5,2,346,513,0,1,1145.69999998808
20,37,6,6,0,6,1,346,513,0,1,1206.39999997616
20,38,5,5,0,1,0,106,280,0,1,2147.80000001192
20,38,5,5,0,2,4,106,280,0,1,1144
20,38,5,5,0,3,3,106,280,0,1,1646.19999998808
20,38,5,5,0,4,2,106,280,0,1,1356.5
20,38,5,5,0,5,1,106,280,0,1,1295.80000001192
20,39,7,6,-1,1,0,139,358,0,1,1177.40000003576
20,39,7,6,-1,2,6,139,358,0,1,1129.40000003576
20,39,7,6,-1,3,5,139,358,0,1,1295
20,39,7,6,-1,4,4,139,358,0,1,2613.5
20,39,7,6,-1,5,3,139,358,0,1,1246
20,39,7,6,-1,6,2,139,358,0,1,1548.69999998808
20,40,5,3,-2,1,1,213,431,0,1,1525.60000002384
20,40,5,3,-2,2,4,213,431,0,1,1411.09999996424
20,40,5,3,-2,3,3,213,431,0,1,1228.89999997616
20,41,5,5,0,1,2,32,228,0,1,1344.20000004768
20,41,5,5,0,2,4,32,228,0,1,2029.10000002384
20,41,5,5,0,3,3,32,228,0,1,1273.60000002384
20,41,5,5,0,4,2,32,228,0,1,1364.10000002384
20,41,5,5,0,5,1,32,228,0,1,1694.60000002384
20,42,6,6,0,1,0,25,225,0,1,1044.90000003576
20,42,6,6,0,2,5,25,225,0,1,1128.69999998808
20,42,6,6,0,3,4,25,225,0,1,2242.10000002384
20,42,6,6,0,4,3,25,225,0,1,1460.59999996424
20,42,6,6,0,5,2,25,225,0,1,2476.5
20,42,6,6,0,6,1,25,225,0,1,1779.5
20,43,7,7,0,1,0,59,224,0,1,1279.39999997616
20,43,7,7,0,2,6,59,224,0,1,1511.39999997616
20,43,7,7,0,3,5,59,224,0,1,2166.19999998808
20,43,7,7,0,4,4,59,224,0,1,1192.40000003576
20,43,7,7,0,5,3,59,224,0,1,1162.5
20,43,7,7,0,6,2,59,224,0,1,1324.19999998808
20,43,7,7,0,7,1,59,224,0,1,1164.5
20,44,5,7,2,1,0,77,238,0,1,1078.29999995232
20,44,5,7,2,2,4,77,238,0,1,1306.30000001192
20,44,5,7,2,3,3,77,238,0,1,1178.69999998808
20,44,5,7,2,4,2,77,238,0,1,1529.70000004768
20,44,5,7,2,5,1,77,238,0,1,1312
20,44,5,7,2,6,0,77,238,0,1,1393.5
20,44,5,7,2,7,0,77,238,0,1,2140.5
20,45,5,4,-1,1,5,336,510,0,1,1312.89999997616
20,45,5,4,-1,2,4,336,510,0,1,1478.40000003576
20,45,5,4,-1,3,3,336,510,0,1,1128.59999996424
20,45,5,4,-1,4,2,336,510,0,1,1441.29999995232
20,46,5,5,0,1,1,178,378,0,1,1346.69999998808
20,46,5,5,0,2,4,178,378,0,1,1081.80000001192
20,46,5,5,0,3,3,178,378,0,1,1374.80000001192
20,46,5,5,0,4,2,178,378,0,1,1362.20000004768
20,46,5,5,0,5,1,178,378,0,1,1107.39999997616
20,47,6,6,0,1,0,39,235,0,1,1280.20000004768
20,47,6,6,0,2,5,39,235,0,1,1160.40000003576
20,47,6,6,0,3,4,39,235,0,1,1123.80000001192
20,47,6,6,0,4,3,39,235,0,1,1097
20,47,6,6,0,5,2,39,235,0,1,1062.5
20,47,6,6,0,6,1,39,235,0,1,1206.89999997616
20,48,7,8,1,1,0,224,382,0,1,1177.90000003576
20,48,7,8,1,2,6,224,382,0,1,1096.10000002384
20,48,7,8,1,3,5,224,382,0,1,1290.79999995232
20,48,7,8,1,4,4,224,382,0,1,1178.39999997616
20,48,7,8,1,5,3,224,382,0,1,1232.20000004768
20,48,7,8,1,6,2,224,382,0,1,1245.30000001192
20,48,7,8,1,7,1,224,382,0,1,1263.89999997616
20,48,7,8,1,8,0,224,382,0,1,1108.40000003576
20,49,6,9,3,1,6,157,391,0,1,1404.5
20,49,6,9,3,2,5,157,391,0,1,1398.89999997616
20,49,6,9,3,3,4,157,391,0,1,1103.90000003576
20,49,6,9,3,4,3,157,391,0,1,1196.5
20,49,6,9,3,5,2,157,391,0,1,1161.39999997616
20,49,6,9,3,6,1,157,391,0,1,1214.60000002384
20,49,6,9,3,7,0,157,391,0,1,1276.69999998808
20,49,6,9,3,8,0,157,391,0,1,1591.39999997616
20,49,6,9,3,9,0,157,391,0,1,1128.19999998808
20,50,7,7,0,1,7,162,368,0,1,1146.10000002384
20,50,7,7,0,2,6,162,368,0,1,1280.19999998808
20,50,7,7,0,3,5,162,368,0,1,1064.09999996424
20,50,7,7,0,4,4,162,368,0,1,1589.69999998808
20,50,7,7,0,5,3,162,368,0,1,1645.30000001192
20,50,7,7,0,6,2,162,368,0,1,1279.5
20,50,7,7,0,7,1,162,368,0,1,1329.19999998808
20,51,6,6,0,1,0,210,412,0,1,1172.90000003576
20,51,6,6,0,2,5,210,412,0,1,1261.89999997616
20,51,6,6,0,3,4,210,412,0,1,1144.39999997616
20,51,6,6,0,4,3,210,412,0,1,1174.69999998808
20,51,6,6,0,5,2,210,412,0,1,1212.30000001192
20,51,6,6,0,6,1,210,412,0,1,1144.69999998808
20,52,6,3,-3,1,0,131,328,0,1,1256.39999997616
20,52,6,3,-3,2,5,131,328,0,1,1280.19999998808
20,52,6,3,-3,3,4,131,328,0,1,1096.19999998808
20,53,6,6,0,1,3,192,408,0,1,1141.19999998808
20,53,6,6,0,2,5,192,408,0,1,1329
20,53,6,6,0,3,4,192,408,0,1,1081
20,53,6,6,0,4,3,192,408,0,1,1139.09999996424
20,53,6,6,0,5,2,192,408,0,1,1379
20,53,6,6,0,6,1,192,408,0,1,1096.10000002384
20,54,5,6,1,1,0,208,443,0,1,1250.39999997616
20,54,5,6,1,2,4,208,443,0,1,992.600000023842
20,54,5,6,1,3,3,208,443,0,1,1141.5
20,54,5,6,1,4,2,208,443,0,1,1394.90000003576
20,54,5,6,1,5,1,208,443,0,1,1278.89999997616
20,54,5,6,1,6,0,208,443,0,1,1115.80000001192
20,55,7,5,-2,1,7,191,354,0,1,1308.19999998808
20,55,7,5,-2,2,6,191,354,0,1,3224.80000001192
20,55,7,5,-2,3,5,191,354,0,1,1196.5
20,55,7,5,-2,4,4,191,354,0,1,1245.80000001192
20,55,7,5,-2,5,3,191,354,0,1,1340
20,56,6,10,4,1,2,340,517,0,1,1779.5
20,56,6,10,4,2,5,340,517,0,1,1362.69999998808
20,56,6,10,4,3,4,340,517,0,1,1312.39999997616
20,56,6,10,4,4,3,340,517,0,1,1211.69999998808
20,56,6,10,4,5,2,340,517,0,1,1679.39999997616
20,56,6,10,4,6,1,340,517,0,1,1245.60000002384
20,56,6,10,4,7,0,340,517,0,1,1412.19999998808
20,56,6,10,4,8,0,340,517,0,1,1129.80000001192
20,56,6,10,4,9,0,340,517,0,1,1340.59999996424
20,56,6,10,4,10,0,340,517,0,1,1297.40000003576
20,57,5,5,0,1,5,200,419,0,1,1198.30000001192
20,57,5,5,0,2,4,200,419,0,1,1142.80000001192
20,57,5,5,0,3,3,200,419,0,1,1212.69999998808
20,57,5,5,0,4,2,200,419,0,1,1157.70000004768
20,57,5,5,0,5,1,200,419,0,1,1112.19999998808
20,58,5,5,0,1,0,48,236,0,1,1280.90000003576
20,58,5,5,0,2,4,48,236,0,1,1373.89999997616
20,58,5,5,0,3,3,48,236,0,1,1378.10000002384
20,58,5,5,0,4,2,48,236,0,1,1180.89999997616
20,58,5,5,0,5,1,48,236,0,1,1245.10000002384
20,59,7,8,1,1,0,307,508,0,1,1412.79999995232
20,59,7,8,1,2,6,307,508,0,1,1606.80000001192
20,59,7,8,1,3,5,307,508,0,1,1612.29999995232
20,59,7,8,1,4,4,307,508,0,1,1262.20000004768
20,59,7,8,1,5,3,307,508,0,1,1212.10000002384
20,59,7,8,1,6,2,307,508,0,1,1125
20,59,7,8,1,7,1,307,508,0,1,1244.89999997616
20,59,7,8,1,8,0,307,508,0,1,1129.59999996424
20,60,6,4,-2,1,6,6,234,0,1,1057
20,60,6,4,-2,2,5,6,234,0,1,1481.29999995232
20,60,6,4,-2,3,4,6,234,0,1,2109.70000004768
20,60,6,4,-2,4,3,6,234,0,1,1378.39999997616
20,61,7,11,4,1,2,123,308,0,1,1578.80000001192
20,61,7,11,4,2,6,123,308,0,1,1079.30000001192
20,61,7,11,4,3,5,123,308,0,1,1129
20,61,7,11,4,4,4,123,308,0,1,1224.69999998808
20,61,7,11,4,5,3,123,308,0,1,1245.80000001192
20,61,7,11,4,6,2,123,308,0,1,1078.69999998808
20,61,7,11,4,7,1,123,308,0,1,2056.70000004768
20,61,7,11,4,8,0,123,308,0,1,2311.89999997616
20,61,7,11,4,9,0,123,308,0,1,1596.80000001192
20,61,7,11,4,10,0,123,308,0,1,1112.09999996424
20,61,7,11,4,11,0,123,308,0,1,1346.40000003576
20,62,5,5,0,1,5,220,402,0,1,1090
20,62,5,5,0,2,4,220,402,0,1,1977.40000003576
20,62,5,5,0,3,3,220,402,0,1,1813.10000002384
20,62,5,5,0,4,2,220,402,0,1,1711.89999997616
20,62,5,5,0,5,1,220,402,0,1,1415
20,63,6,10,4,1,0,55,248,0,1,1658.80000001192
20,63,6,10,4,2,5,55,248,0,1,2362.80000001192
20,63,6,10,4,3,4,55,248,0,1,1346
20,63,6,10,4,4,3,55,248,0,1,1129.59999996424
20,63,6,10,4,5,2,55,248,0,1,1213.69999998808
20,63,6,10,4,6,1,55,248,0,1,1206.70000004768
20,63,6,10,4,7,0,55,248,0,1,1396.19999998808
20,63,6,10,4,8,0,55,248,0,1,1279.19999998808
20,63,6,10,4,9,0,55,248,0,1,1129
20,63,6,10,4,10,0,55,248,0,1,1712.39999997616
20,64,6,2,-4,1,6,359,557,0,1,1608.39999997616
20,64,6,2,-4,2,5,359,557,0,1,1797.10000002384
20,65,6,8,2,1,4,273,459,0,1,1229
20,65,6,8,2,2,5,273,459,0,1,1061.30000001192
20,65,6,8,2,3,4,273,459,0,1,1039.59999996424
20,65,6,8,2,4,3,273,459,0,1,1261.80000001192
20,65,6,8,2,5,2,273,459,0,1,1194.90000003576
20,65,6,8,2,6,1,273,459,0,1,1224
20,65,6,8,2,7,0,273,459,0,1,1263
20,65,6,8,2,8,0,273,459,0,1,1644.69999998808
20,66,5,3,-2,1,5,169,383,0,1,1277.69999998808
20,66,5,3,-2,2,4,169,383,0,1,1147.60000002384
20,66,5,3,-2,3,3,169,383,0,1,1223
20,67,7,7,0,1,2,78,273,0,1,1377.30000001192
20,67,7,7,0,2,6,78,273,0,1,1363.29999995232
20,67,7,7,0,3,5,78,273,0,1,1262.59999996424
20,67,7,7,0,4,4,78,273,0,1,1395.80000001192
20,67,7,7,0,5,3,78,273,0,1,1891.29999995232
20,67,7,7,0,6,2,78,273,0,1,1127.80000001192
20,67,7,7,0,7,1,78,273,0,1,1312.30000001192
20,68,6,3,-3,1,0,209,416,0,1,1543.69999998808
20,68,6,3,-3,2,5,209,416,0,1,1211.39999997616
20,68,6,3,-3,3,4,209,416,0,1,1427.59999996424
20,69,6,6,0,1,3,106,331,0,1,1448.5
20,69,6,6,0,2,5,106,331,0,1,1225.80000001192
20,69,6,6,0,3,4,106,331,0,1,1145.30000001192
20,69,6,6,0,4,3,106,331,0,1,1323
20,69,6,6,0,5,2,106,331,0,1,1464.19999998808
20,69,6,6,0,6,1,106,331,0,1,1275.89999997616
20,70,7,10,3,1,0,275,477,0,1,1462.19999998808
20,70,7,10,3,2,6,275,477,0,1,1262.79999995232
20,70,7,10,3,3,5,275,477,0,1,945.599999964237
20,70,7,10,3,4,4,275,477,0,1,1228.79999995232
20,70,7,10,3,5,3,275,477,0,1,1271.60000002384
20,70,7,10,3,6,2,275,477,0,1,1345.30000001192
20,70,7,10,3,7,1,275,477,0,1,1462.5
20,70,7,10,3,8,0,275,477,0,1,1177.89999997616
20,70,7,10,3,9,0,275,477,0,1,1197.40000003576
20,70,7,10,3,10,0,275,477,0,1,1188.80000001192
20,71,7,7,0,1,7,246,400,0,1,1311.89999997616
20,71,7,7,0,2,6,246,400,0,1,1044.89999997616
20,71,7,7,0,3,5,246,400,0,1,1956.30000001192
20,71,7,7,0,4,4,246,400,0,1,1944.80000001192
20,71,7,7,0,5,3,246,400,0,1,1346.09999996424
20,71,7,7,0,6,2,246,400,0,1,1178.80000001192
20,71,7,7,0,7,1,246,400,0,1,1496.30000001192
20,72,6,6,0,1,0,267,456,0,1,1515.19999998808
20,72,6,6,0,2,5,267,456,0,1,1394.5
20,72,6,6,0,3,4,267,456,0,1,1111.69999998808
20,72,6,6,0,4,3,267,456,0,1,1005.80000001192
20,72,6,6,0,5,2,267,456,0,1,1361.79999995232
20,72,6,6,0,6,1,267,456,0,1,1110.80000001192
20,73,6,6,0,1,0,303,522,0,1,1423.59999996424
20,73,6,6,0,2,5,303,522,0,1,1194.10000002384
20,73,6,6,0,3,4,303,522,0,1,1397.60000002384
20,73,6,6,0,4,3,303,522,0,1,1159.89999997616
20,73,6,6,0,5,2,303,522,0,1,1395.60000002384
20,73,6,6,0,6,1,303,522,0,1,1223.40000003576
20,74,7,7,0,1,0,228,420,0,1,1229.39999997616
20,74,7,7,0,2,6,228,420,0,1,1646
20,74,7,7,0,3,5,228,420,0,1,1392.30000001192
20,74,7,7,0,4,4,228,420,0,1,1361.19999998808
20,74,7,7,0,5,3,228,420,0,1,1179
20,74,7,7,0,6,2,228,420,0,1,1112.5
20,74,7,7,0,7,1,228,420,0,1,1940.30000001192
20,75,5,5,0,1,0,152,313,0,1,1229.60000002384
20,75,5,5,0,2,4,152,313,0,1,1263.5
20,75,5,5,0,3,3,152,313,0,1,1178.60000002384
20,75,5,5,0,4,2,152,313,0,1,1524.70000004768
20,75,5,5,0,5,1,152,313,0,1,1295.60000002384
20,76,7,7,0,1,0,236,407,0,1,1194.90000003576
20,76,7,7,0,2,6,236,407,0,1,1428.39999997616
20,76,7,7,0,3,5,236,407,0,1,1211.80000001192
20,76,7,7,0,4,4,236,407,0,1,1138.30000001192
20,76,7,7,0,5,3,236,407,0,1,2344.79999995232
20,76,7,7,0,6,2,236,407,0,1,1193.10000002384
20,76,7,7,0,7,1,236,407,0,1,1429.09999996424
20,77,5,5,0,1,0,254,439,0,1,1440
20,77,5,5,0,2,4,254,439,0,1,1127.10000002384
20,77,5,5,0,3,3,254,439,0,1,1412
20,77,5,5,0,4,2,254,439,0,1,1662.10000002384
20,77,5,5,0,5,1,254,439,0,1,1113.10000002384
20,78,5,6,1,1,0,163,350,0,1,1264.60000002384
20,78,5,6,1,2,4,163,350,0,1,1560.19999998808
20,78,5,6,1,3,3,163,350,0,1,1239
20,78,5,6,1,4,2,163,350,0,1,1211.69999998808
20,78,5,6,1,5,1,163,350,0,1,1411.59999996424
20,78,5,6,1,6,0,163,350,0,1,1712.80000001192
20,79,5,9,4,1,5,176,390,0,1,1144.69999998808
20,79,5,9,4,2,4,176,390,0,1,1521.80000001192
20,79,5,9,4,3,3,176,390,0,1,1445.39999997616
20,79,5,9,4,4,2,176,390,0,1,1262.69999998808
20,79,5,9,4,5,1,176,390,0,1,1394.19999998808
20,79,5,9,4,6,0,176,390,0,1,1128.89999997616
20,79,5,9,4,7,0,176,390,0,1,1495.19999998808
20,79,5,9,4,8,0,176,390,0,1,1312.69999998808
20,79,5,9,4,9,0,176,390,0,1,1206.10000002384
20,80,7,7,0,1,7,156,380,0,1,1064.19999998808
20,80,7,7,0,2,6,156,380,0,1,1424.69999998808
20,80,7,7,0,3,5,156,380,0,1,1346.70000004768
20,80,7,7,0,4,4,156,380,0,1,1161
20,80,7,7,0,5,3,156,380,0,1,1289.40000003576
20,80,7,7,0,6,2,156,380,0,1,1210.80000001192
20,80,7,7,0,7,1,156,380,0,1,1128.39999997616
20,81,6,5,-1,1,0,177,369,0,1,1766.59999996424
20,81,6,5,-1,2,5,177,369,0,1,1211.19999998808
20,81,6,5,-1,3,4,177,369,0,1,1290.5
20,81,6,5,-1,4,3,177,369,0,1,1162.30000001192
20,81,6,5,-1,5,2,177,369,0,1,1195
20,82,6,6,0,1,1,59,267,0,1,1779.80000001192
20,82,6,6,0,2,5,59,267,0,1,1295.29999995232
20,82,6,6,0,3,4,59,267,0,1,1274.40000003576
20,82,6,6,0,4,3,59,267,0,1,1094.5
20,82,6,6,0,5,2,59,267,0,1,1128.19999998808
20,82,6,6,0,6,1,59,267,0,1,1073.59999996424
20,83,7,5,-2,1,0,109,329,0,1,1377
20,83,7,5,-2,2,6,109,329,0,1,1396.09999996424
20,83,7,5,-2,3,5,109,329,0,1,1262.39999997616
20,83,7,5,-2,4,4,109,329,0,1,1261.89999997616
20,83,7,5,-2,5,3,109,329,0,1,1107.79999995232
20,84,6,6,0,1,2,130,339,0,1,1262.80000001192
20,84,6,6,0,2,5,130,339,0,1,1429.30000001192
20,84,6,6,0,3,4,130,339,0,1,1143.70000004768
20,84,6,6,0,4,3,130,339,0,1,2063.69999998808
20,84,6,6,0,5,2,130,339,0,1,1129.5
20,84,6,6,0,6,1,130,339,0,1,1346.89999997616
20,85,7,7,0,1,0,116,317,0,1,1258.79999995232
20,85,7,7,0,2,6,116,317,0,1,1976
20,85,7,7,0,3,5,116,317,0,1,1180.80000001192
20,85,7,7,0,4,4,116,317,0,1,978.100000023842
20,85,7,7,0,5,3,116,317,0,1,1373.69999998808
20,85,7,7,0,6,2,116,317,0,1,1562.10000002384
20,85,7,7,0,7,1,116,317,0,1,1230.30000001192
20,86,7,7,0,1,0,277,498,0,1,1228.10000002384
20,86,7,7,0,2,6,277,498,0,1,1261.90000003576
20,86,7,7,0,3,5,277,498,0,1,1106.20000004768
20,86,7,7,0,4,4,277,498,0,1,1229
20,86,7,7,0,5,3,277,498,0,1,1579
20,86,7,7,0,6,2,277,498,0,1,1144.59999996424
20,86,7,7,0,7,1,277,498,0,1,1312.90000003576
20,87,5,5,0,1,0,160,308,0,1,1104.59999996424
20,87,5,5,0,2,4,160,308,0,1,1479.09999996424
20,87,5,5,0,3,3,160,308,0,1,1064.10000002384
20,87,5,5,0,4,2,160,308,0,1,1294.30000001192
20,87,5,5,0,5,1,160,308,0,1,1197.39999997616
20,88,5,5,0,1,0,117,323,0,1,1138.69999998808
20,88,5,5,0,2,4,117,323,0,1,1197.30000001192
20,88,5,5,0,3,3,117,323,0,1,1277.89999997616
20,88,5,5,0,4,2,117,323,0,1,2474.39999997616
20,88,5,5,0,5,1,117,323,0,1,1313.10000002384
20,89,5,9,4,1,0,250,467,0,1,1346.19999998808
20,89,5,9,4,2,4,250,467,0,1,1229.09999996424
20,89,5,9,4,3,3,250,467,0,1,1344.89999997616
20,89,5,9,4,4,2,250,467,0,1,2546.59999996424
20,89,5,9,4,5,1,250,467,0,1,1378.5
20,89,5,9,4,6,0,250,467,0,1,1213.69999998808
20,89,5,9,4,7,0,250,467,0,1,1111.10000002384
20,89,5,9,4,8,0,250,467,0,1,1096.59999996424
20,89,5,9,4,9,0,250,467,0,1,1572.69999998808
20,90,5,5,0,1,5,41,198,0,1,1230.09999996424
20,90,5,5,0,2,4,41,198,0,1,978.700000047684
20,90,5,5,0,3,3,41,198,0,1,1099
20,90,5,5,0,4,2,41,198,0,1,1141
20,90,5,5,0,5,1,41,198,0,1,1023.40000003576
20,91,5,2,-3,1,0,240,431,0,1,1362.30000001192
20,91,5,2,-3,2,4,240,431,0,1,1046.69999998808
20,92,7,3,-4,1,3,226,389,0,1,1139.60000002384
20,92,7,3,-4,2,6,226,389,0,1,1077.80000001192
20,92,7,3,-4,3,5,226,389,0,1,1378.60000002384
20,93,6,4,-2,1,4,27,192,0,1,1896.59999996424
20,93,6,4,-2,2,5,27,192,0,1,1044
20,93,6,4,-2,3,4,27,192,0,1,1074.19999998808
20,93,6,4,-2,4,3,27,192,0,1,1845.69999998808
20,94,7,7,0,1,2,236,436,0,1,1227.89999997616
20,94,7,7,0,2,6,236,436,0,1,1062.30000001192
20,94,7,7,0,3,5,236,436,0,1,2329
20,94,7,7,0,4,4,236,436,0,1,1145.19999998808
20,94,7,7,0,5,3,236,436,0,1,1346
20,94,7,7,0,6,2,236,436,0,1,1295.69999998808
20,94,7,7,0,7,1,236,436,0,1,1278.89999997616
20,95,6,6,0,1,0,298,514,0,1,1189.29999995232
20,95,6,6,0,2,5,298,514,0,1,1044.89999997616
20,95,6,6,0,3,4,298,514,0,1,1346.39999997616
20,95,6,6,0,4,3,298,514,0,1,1274.20000004768
20,95,6,6,0,5,2,298,514,0,1,1377.39999997616
20,95,6,6,0,6,1,298,514,0,1,1180.5
20,96,6,8,2,1,0,114,330,0,1,1430.59999996424
20,96,6,8,2,2,5,114,330,0,1,1225.5
20,96,6,8,2,3,4,114,330,0,1,1072.89999997616
20,96,6,8,2,4,3,114,330,0,1,1363.19999998808
20,96,6,8,2,5,2,114,330,0,1,1312.69999998808
20,96,6,8,2,6,1,114,330,0,1,1149.19999998808
20,96,6,8,2,7,0,114,330,0,1,1158.30000001192
20,96,6,8,2,8,0,114,330,0,1,1524.89999997616
37,1,7,9,2,1,7,324,553,0,1,1920.99999999999
37,1,7,9,2,2,6,324,553,0,1,1348
37,1,7,9,2,3,5,324,553,0,1,1411
37,1,7,9,2,4,4,324,553,0,1,2050
37,1,7,9,2,5,3,324,553,0,1,1448
37,1,7,9,2,6,2,324,553,0,1,1356
37,1,7,9,2,7,1,324,553,0,1,1270
37,1,7,9,2,8,0,324,553,0,1,1222
37,1,7,9,2,9,0,324,553,0,1,1338
37,2,5,5,0,1,5,206,410,0,1,1274
37,2,5,5,0,2,4,206,410,0,1,1195
37,2,5,5,0,3,3,206,410,0,1,1158
37,2,5,5,0,4,2,206,410,0,1,1132
37,2,5,5,0,5,1,206,410,0,1,1133
37,3,6,6,0,1,0,328,485,0,1,1291.99999999999
37,3,6,6,0,2,5,328,485,0,1,1250
37,3,6,6,0,3,4,328,485,0,1,1213
37,3,6,6,0,4,3,328,485,0,1,1252.00000000001
37,3,6,6,0,5,2,328,485,0,1,1227.00000000001
37,3,6,6,0,6,1,328,485,0,1,1123.00000000001
37,4,7,4,-3,1,0,125,334,0,1,1471.00000000001
37,4,7,4,-3,2,6,125,334,0,1,1164.99999999999
37,4,7,4,-3,3,5,125,334,0,1,1053
37,4,7,4,-3,4,4,125,334,0,1,1163
37,5,7,5,-2,1,3,104,333,0,1,1090.99999999999
37,5,7,5,-2,2,6,104,333,0,1,1632
37,5,7,5,-2,3,5,104,333,0,1,1640
37,5,7,5,-2,4,4,104,333,0,1,1302
37,5,7,5,-2,5,3,104,333,0,1,1193.99999999999
37,6,6,5,-1,1,2,126,292,0,1,1357
37,6,6,5,-1,2,5,126,292,0,1,1641.00000000001
37,6,6,5,-1,3,4,126,292,0,1,1035
37,6,6,5,-1,4,3,126,292,0,1,1977.00000000001
37,6,6,5,-1,5,2,126,292,0,1,1200.00000000003
37,7,6,6,0,1,1,124,300,0,1,1128
37,7,6,6,0,2,5,124,300,0,1,1100
37,7,6,6,0,3,4,124,300,0,1,1149.99999999997
37,7,6,6,0,4,3,124,300,0,1,1232
37,7,6,6,0,5,2,124,300,0,1,1133
37,7,6,6,0,6,1,124,300,0,1,1166
37,8,5,9,4,1,0,75,273,0,1,1365
37,8,5,9,4,2,4,75,273,0,1,1163
37,8,5,9,4,3,3,75,273,0,1,1049
37,8,5,9,4,4,2,75,273,0,1,1020
37,8,5,9,4,5,1,75,273,0,1,1071.99999999997
37,8,5,9,4,6,0,75,273,0,1,1031
37,8,5,9,4,7,0,75,273,0,1,1028
37,8,5,9,4,8,0,75,273,0,1,1051.99999999997
37,8,5,9,4,9,0,75,273,0,1,2412
37,9,7,3,-4,1,7,181,415,0,1,1198
37,9,7,3,-4,2,6,181,415,0,1,1351
37,9,7,3,-4,3,5,181,415,0,1,1703
37,10,6,6,0,1,4,347,578,0,1,1518.99999999997
37,10,6,6,0,2,5,347,578,0,1,1240
37,10,6,6,0,3,4,347,578,0,1,1110
37,10,6,6,0,4,3,347,578,0,1,1139.99999999997
37,10,6,6,0,5,2,347,578,0,1,1486
37,10,6,6,0,6,1,347,578,0,1,1194.99999999997
37,11,5,4,-1,1,0,162,372,0,1,1081
37,11,5,4,-1,2,4,162,372,0,1,1163
37,11,5,4,-1,3,3,162,372,0,1,1064
37,11,5,4,-1,4,2,162,372,0,1,1009
37,12,6,8,2,1,1,281,489,0,1,1981
37,12,6,8,2,2,5,281,489,0,1,1222
37,12,6,8,2,3,4,281,489,0,1,1034
37,12,6,8,2,4,3,281,489,0,1,1390
37,12,6,8,2,5,2,281,489,0,1,2230
37,12,6,8,2,6,1,281,489,0,1,1259.99999999997
37,12,6,8,2,7,0,281,489,0,1,1574.99999999997
37,12,6,8,2,8,0,281,489,0,1,1194
37,13,7,10,3,1,7,317,469,0,1,1090.00000000003
37,13,7,10,3,2,6,317,469,0,1,1794
37,13,7,10,3,3,5,317,469,0,1,1818
37,13,7,10,3,4,4,317,469,0,1,1138.00000000003
37,13,7,10,3,5,3,317,469,0,1,1414
37,13,7,10,3,6,2,317,469,0,1,1105
37,13,7,10,3,7,1,317,469,0,1,1268
37,13,7,10,3,8,0,317,469,0,1,1083
37,13,7,10,3,9,0,317,469,0,1,1148
37,13,7,10,3,10,0,317,469,0,1,1082.00000000003
37,14,5,4,-1,1,5,74,271,0,1,2077
37,14,5,4,-1,2,4,74,271,0,1,1146
37,14,5,4,-1,3,3,74,271,0,1,1316
37,14,5,4,-1,4,2,74,271,0,1,1107.99999999997
37,15,5,9,4,1,1,278,428,0,1,1227
37,15,5,9,4,2,4,278,428,0,1,1423
37,15,5,9,4,3,3,278,428,0,1,1141.00000000003
37,15,5,9,4,4,2,278,428,0,1,1145
37,15,5,9,4,5,1,278,428,0,1,1327
37,15,5,9,4,6,0,278,428,0,1,1318
37,15,5,9,4,7,0,278,428,0,1,1184
37,15,5,9,4,8,0,278,428,0,1,1286
37,15,5,9,4,9,0,278,428,0,1,1064.99999999997
37,16,6,8,2,1,6,140,311,0,1,1108.00000000003
37,16,6,8,2,2,5,140,311,0,1,1495
37,16,6,8,2,3,4,140,311,0,1,1153
37,16,6,8,2,4,3,140,311,0,1,1165
37,16,6,8,2,5,2,140,311,0,1,1754
37,16,6,8,2,6,1,140,311,0,1,1107
37,16,6,8,2,7,0,140,311,0,1,1102
37,16,6,8,2,8,0,140,311,0,1,1334.99999999997
37,17,7,4,-3,1,7,91,323,0,1,1663
37,17,7,4,-3,2,6,91,323,0,1,1015.99999999997
37,17,7,4,-3,3,5,91,323,0,1,1041
37,17,7,4,-3,4,4,91,323,0,1,1195
37,18,5,5,0,1,3,43,237,0,1,961
37,18,5,5,0,2,4,43,237,0,1,1519
37,18,5,5,0,3,3,43,237,0,1,1033.99999999997
37,18,5,5,0,4,2,43,237,0,1,1247
37,18,5,5,0,5,1,43,237,0,1,1186.00000000003
37,19,7,7,0,1,0,300,488,0,1,1017
37,19,7,7,0,2,6,300,488,0,1,1042
37,19,7,7,0,3,5,300,488,0,1,1041
37,19,7,7,0,4,4,300,488,0,1,972.999999999971
37,19,7,7,0,5,3,300,488,0,1,1130
37,19,7,7,0,6,2,300,488,0,1,1276
37,19,7,7,0,7,1,300,488,0,1,1076.00000000003
37,20,6,7,1,1,0,85,241,0,1,1431
37,20,6,7,1,2,5,85,241,0,1,1036
37,20,6,7,1,3,4,85,241,0,1,1017.99999999997
37,20,6,7,1,4,3,85,241,0,1,1066
37,20,6,7,1,5,2,85,241,0,1,1006
37,20,6,7,1,6,1,85,241,0,1,1211
37,20,6,7,1,7,0,85,241,0,1,1124
37,21,5,5,0,1,5,293,502,0,1,1259
37,21,5,5,0,2,4,293,502,0,1,1204
37,21,5,5,0,3,3,293,502,0,1,1145.00000000006
37,21,5,5,0,4,2,293,502,0,1,1600
37,21,5,5,0,5,1,293,502,0,1,1237
37,22,5,6,1,1,0,218,439,0,1,1172
37,22,5,6,1,2,4,218,439,0,1,1277
37,22,5,6,1,3,3,218,439,0,1,1292.99999999994
37,22,5,6,1,4,2,218,439,0,1,1113
37,22,5,6,1,5,1,218,439,0,1,1665.00000000006
37,22,5,6,1,6,0,218,439,0,1,1276
37,23,5,5,0,1,5,47,248,0,1,1077
37,23,5,5,0,2,4,47,248,0,1,1173
37,23,5,5,0,3,3,47,248,0,1,1098.00000000006
37,23,5,5,0,4,2,47,248,0,1,1041
37,23,5,5,0,5,1,47,248,0,1,1002
37,24,7,7,0,1,0,52,284,0,1,1082
37,24,7,7,0,2,6,52,284,0,1,1002
37,24,7,7,0,3,5,52,284,0,1,1113
37,24,7,7,0,4,4,52,284,0,1,1406
37,24,7,7,0,5,3,52,284,0,1,1310
37,24,7,7,0,6,2,52,284,0,1,1106
37,24,7,7,0,7,1,52,284,0,1,1175
37,25,7,7,0,1,0,57,256,0,1,985
37,25,7,7,0,2,6,57,256,0,1,1083
37,25,7,7,0,3,5,57,256,0,1,1241
37,25,7,7,0,4,4,57,256,0,1,1008.00000000006
37,25,7,7,0,5,3,57,256,0,1,1158
37,25,7,7,0,6,2,57,256,0,1,1276
37,25,7,7,0,7,1,57,256,0,1,1140
37,26,7,11,4,1,0,29,183,0,1,1146.00000000006
37,26,7,11,4,2,6,29,183,0,1,1229
37,26,7,11,4,3,5,29,183,0,1,1073
37,26,7,11,4,4,4,29,183,0,1,1003
37,26,7,11,4,5,3,29,183,0,1,1202
37,26,7,11,4,6,2,29,183,0,1,1129
37,26,7,11,4,7,1,29,183,0,1,3467
37,26,7,11,4,8,0,29,183,0,1,1234.00000000006
37,26,7,11,4,9,0,29,183,0,1,1105
37,26,7,11,4,10,0,29,183,0,1,1756
37,26,7,11,4,11,0,29,183,0,1,1199.99999999994
37,27,6,6,0,1,6,272,453,0,1,1291
37,27,6,6,0,2,5,272,453,0,1,1075
37,27,6,6,0,3,4,272,453,0,1,1016
37,27,6,6,0,4,3,272,453,0,1,1270
37,27,6,6,0,5,2,272,453,0,1,1195
37,27,6,6,0,6,1,272,453,0,1,1272
37,28,5,1,-4,1,0,341,519,0,1,1252
37,29,6,4,-2,1,6,234,400,0,1,1238
37,29,6,4,-2,2,5,234,400,0,1,1102.00000000006
37,29,6,4,-2,3,4,234,400,0,1,1182
37,29,6,4,-2,4,3,234,400,0,1,1234
37,30,5,7,2,1,2,120,267,0,1,1138
37,30,5,7,2,2,4,120,267,0,1,1632
37,30,5,7,2,3,3,120,267,0,1,1168
37,30,5,7,2,4,2,120,267,0,1,1306.00000000006
37,30,5,7,2,5,1,120,267,0,1,1318
37,30,5,7,2,6,0,120,267,0,1,1096
37,30,5,7,2,7,0,120,267,0,1,1608
37,31,5,8,3,1,5,236,438,0,1,1124
37,31,5,8,3,2,4,236,438,0,1,1931
37,31,5,8,3,3,3,236,438,0,1,1067.99999999994
37,31,5,8,3,4,2,236,438,0,1,1167
37,31,5,8,3,5,1,236,438,0,1,1027
37,31,5,8,3,6,0,236,438,0,1,1287
37,31,5,8,3,7,0,236,438,0,1,1249
37,31,5,8,3,8,0,236,438,0,1,1156
37,32,7,7,0,1,7,192,352,0,1,1177.99999999994
37,32,7,7,0,2,6,192,352,0,1,1017
37,32,7,7,0,3,5,192,352,0,1,1034
37,32,7,7,0,4,4,192,352,0,1,1210
37,32,7,7,0,5,3,192,352,0,1,1105.99999999994
37,32,7,7,0,6,2,192,352,0,1,1165
37,32,7,7,0,7,1,192,352,0,1,1113
37,33,7,7,0,1,0,307,519,0,1,1370
37,33,7,7,0,2,6,307,519,0,1,962
37,33,7,7,0,3,5,307,519,0,1,1089
37,33,7,7,0,4,4,307,519,0,1,1146
37,33,7,7,0,5,3,307,519,0,1,1001.00000000006
37,33,7,7,0,6,2,307,519,0,1,928
37,33,7,7,0,7,1,307,519,0,1,2085
37,34,6,7,1,1,0,293,449,0,1,1178
37,34,6,7,1,2,5,293,449,0,1,1209
37,34,6,7,1,3,4,293,449,0,1,1165
37,34,6,7,1,4,3,293,449,0,1,1117
37,34,6,7,1,5,2,293,449,0,1,1073
37,34,6,7,1,6,1,293,449,0,1,1128.00000000006
37,34,6,7,1,7,0,293,449,0,1,1108
37,35,7,7,0,1,7,71,263,0,1,1057
37,35,7,7,0,2,6,71,263,0,1,1051
37,35,7,7,0,3,5,71,263,0,1,977
37,35,7,7,0,4,4,71,263,0,1,1106
37,35,7,7,0,5,3,71,263,0,1,1268.99999999994
37,35,7,7,0,6,2,71,263,0,1,1140
37,35,7,7,0,7,1,71,263,0,1,1199.99999999994
37,36,5,5,0,1,0,187,406,0,1,1471
37,36,5,5,0,2,4,187,406,0,1,1278
37,36,5,5,0,3,3,187,406,0,1,1129.00000000006
37,36,5,5,0,4,2,187,406,0,1,969
37,36,5,5,0,5,1,187,406,0,1,1123.00000000006
37,37,6,10,4,1,0,136,327,0,1,1738
37,37,6,10,4,2,5,136,327,0,1,1258
37,37,6,10,4,3,4,136,327,0,1,1304
37,37,6,10,4,4,3,136,327,0,1,1069
37,37,6,10,4,5,2,136,327,0,1,1251
37,37,6,10,4,6,1,136,327,0,1,1112.00000000006
37,37,6,10,4,7,0,136,327,0,1,1656
37,37,6,10,4,8,0,136,327,0,1,1339.99999999994
37,37,6,10,4,9,0,136,327,0,1,1422
37,37,6,10,4,10,0,136,327,0,1,1208
37,38,7,6,-1,1,7,15,205,0,1,1665
37,38,7,6,-1,2,6,15,205,0,1,968
37,38,7,6,-1,3,5,15,205,0,1,1042
37,38,7,6,-1,4,4,15,205,0,1,1307
37,38,7,6,-1,5,3,15,205,0,1,953.000000000058
37,38,7,6,-1,6,2,15,205,0,1,1083
37,39,6,3,-3,1,1,75,259,0,1,1220
37,39,6,3,-3,2,5,75,259,0,1,1043
37,39,6,3,-3,3,4,75,259,0,1,1187
37,40,7,5,-2,1,3,299,510,0,1,1212
37,40,7,5,-2,2,6,299,510,0,1,1189
37,40,7,5,-2,3,5,299,510,0,1,1404
37,40,7,5,-2,4,4,299,510,0,1,1216
37,40,7,5,-2,5,3,299,510,0,1,1628
37,41,6,6,0,1,2,180,404,0,1,1180
37,41,6,6,0,2,5,180,404,0,1,1217
37,41,6,6,0,3,4,180,404,0,1,1334.99999999994
37,41,6,6,0,4,3,180,404,0,1,1048
37,41,6,6,0,5,2,180,404,0,1,1114
37,41,6,6,0,6,1,180,404,0,1,1170.99999999994
37,42,5,7,2,1,0,221,445,0,1,1211
37,42,5,7,2,2,4,221,445,0,1,1574
37,42,5,7,2,3,3,221,445,0,1,1117
37,42,5,7,2,4,2,221,445,0,1,1176
37,42,5,7,2,5,1,221,445,0,1,1115
37,42,5,7,2,6,0,221,445,0,1,1073
37,42,5,7,2,7,0,221,445,0,1,1088
37,43,5,6,1,1,5,356,529,0,1,1669
37,43,5,6,1,2,4,356,529,0,1,1356
37,43,5,6,1,3,3,356,529,0,1,1041
37,43,5,6,1,4,2,356,529,0,1,1017
37,43,5,6,1,5,1,356,529,0,1,960.999999999942
37,43,5,6,1,6,0,356,529,0,1,1167
37,44,7,7,0,1,7,216,366,0,1,1169.99999999994
37,44,7,7,0,2,6,216,366,0,1,2715.00000000006
37,44,7,7,0,3,5,216,366,0,1,1072
37,44,7,7,0,4,4,216,366,0,1,1051.99999999994
37,44,7,7,0,5,3,216,366,0,1,1113.99999999994
37,44,7,7,0,6,2,216,366,0,1,1056
37,44,7,7,0,7,1,216,366,0,1,1116
37,45,5,5,0,1,0,182,387,0,1,1272
37,45,5,5,0,2,4,182,387,0,1,1029
37,45,5,5,0,3,3,182,387,0,1,1090.99999999994
37,45,5,5,0,4,2,182,387,0,1,1043
37,45,5,5,0,5,1,182,387,0,1,993.999999999942
37,46,6,6,0,1,0,204,385,0,1,1107
37,46,6,6,0,2,5,204,385,0,1,1019
37,46,6,6,0,3,4,204,385,0,1,1125
37,46,6,6,0,4,3,204,385,0,1,1261.00000000006
37,46,6,6,0,5,2,204,385,0,1,1180.99999999994
37,46,6,6,0,6,1,204,385,0,1,1072.99999999994
37,47,7,3,-4,1,0,345,531,0,1,1321
37,47,7,3,-4,2,6,345,531,0,1,982
37,47,7,3,-4,3,5,345,531,0,1,1003
37,48,7,7,0,1,4,209,400,0,1,1127
37,48,7,7,0,2,6,209,400,0,1,1024.99999999994
37,48,7,7,0,3,5,209,400,0,1,1036
37,48,7,7,0,4,4,209,400,0,1,1025.99999999994
37,48,7,7,0,5,3,209,400,0,1,949.000000000058
37,48,7,7,0,6,2,209,400,0,1,953.999999999942
37,48,7,7,0,7,1,209,400,0,1,950.999999999942
37,49,7,7,0,1,0,55,212,0,1,1096.00000000006
37,49,7,7,0,2,6,55,212,0,1,1527.99999999994
37,49,7,7,0,3,5,55,212,0,1,1179
37,49,7,7,0,4,4,55,212,0,1,1107
37,49,7,7,0,5,3,55,212,0,1,1024.99999999994
37,49,7,7,0,6,2,55,212,0,1,1054.99999999994
37,49,7,7,0,7,1,55,212,0,1,1010
37,50,5,3,-2,1,0,11,196,0,1,1036
37,50,5,3,-2,2,4,11,196,0,1,1233
37,50,5,3,-2,3,3,11,196,0,1,1236
37,51,7,9,2,1,2,236,459,0,1,2288
37,51,7,9,2,2,6,236,459,0,1,1103
37,51,7,9,2,3,5,236,459,0,1,1037.99999999994
37,51,7,9,2,4,4,236,459,0,1,1025.99999999994
37,51,7,9,2,5,3,236,459,0,1,1041
37,51,7,9,2,6,2,236,459,0,1,1226
37,51,7,9,2,7,1,236,459,0,1,1194
37,51,7,9,2,8,0,236,459,0,1,1099
37,51,7,9,2,9,0,236,459,0,1,1097.99999999994
37,52,5,5,0,1,5,133,285,0,1,1510.99999999994
37,52,5,5,0,2,4,133,285,0,1,1131
37,52,5,5,0,3,3,133,285,0,1,1052
37,52,5,5,0,4,2,133,285,0,1,1187.99999999994
37,52,5,5,0,5,1,133,285,0,1,1082.99999999994
37,53,7,7,0,1,0,237,412,0,1,1040.99999999994
37,53,7,7,0,2,6,237,412,0,1,1026.99999999994
37,53,7,7,0,3,5,237,412,0,1,1666.00000000012
37,53,7,7,0,4,4,237,412,0,1,1013.00000000012
37,53,7,7,0,5,3,237,412,0,1,1251
37,53,7,7,0,6,2,237,412,0,1,1163
37,53,7,7,0,7,1,237,412,0,1,1001
37,54,6,3,-3,1,0,219,400,0,1,1146
37,54,6,3,-3,2,5,219,400,0,1,1201
37,54,6,3,-3,3,4,219,400,0,1,855
37,55,7,8,1,1,3,45,275,0,1,1148
37,55,7,8,1,2,6,45,275,0,1,1040
37,55,7,8,1,3,5,45,275,0,1,1226
37,55,7,8,1,4,4,45,275,0,1,1024
37,55,7,8,1,5,3,45,275,0,1,1227
37,55,7,8,1,6,2,45,275,0,1,2878.99999999988
37,55,7,8,1,7,1,45,275,0,1,985
37,55,7,8,1,8,0,45,275,0,1,1089.00000000012
37,56,7,7,0,1,7,113,313,0,1,1374
37,56,7,7,0,2,6,113,313,0,1,1080
37,56,7,7,0,3,5,113,313,0,1,886
37,56,7,7,0,4,4,113,313,0,1,1189
37,56,7,7,0,5,3,113,313,0,1,1025
37,56,7,7,0,6,2,113,313,0,1,1089.00000000012
37,56,7,7,0,7,1,113,313,0,1,1192.99999999988
37,57,5,5,0,1,0,278,445,0,1,1392
37,57,5,5,0,2,4,278,445,0,1,1034.00000000012
37,57,5,5,0,3,3,278,445,0,1,1128
37,57,5,5,0,4,2,278,445,0,1,1051
37,57,5,5,0,5,1,278,445,0,1,1225
37,58,7,7,0,1,0,51,253,0,1,1096
37,58,7,7,0,2,6,51,253,0,1,1056
37,58,7,7,0,3,5,51,253,0,1,1167
37,58,7,7,0,4,4,51,253,0,1,1153
37,58,7,7,0,5,3,51,253,0,1,1237
37,58,7,7,0,6,2,51,253,0,1,1097
37,58,7,7,0,7,1,51,253,0,1,1302
37,59,6,2,-4,1,0,87,300,0,1,1322
37,59,6,2,-4,2,5,87,300,0,1,1192
37,60,6,10,4,1,4,63,257,0,1,957
37,60,6,10,4,2,5,63,257,0,1,1147.00000000012
37,60,6,10,4,3,4,63,257,0,1,904
37,60,6,10,4,4,3,63,257,0,1,1107
37,60,6,10,4,5,2,63,257,0,1,1048
37,60,6,10,4,6,1,63,257,0,1,1632.00000000012
37,60,6,10,4,7,0,63,257,0,1,1232
37,60,6,10,4,8,0,63,257,0,1,1219.00000000012
37,60,6,10,4,9,0,63,257,0,1,1123
37,60,6,10,4,10,0,63,257,0,1,1243
37,61,5,5,0,1,5,207,434,0,1,1147
37,61,5,5,0,2,4,207,434,0,1,1211
37,61,5,5,0,3,3,207,434,0,1,1200
37,61,5,5,0,4,2,207,434,0,1,1025
37,61,5,5,0,5,1,207,434,0,1,1039.00000000012
37,62,5,5,0,1,0,86,247,0,1,1160
37,62,5,5,0,2,4,86,247,0,1,1226
37,62,5,5,0,3,3,86,247,0,1,1015
37,62,5,5,0,4,2,86,247,0,1,1154
37,62,5,5,0,5,1,86,247,0,1,1113.99999999988
37,63,6,5,-1,1,0,287,490,0,1,2231
37,63,6,5,-1,2,5,287,490,0,1,1012
37,63,6,5,-1,3,4,287,490,0,1,880
37,63,6,5,-1,4,3,287,490,0,1,1168
37,63,6,5,-1,5,2,287,490,0,1,1161
37,64,5,3,-2,1,1,322,481,0,1,1040
37,64,5,3,-2,2,4,322,481,0,1,1105
37,64,5,3,-2,3,3,322,481,0,1,1061
37,65,5,5,0,1,2,35,189,0,1,1538
37,65,5,5,0,2,4,35,189,0,1,958
37,65,5,5,0,3,3,35,189,0,1,1088
37,65,5,5,0,4,2,35,189,0,1,991
37,65,5,5,0,5,1,35,189,0,1,970
37,66,5,1,-4,1,0,20,172,0,1,1023
37,67,5,5,0,1,5,84,296,0,1,1119
37,67,5,5,0,2,4,84,296,0,1,1000
37,67,5,5,0,3,3,84,296,0,1,1025
37,67,5,5,0,4,2,84,296,0,1,1002
37,67,5,5,0,5,1,84,296,0,1,1112
37,68,5,2,-3,1,0,2,221,0,1,1406.99999999988
37,68,5,2,-3,2,4,2,221,0,1,1082
37,69,6,6,0,1,3,350,522,0,1,991
37,69,6,6,0,2,5,350,522,0,1,1107
37,69,6,6,0,3,4,350,522,0,1,1225
37,69,6,6,0,4,3,350,522,0,1,1030
37,69,6,6,0,5,2,350,522,0,1,1057.99999999988
37,69,6,6,0,6,1,350,522,0,1,1065
37,70,7,11,4,1,0,117,342,0,1,1087.00000000012
37,70,7,11,4,2,6,117,342,0,1,1793
37,70,7,11,4,3,5,117,342,0,1,1163
37,70,7,11,4,4,4,117,342,0,1,1094
37,70,7,11,4,5,3,117,342,0,1,1196
37,70,7,11,4,6,2,117,342,0,1,983.999999999884
37,70,7,11,4,7,1,117,342,0,1,1066
37,70,7,11,4,8,0,117,342,0,1,1550
37,70,7,11,4,9,0,117,342,0,1,894
37,70,7,11,4,10,0,117,342,0,1,1134
37,70,7,11,4,11,0,117,342,0,1,897
37,71,6,6,0,1,6,154,340,0,1,975
37,71,6,6,0,2,5,154,340,0,1,1210
37,71,6,6,0,3,4,154,340,0,1,1211
37,71,6,6,0,4,3,154,340,0,1,1007
37,71,6,6,0,5,2,154,340,0,1,1304.99999999988
37,71,6,6,0,6,1,154,340,0,1,1106
37,72,6,6,0,1,0,8,171,0,1,1275.99999999988
37,72,6,6,0,2,5,8,171,0,1,1152
37,72,6,6,0,3,4,8,171,0,1,1041.99999999988
37,72,6,6,0,4,3,8,171,0,1,1056
37,72,6,6,0,5,2,8,171,0,1,977
37,72,6,6,0,6,1,8,171,0,1,1122
37,73,5,5,0,1,0,225,399,0,1,1155
37,73,5,5,0,2,4,225,399,0,1,1041
37,73,5,5,0,3,3,225,399,0,1,1151.00000000012
37,73,5,5,0,4,2,225,399,0,1,1004
37,73,5,5,0,5,1,225,399,0,1,1159
37,74,6,6,0,1,0,316,533,0,1,1187.99999999988
37,74,6,6,0,2,5,316,533,0,1,1045.00000000012
37,74,6,6,0,3,4,316,533,0,1,1115
37,74,6,6,0,4,3,316,533,0,1,1603.99999999988
37,74,6,6,0,5,2,316,533,0,1,1097
37,74,6,6,0,6,1,316,533,0,1,1081
37,75,5,2,-3,1,0,274,436,0,1,1679
37,75,5,2,-3,2,4,274,436,0,1,976
37,76,7,7,0,1,3,314,513,0,1,1048
37,76,7,7,0,2,6,314,513,0,1,1323.00000000012
37,76,7,7,0,3,5,314,513,0,1,1072
37,76,7,7,0,4,4,314,513,0,1,1228
37,76,7,7,0,5,3,314,513,0,1,1168
37,76,7,7,0,6,2,314,513,0,1,1000
37,76,7,7,0,7,1,314,513,0,1,1725
37,77,6,6,0,1,0,347,573,0,1,1362.99999999988
37,77,6,6,0,2,5,347,573,4,0,886
37,77,6,6,0,3,4,347,573,0,1,1292
37,77,6,6,0,4,3,347,573,0,1,1129
37,77,6,6,0,5,2,347,573,0,1,1061
37,77,6,6,0,6,1,347,573,0,1,1254
37,78,6,6,0,1,0,195,389,0,1,1281
37,78,6,6,0,2,5,195,389,0,1,1008
37,78,6,6,0,3,4,195,389,0,1,1413
37,78,6,6,0,4,3,195,389,0,1,1432
37,78,6,6,0,5,2,195,389,0,1,1160
37,78,6,6,0,6,1,195,389,0,1,1096
37,79,6,6,0,1,0,358,541,0,1,1380
37,79,6,6,0,2,5,358,541,0,1,958.000000000116
37,79,6,6,0,3,4,358,541,0,1,1078
37,79,6,6,0,4,3,358,541,0,1,1208
37,79,6,6,0,5,2,358,541,0,1,1080
37,79,6,6,0,6,1,358,541,0,1,1295
37,80,5,8,3,1,0,177,376,0,1,1376.99999999988
37,80,5,8,3,2,4,177,376,0,1,1088
37,80,5,8,3,3,3,177,376,0,1,1056
37,80,5,8,3,4,2,177,376,0,1,1005
37,80,5,8,3,5,1,177,376,0,1,991
37,80,5,8,3,6,0,177,376,0,1,1107.00000000012
37,80,5,8,3,7,0,177,376,0,1,1043
37,80,5,8,3,8,0,177,376,0,1,884
37,81,7,7,0,1,7,154,327,0,1,1352
37,81,7,7,0,2,6,154,327,0,1,1696
37,81,7,7,0,3,5,154,327,0,1,1380
37,81,7,7,0,4,4,154,327,0,1,879
37,81,7,7,0,5,3,154,327,0,1,1198.00000000012
37,81,7,7,0,6,2,154,327,0,1,1063
37,81,7,7,0,7,1,154,327,0,1,1021
37,82,7,7,0,1,0,62,219,0,1,1956
37,82,7,7,0,2,6,62,219,0,1,1821
37,82,7,7,0,3,5,62,219,0,1,1167
37,82,7,7,0,4,4,62,219,0,1,1196
37,82,7,7,0,5,3,62,219,0,1,1204.00000000012
37,82,7,7,0,6,2,62,219,0,1,1019
37,82,7,7,0,7,1,62,219,0,1,1204
37,83,5,5,0,1,0,236,406,0,1,1140
37,83,5,5,0,2,4,236,406,0,1,1083.99999999988
37,83,5,5,0,3,3,236,406,0,1,1046
37,83,5,5,0,4,2,236,406,0,1,1018
37,83,5,5,0,5,1,236,406,0,1,1145
37,84,5,5,0,1,0,53,226,0,1,2314
37,84,5,5,0,2,4,53,226,0,1,1222.99999999988
37,84,5,5,0,3,3,53,226,0,1,1190
37,84,5,5,0,4,2,53,226,0,1,1037
37,84,5,5,0,5,1,53,226,0,1,1206
37,85,7,6,-1,1,0,284,460,0,1,1347
37,85,7,6,-1,2,6,284,460,0,1,1061
37,85,7,6,-1,3,5,284,460,0,1,1123.00000000012
37,85,7,6,-1,4,4,284,460,0,1,1146
37,85,7,6,-1,5,3,284,460,0,1,1254
37,85,7,6,-1,6,2,284,460,0,1,1142
37,86,7,10,3,1,1,20,246,0,1,1075.00000000012
37,86,7,10,3,2,6,20,246,0,1,1108
37,86,7,10,3,3,5,20,246,0,1,1238
37,86,7,10,3,4,4,20,246,0,1,1163.00000000012
37,86,7,10,3,5,3,20,246,0,1,981
37,86,7,10,3,6,2,20,246,0,1,1026
37,86,7,10,3,7,1,20,246,0,1,1013
37,86,7,10,3,8,0,20,246,0,1,1156
37,86,7,10,3,9,0,20,246,0,1,1167.00000000012
37,86,7,10,3,10,0,20,246,0,1,1050
37,87,6,6,0,1,6,2,181,0,1,1115
37,87,6,6,0,2,5,2,181,0,1,1096
37,87,6,6,0,3,4,2,181,0,1,1073.99999999988
37,87,6,6,0,4,3,2,181,0,1,1018
37,87,6,6,0,5,2,2,181,0,1,964
37,87,6,6,0,6,1,2,181,0,1,986
37,88,7,8,1,1,0,47,205,0,1,952.999999999884
37,88,7,8,1,2,6,47,205,0,1,930
37,88,7,8,1,3,5,47,205,0,1,1325
37,88,7,8,1,4,4,47,205,0,1,1134
37,88,7,8,1,5,3,47,205,0,1,1026
37,88,7,8,1,6,2,47,205,0,1,1005
37,88,7,8,1,7,1,47,205,0,1,982
37,88,7,8,1,8,0,47,205,0,1,1141
37,89,6,4,-2,1,6,165,325,0,1,1141
37,89,6,4,-2,2,5,165,325,0,1,1159
37,89,6,4,-2,3,4,165,325,0,1,904.999999999884
37,89,6,4,-2,4,3,165,325,0,1,970
37,90,7,7,0,1,2,130,287,0,1,1056
37,90,7,7,0,2,6,130,287,0,1,1178
37,90,7,7,0,3,5,130,287,0,1,1255
37,90,7,7,0,4,4,130,287,0,1,979
37,90,7,7,0,5,3,130,287,0,1,1727
37,90,7,7,0,6,2,130,287,0,1,1069
37,90,7,7,0,7,1,130,287,0,1,1008.00000000012
37,91,6,9,3,1,0,129,296,0,1,1585.00000000012
37,91,6,9,3,2,5,129,296,0,1,1180
37,91,6,9,3,3,4,129,296,0,1,1107
37,91,6,9,3,4,3,129,296,0,1,1286
37,91,6,9,3,5,2,129,296,0,1,1141.99999999988
37,91,6,9,3,6,1,129,296,0,1,1045
37,91,6,9,3,7,0,129,296,0,1,1139
37,91,6,9,3,8,0,129,296,0,1,1043
37,91,6,9,3,9,0,129,296,0,1,1123.00000000012
37,92,6,6,0,1,6,134,343,0,1,1044
37,92,6,6,0,2,5,134,343,0,1,1414.99999999988
37,92,6,6,0,3,4,134,343,0,1,954
37,92,6,6,0,4,3,134,343,0,1,1029
37,92,6,6,0,5,2,134,343,0,1,1453
37,92,6,6,0,6,1,134,343,0,1,1049
37,93,6,2,-4,1,0,284,469,0,1,1223
37,93,6,2,-4,2,5,284,469,0,1,1109
37,94,6,9,3,1,4,336,521,0,1,1066
37,94,6,9,3,2,5,336,521,0,1,1045
37,94,6,9,3,3,4,336,521,0,1,995
37,94,6,9,3,4,3,336,521,0,1,1124
37,94,6,9,3,5,2,336,521,0,1,1026
37,94,6,9,3,6,1,336,521,0,1,1065
37,94,6,9,3,7,0,336,521,0,1,976
37,94,6,9,3,8,0,336,521,0,1,1197
37,94,6,9,3,9,0,336,521,0,1,1211
37,95,5,5,0,1,5,105,285,0,1,1461
37,95,5,5,0,2,4,105,285,0,1,1126
37,95,5,5,0,3,3,105,285,0,1,1050.99999999988
37,95,5,5,0,4,2,105,285,0,1,1090
37,95,5,5,0,5,1,105,285,0,1,1146
37,96,6,6,0,1,0,174,375,0,1,1043
37,96,6,6,0,2,5,174,375,0,1,1211
37,96,6,6,0,3,4,174,375,0,1,1383
37,96,6,6,0,4,3,174,375,0,1,1045
37,96,6,6,0,5,2,174,375,0,1,1001
37,96,6,6,0,6,1,174,375,0,1,1094
4,1,7,3,-4,1,7,172,357,0,1,1831.5
4,1,7,3,-4,2,6,172,357,0,1,1623.69999998808
4,1,7,3,-4,3,5,172,357,0,1,1373.30000001192
4,2,5,2,-3,1,4,225,446,0,1,1426.5
4,2,5,2,-3,2,4,225,446,0,1,1326.70000001788
4,3,7,7,0,1,3,189,346,0,1,1560.69999998808
4,3,7,7,0,2,6,189,346,0,1,1447.30000001192
4,3,7,7,0,3,5,189,346,0,1,1552.5
4,3,7,7,0,4,4,189,346,0,1,1422.5
4,3,7,7,0,5,3,189,346,0,1,1282
4,3,7,7,0,6,2,189,346,0,1,1283.90000000596
4,3,7,7,0,7,1,189,346,0,1,1416.5
4,4,5,8,3,1,0,175,333,0,1,1615.80000001192
4,4,5,8,3,2,4,175,333,0,1,1356.90000000596
4,4,5,8,3,3,3,175,333,0,1,1477.80000001192
4,4,5,8,3,4,2,175,333,0,1,1674.70000001788
4,4,5,8,3,5,1,175,333,0,1,1406.90000000596
4,4,5,8,3,6,0,175,333,0,1,1463.70000001788
4,4,5,8,3,7,0,175,333,0,1,1455.5
4,4,5,8,3,8,0,175,333,0,1,1372.10000002384
4,5,7,7,0,1,7,280,490,0,1,1467.5
4,5,7,7,0,2,6,280,490,0,1,1593.90000000596
4,5,7,7,0,3,5,280,490,0,1,1708
4,5,7,7,0,4,4,280,490,0,1,1938.40000000596
4,5,7,7,0,5,3,280,490,0,1,1151.40000000596
4,5,7,7,0,6,2,280,490,0,1,1301.90000000596
4,5,7,7,0,7,1,280,490,0,1,1425
4,6,5,9,4,1,0,334,497,0,1,1392.19999998808
4,6,5,9,4,2,4,334,497,0,1,1154.80000001192
4,6,5,9,4,3,3,334,497,0,1,1062.59999999404
4,6,5,9,4,4,2,334,497,0,1,1566.19999998808
4,6,5,9,4,5,1,334,497,0,1,1300.29999998212
4,6,5,9,4,6,0,334,497,0,1,1251.79999998212
4,6,5,9,4,7,0,334,497,0,1,1351.80000001192
4,6,5,9,4,8,0,334,497,0,1,1197.10000002384
4,6,5,9,4,9,0,334,497,0,1,1241
4,7,5,5,0,1,5,360,588,0,1,1397.79999998212
4,7,5,5,0,2,4,360,588,0,1,1616.19999998808
4,7,5,5,0,3,3,360,588,0,1,1557.69999998808
4,7,5,5,0,4,2,360,588,0,1,1318.80000001192
4,7,5,5,0,5,1,360,588,0,1,1899.40000000596
4,8,7,6,-1,1,0,342,547,0,1,1251.80000001192
4,8,7,6,-1,2,6,342,547,0,1,1238.80000001192
4,8,7,6,-1,3,5,342,547,0,1,1370.5
4,8,7,6,-1,4,4,342,547,0,1,1175.5
4,8,7,6,-1,5,3,342,547,0,1,1538.5
4,8,7,6,-1,6,2,342,547,0,1,1295.09999999404
4,9,7,10,3,1,1,300,488,0,1,1289.5
4,9,7,10,3,2,6,300,488,0,1,1257
4,9,7,10,3,3,5,300,488,0,1,2757.5
4,9,7,10,3,4,4,300,488,0,1,2279.69999998808
4,9,7,10,3,5,3,300,488,0,1,1160.89999997616
4,9,7,10,3,6,2,300,488,0,1,1534.5
4,9,7,10,3,7,1,300,488,0,1,1689.59999999404
4,9,7,10,3,8,0,300,488,0,1,1609.90000000596
4,9,7,10,3,9,0,300,488,0,1,1914.89999997616
4,9,7,10,3,10,0,300,488,0,1,1712.5
4,10,7,11,4,1,7,64,224,,,
4,10,7,11,4,2,6,64,224,0,1,2117.69999998808
4,10,7,11,4,3,5,64,224,0,1,1229.69999998808
4,10,7,11,4,4,4,64,224,0,1,1593
4,10,7,11,4,5,3,64,224,0,1,1641.59999999404
4,10,7,11,4,6,2,64,224,0,1,1424.80000001192
4,10,7,11,4,7,1,64,224,0,1,2091.90000000596
4,10,7,11,4,8,0,64,224,0,1,1335.09999999404
4,10,7,11,4,9,0,64,224,0,1,1368.20000001788
4,10,7,11,4,10,0,64,224,0,1,1440.69999998808
4,10,7,11,4,11,0,64,224,0,1,1598.40000000596
4,11,5,5,0,1,5,296,527,0,1,1485.70000001788
4,11,5,5,0,2,4,296,527,0,1,1666.80000001192
4,11,5,5,0,3,3,296,527,0,1,1155.69999998808
4,11,5,5,0,4,2,296,527,0,1,1663.19999998808
4,11,5,5,0,5,1,296,527,0,1,1182.59999999404
4,12,6,3,-3,1,0,171,393,0,1,1392.5
4,12,6,3,-3,2,5,171,393,0,1,1171
4,12,6,3,-3,3,4,171,393,0,1,1496.40000000596
4,13,6,6,0,1,3,110,342,0,1,2134.5
4,13,6,6,0,2,5,110,342,0,1,1552
4,13,6,6,0,3,4,110,342,0,1,1488.90000000596
4,13,6,6,0,4,3,110,342,0,1,2071
4,13,6,6,0,5,2,110,342,0,1,1591.59999999404
4,13,6,6,0,6,1,110,342,0,1,1219.90000000596
4,14,5,5,0,1,0,199,355,0,1,1480.89999997616
4,14,5,5,0,2,4,199,355,0,1,1437.80000001192
4,14,5,5,0,3,3,199,355,0,1,1480.70000001788
4,14,5,5,0,4,2,199,355,0,1,1211.69999998808
4,14,5,5,0,5,1,199,355,0,1,2030.19999998808
4,15,7,11,4,1,0,17,218,0,1,1753.10000002384
4,15,7,11,4,2,6,17,218,0,1,1133.59999999404
4,15,7,11,4,3,5,17,218,0,1,1277.59999999404
4,15,7,11,4,4,4,17,218,0,1,1247.40000000596
4,15,7,11,4,5,3,17,218,0,1,1413
4,15,7,11,4,6,2,17,218,0,1,1271.40000000596
4,15,7,11,4,7,1,17,218,0,1,2235.5
4,15,7,11,4,8,0,17,218,0,1,1109.20000001788
4,15,7,11,4,9,0,17,218,0,1,1075.5
4,15,7,11,4,10,0,17,218,0,1,1261
4,15,7,11,4,11,0,17,218,0,1,1843.39999997616
4,16,5,4,-1,1,5,32,188,0,1,1983.5
4,16,5,4,-1,2,4,32,188,0,1,1293.5
4,16,5,4,-1,3,3,32,188,0,1,1599.80000001192
4,16,5,4,-1,4,2,32,188,0,1,1530.10000002384
4,17,6,3,-3,1,1,77,243,0,1,1686.5
4,17,6,3,-3,2,5,77,243,0,1,1433.10000002384
4,17,6,3,-3,3,4,77,243,0,1,1508.09999999404
4,18,6,6,0,1,3,13,225,0,1,1578.79999998212
4,18,6,6,0,2,5,13,225,0,1,1232.59999999404
4,18,6,6,0,3,4,13,225,0,1,1641.80000001192
4,18,6,6,0,4,3,13,225,0,1,1297.89999997616
4,18,6,6,0,5,2,13,225,0,1,1287.59999999404
4,18,6,6,0,6,1,13,225,0,1,2628
4,19,5,5,0,1,0,194,378,0,1,2093.59999999404
4,19,5,5,0,2,4,194,378,0,1,1461.59999999404
4,19,5,5,0,3,3,194,378,0,1,1175.40000000596
4,19,5,5,0,4,2,194,378,0,1,1212.09999999404
4,19,5,5,0,5,1,194,378,0,1,1273
4,20,5,4,-1,1,0,7,190,0,1,1558
4,20,5,4,-1,2,4,7,190,0,1,1497
4,20,5,4,-1,3,3,7,190,0,1,1277.79999998212
4,20,5,4,-1,4,2,7,190,0,1,1352.89999997616
4,21,6,2,-4,1,1,159,361,0,1,3293.69999998808
4,21,6,2,-4,2,5,159,361,0,1,2767
4,22,5,5,0,1,4,352,507,0,1,1930.5
4,22,5,5,0,2,4,352,507,0,1,1480.90000000596
4,22,5,5,0,3,3,352,507,0,1,2344.40000000596
4,22,5,5,0,4,2,352,507,0,1,1285.30000001192
4,22,5,5,0,5,1,352,507,0,1,1636.10000002384
4,23,7,8,1,1,0,167,395,0,1,1586.59999999404
4,23,7,8,1,2,6,167,395,0,1,2039.09999999404
4,23,7,8,1,3,5,167,395,0,1,1499.09999999404
4,23,7,8,1,4,4,167,395,0,1,1255.09999999404
4,23,7,8,1,5,3,167,395,0,1,1228.20000001788
4,23,7,8,1,6,2,167,395,0,1,1947.79999998212
4,23,7,8,1,7,1,167,395,0,1,1466.5
4,23,7,8,1,8,0,167,395,0,1,2416.60000002384
4,24,7,8,1,1,7,126,320,0,1,2498.40000000596
4,24,7,8,1,2,6,126,320,0,1,1462.90000000596
4,24,7,8,1,3,5,126,320,0,1,1585.09999999404
4,24,7,8,1,4,4,126,320,0,1,1239.09999999404
4,24,7,8,1,5,3,126,320,0,1,1848.40000000596
4,24,7,8,1,6,2,126,320,0,1,3434.30000001192
4,24,7,8,1,7,1,126,320,0,1,1329.79999998212
4,24,7,8,1,8,0,126,320,0,1,1445.90000000596
4,25,6,6,0,1,6,91,295,0,1,2438.20000001788
4,25,6,6,0,2,5,91,295,0,1,1497.90000000596
4,25,6,6,0,3,4,91,295,0,1,1437.89999997616
4,25,6,6,0,4,3,91,295,0,1,1209
4,25,6,6,0,5,2,91,295,0,1,2142.19999998808
4,25,6,6,0,6,1,91,295,0,1,1221.5
4,26,6,6,0,1,0,211,377,0,1,1660.5
4,26,6,6,0,2,5,211,377,0,1,1506
4,26,6,6,0,3,4,211,377,0,1,1258.29999998212
4,26,6,6,0,4,3,211,377,0,1,1481.59999999404
4,26,6,6,0,5,2,211,377,0,1,1304.69999998808
4,26,6,6,0,6,1,211,377,0,1,1577.30000001192
4,27,7,7,0,1,0,189,398,0,1,1185.10000002384
4,27,7,7,0,2,6,189,398,0,1,1432.29999998212
4,27,7,7,0,3,5,189,398,0,1,1210.80000001192
4,27,7,7,0,4,4,189,398,0,1,1505.09999999404
4,27,7,7,0,5,3,189,398,0,1,1229.30000001192
4,27,7,7,0,6,2,189,398,0,1,1238.20000001788
4,27,7,7,0,7,1,189,398,0,1,1654.40000000596
4,28,7,9,2,1,0,7,190,0,1,1560.90000000596
4,28,7,9,2,2,6,7,190,0,1,2000.90000000596
4,28,7,9,2,3,5,7,190,0,1,1302.10000002384
4,28,7,9,2,4,4,7,190,0,1,1229.69999998808
4,28,7,9,2,5,3,7,190,0,1,1229.80000001192
4,28,7,9,2,6,2,7,190,0,1,1284.40000000596
4,28,7,9,2,7,1,7,190,0,1,1300.90000000596
4,28,7,9,2,8,0,7,190,0,1,1197.90000000596
4,28,7,9,2,9,0,7,190,0,1,1168.60000002384
4,29,6,2,-4,1,6,216,447,0,1,1425.40000000596
4,29,6,2,-4,2,5,216,447,0,1,1344
4,30,5,5,0,1,4,25,172,0,1,1325.20000001788
4,30,5,5,0,2,4,25,172,0,1,1745.59999999404
4,30,5,5,0,3,3,25,172,0,1,1200.09999999404
4,30,5,5,0,4,2,25,172,0,1,1264
4,30,5,5,0,5,1,25,172,0,1,1578.29999998212
4,31,6,4,-2,1,0,264,445,0,1,2017.90000000596
4,31,6,4,-2,2,5,264,445,0,1,1865.5
4,31,6,4,-2,3,4,264,445,0,1,2287.90000000596
4,31,6,4,-2,4,3,264,445,0,1,1310.09999999404
4,32,7,7,0,1,2,132,279,0,1,1433.10000002384
4,32,7,7,0,2,6,132,279,0,1,1503.79999998212
4,32,7,7,0,3,5,132,279,0,1,1593.69999998808
4,32,7,7,0,4,4,132,279,0,1,2969.90000000596
4,32,7,7,0,5,3,132,279,0,1,1205.59999999404
4,32,7,7,0,6,2,132,279,0,1,1322.5
4,32,7,7,0,7,1,132,279,0,1,1574.19999998808
4,33,6,6,0,1,0,63,223,0,1,1346.10000002384
4,33,6,6,0,2,5,63,223,0,1,2464.60000002384
4,33,6,6,0,3,4,63,223,0,1,1453.09999999404
4,33,6,6,0,4,3,63,223,0,1,1238.09999999404
4,33,6,6,0,5,2,63,223,0,1,1144
4,33,6,6,0,6,1,63,223,0,1,1504.79999998212
4,34,5,5,0,1,0,303,535,0,1,2524.60000002384
4,34,5,5,0,2,4,303,535,0,1,1923.19999998808
4,34,5,5,0,3,3,303,535,0,1,1631.79999998212
4,34,5,5,0,4,2,303,535,0,1,1219.09999999404
4,34,5,5,0,5,1,303,535,0,1,1465.19999998808
4,35,6,5,-1,1,0,185,335,0,1,2229.59999999404
4,35,6,5,-1,2,5,185,335,0,1,1360.19999998808
4,35,6,5,-1,3,4,185,335,0,1,1416.60000002384
4,35,6,5,-1,4,3,185,335,0,1,1351
4,35,6,5,-1,5,2,185,335,0,1,2019.80000001192
4,36,5,5,0,1,1,270,428,0,1,1598.19999998808
4,36,5,5,0,2,4,270,428,0,1,1234.40000000596
4,36,5,5,0,3,3,270,428,0,1,1309.09999999404
4,36,5,5,0,4,2,270,428,0,1,1219.5
4,36,5,5,0,5,1,270,428,0,1,1400.79999998212
4,37,7,4,-3,1,0,204,392,0,1,1794.20000001788
4,37,7,4,-3,2,6,204,392,0,1,1198.69999998808
4,37,7,4,-3,3,5,204,392,0,1,1988.09999999404
4,37,7,4,-3,4,4,204,392,0,1,1214.80000001192
4,38,5,1,-4,1,3,151,353,0,1,1518.5
4,39,7,4,-3,1,2,264,477,0,1,1399.90000000596
4,39,7,4,-3,2,6,264,477,0,1,1274.90000000596
4,39,7,4,-3,3,5,264,477,0,1,1499.90000000596
4,39,7,4,-3,4,4,264,477,0,1,1409.80000001192
4,40,6,6,0,1,3,208,435,0,1,2724
4,40,6,6,0,2,5,208,435,0,1,1433.19999998808
4,40,6,6,0,3,4,208,435,0,1,1378.79999998212
4,40,6,6,0,4,3,208,435,0,1,1523.59999999404
4,40,6,6,0,5,2,208,435,0,1,1248.89999997616
4,40,6,6,0,6,1,208,435,0,1,1401.39999997616
4,41,6,4,-2,1,0,64,217,0,1,1513.40000000596
4,41,6,4,-2,2,5,64,217,0,1,1302.20000001788
4,41,6,4,-2,3,4,64,217,0,1,1222
4,41,6,4,-2,4,3,64,217,0,1,1643.09999999404
4,42,6,8,2,1,2,81,284,0,1,1259.40000000596
4,42,6,8,2,2,5,81,284,0,1,1629
4,42,6,8,2,3,4,81,284,0,1,1453.20000001788
4,42,6,8,2,4,3,81,284,0,1,1485.80000001192
4,42,6,8,2,5,2,81,284,0,1,1267.79999998212
4,42,6,8,2,6,1,81,284,0,1,2590.30000001192
4,42,6,8,2,7,0,81,284,0,1,1211.09999999404
4,42,6,8,2,8,0,81,284,0,1,1374.40000000596
4,43,5,6,1,1,5,263,472,0,1,1310
4,43,5,6,1,2,4,263,472,0,1,1397.69999998808
4,43,5,6,1,3,3,263,472,0,1,1326.20000001788
4,43,5,6,1,4,2,263,472,0,1,2714.59999999404
4,43,5,6,1,5,1,263,472,0,1,1720
4,43,5,6,1,6,0,263,472,0,1,1285.30000001192
4,44,7,6,-1,1,7,153,379,0,1,1245.29999998212
4,44,7,6,-1,2,6,153,379,0,1,1203.19999998808
4,44,7,6,-1,3,5,153,379,0,1,1587
4,44,7,6,-1,4,4,153,379,0,1,1149.59999999404
4,44,7,6,-1,5,3,153,379,0,1,1245.90000000596
4,44,7,6,-1,6,2,153,379,0,1,1259.70000001788
4,45,5,6,1,1,1,196,393,0,1,1533.69999998808
4,45,5,6,1,2,4,196,393,0,1,1228.30000001192
4,45,5,6,1,3,3,196,393,0,1,2331
4,45,5,6,1,4,2,196,393,0,1,2076.20000001788
4,45,5,6,1,5,1,196,393,0,1,1216.5
4,45,5,6,1,6,0,196,393,0,1,2588.5
4,46,5,5,0,1,5,325,514,0,1,1711
4,46,5,5,0,2,4,325,514,0,1,1504.69999998808
4,46,5,5,0,3,3,325,514,0,1,1333.29999998212
4,46,5,5,0,4,2,325,514,0,1,1306.19999998808
4,46,5,5,0,5,1,325,514,0,1,1201
4,47,6,6,0,1,0,186,402,0,1,1556.5
4,47,6,6,0,2,5,186,402,0,1,2177.5
4,47,6,6,0,3,4,186,402,0,1,1223
4,47,6,6,0,4,3,186,402,0,1,1872.30000001192
4,47,6,6,0,5,2,186,402,0,1,1242.5
4,47,6,6,0,6,1,186,402,0,1,1899.79999998212
4,48,6,10,4,1,0,331,500,0,1,1533.70000001788
4,48,6,10,4,2,5,331,500,0,1,1418.59999999404
4,48,6,10,4,3,4,331,500,0,1,2352.5
4,48,6,10,4,4,3,331,500,0,1,1859.40000000596
4,48,6,10,4,5,2,331,500,0,1,2029.59999999404
4,48,6,10,4,6,1,331,500,0,1,1298.09999999404
4,48,6,10,4,7,0,331,500,0,1,1236.59999999404
4,48,6,10,4,8,0,331,500,0,1,1623.5
4,48,6,10,4,9,0,331,500,0,1,1493.79999998212
4,48,6,10,4,10,0,331,500,0,1,1472.59999999404
4,49,6,9,3,1,6,151,359,0,1,1748
4,49,6,9,3,2,5,151,359,0,1,1169.79999998212
4,49,6,9,3,3,4,151,359,0,1,2057.5
4,49,6,9,3,4,3,151,359,0,1,1918
4,49,6,9,3,5,2,151,359,0,1,1197.80000001192
4,49,6,9,3,6,1,151,359,0,1,1194.5
4,49,6,9,3,7,0,151,359,0,1,1851.29999998212
4,49,6,9,3,8,0,151,359,0,1,2191.90000000596
4,49,6,9,3,9,0,151,359,0,1,1465.5
4,50,5,3,-2,1,5,295,451,0,1,1460.60000002384
4,50,5,3,-2,2,4,295,451,0,1,1295.5
4,50,5,3,-2,3,3,295,451,0,1,2522.70000001788
4,51,7,7,0,1,2,122,308,0,1,1339.89999997616
4,51,7,7,0,2,6,122,308,0,1,1235.10000002384
4,51,7,7,0,3,5,122,308,0,1,1287.59999999404
4,51,7,7,0,4,4,122,308,0,1,2224.19999998808
4,51,7,7,0,5,3,122,308,0,1,2229.59999999404
4,51,7,7,0,6,2,122,308,0,1,1291.59999999404
4,51,7,7,0,7,1,122,308,0,1,1875.80000001192
4,52,6,8,2,1,0,281,495,0,1,1324.69999998808
4,52,6,8,2,2,5,281,495,0,1,1267
4,52,6,8,2,3,4,281,495,0,1,1496.69999998808
4,52,6,8,2,4,3,281,495,0,1,1419
4,52,6,8,2,5,2,281,495,0,1,1189.59999999404
4,52,6,8,2,6,1,281,495,0,1,1279.59999999404
4,52,6,8,2,7,0,281,495,0,1,1233.80000001192
4,52,6,8,2,8,0,281,495,0,1,2304.30000001192
4,53,5,5,0,1,5,124,290,0,1,1786.40000000596
4,53,5,5,0,2,4,124,290,0,1,1578.09999999404
4,53,5,5,0,3,3,124,290,0,1,1317.59999999404
4,53,5,5,0,4,2,124,290,0,1,1287.09999999404
4,53,5,5,0,5,1,124,290,0,1,1473.90000000596
4,54,7,7,0,1,0,281,465,0,1,1698.10000002384
4,54,7,7,0,2,6,281,465,0,1,1691.09999999404
4,54,7,7,0,3,5,281,465,0,1,1697.79999998212
4,54,7,7,0,4,4,281,465,0,1,1294.5
4,54,7,7,0,5,3,281,465,0,1,1265.90000000596
4,54,7,7,0,6,2,281,465,0,1,2153.10000002384
4,54,7,7,0,7,1,281,465,0,1,1416.5
4,55,7,9,2,1,0,321,520,0,1,2408
4,55,7,9,2,2,6,321,520,0,1,1460.90000000596
4,55,7,9,2,3,5,321,520,0,1,1328.40000000596
4,55,7,9,2,4,4,321,520,0,1,1576.80000001192
4,55,7,9,2,5,3,321,520,0,1,3876.30000001192
4,55,7,9,2,6,2,321,520,0,1,1182.90000000596
4,55,7,9,2,7,1,321,520,0,1,1822.19999998808
4,55,7,9,2,8,0,321,520,0,1,1588.69999998808
4,55,7,9,2,9,0,321,520,0,1,1205.09999999404
4,56,6,5,-1,1,6,278,488,0,1,1523.90000000596
4,56,6,5,-1,2,5,278,488,0,1,1576.69999998808
4,56,6,5,-1,3,4,278,488,0,1,1591.60000002384
4,56,6,5,-1,4,3,278,488,0,1,1172.19999998808
4,56,6,5,-1,5,2,278,488,0,1,1187.30000001192
4,57,7,5,-2,1,1,37,209,0,1,1665.80000001192
4,57,7,5,-2,2,6,37,209,0,1,2188.69999998808
4,57,7,5,-2,3,5,37,209,0,1,1438.09999999404
4,57,7,5,-2,4,4,37,209,0,1,1499.19999998808
4,57,7,5,-2,5,3,37,209,0,1,2075.19999998808
4,58,6,6,0,1,2,75,235,0,1,1555.40000000596
4,58,6,6,0,2,5,75,235,0,1,1278.59999999404
4,58,6,6,0,3,4,75,235,0,1,1446.09999999404
4,58,6,6,0,4,3,75,235,0,1,1828.09999999404
4,58,6,6,0,5,2,75,235,0,1,1271.5
4,58,6,6,0,6,1,75,235,0,1,1344.59999999404
4,59,5,8,3,1,0,36,238,0,1,1772.60000002384
4,59,5,8,3,2,4,36,238,0,1,1536.80000001192
4,59,5,8,3,3,3,36,238,0,1,1281.29999998212
4,59,5,8,3,4,2,36,238,0,1,1230.70000001788
4,59,5,8,3,5,1,36,238,0,1,1576.59999999404
4,59,5,8,3,6,0,36,238,0,1,1211.79999998212
4,59,5,8,3,7,0,36,238,0,1,2007.40000000596
4,59,5,8,3,8,0,36,238,0,1,1440.5
4,60,5,5,0,1,5,157,307,0,1,1620
4,60,5,5,0,2,4,157,307,0,1,2847.80000001192
4,60,5,5,0,3,3,157,307,0,1,1607.5
4,60,5,5,0,4,2,157,307,0,1,2205.79999998212
4,60,5,5,0,5,1,157,307,0,1,2534.59999999404
4,61,5,2,-3,1,0,10,175,0,1,1402.30000001192
4,61,5,2,-3,2,4,10,175,0,1,1162.79999998212
4,62,5,7,2,1,3,163,365,0,1,1430.5
4,62,5,7,2,2,4,163,365,0,1,1351.90000000596
4,62,5,7,2,3,3,163,365,0,1,1272.40000000596
4,62,5,7,2,4,2,163,365,0,1,1512
4,62,5,7,2,5,1,163,365,0,1,1948
4,62,5,7,2,6,0,163,365,0,1,1224.29999998212
4,62,5,7,2,7,0,163,365,0,1,1502.60000002384
4,63,6,7,1,1,6,143,292,0,1,1541.09999999404
4,63,6,7,1,2,5,143,292,0,1,2202
4,63,6,7,1,3,4,143,292,0,1,1255
4,63,6,7,1,4,3,143,292,0,1,1903.19999998808
4,63,6,7,1,5,2,143,292,0,1,1256.80000001192
4,63,6,7,1,6,1,143,292,0,1,1602.20000001788
4,63,6,7,1,7,0,143,292,0,1,1896.20000001788
4,64,6,6,0,1,6,218,402,0,1,1893.5
4,64,6,6,0,2,5,218,402,0,1,2751.20000001788
4,64,6,6,0,3,4,218,402,0,1,1256.30000001192
4,64,6,6,0,4,3,218,402,0,1,1294.89999997616
4,64,6,6,0,5,2,218,402,0,1,1256.89999997616
4,64,6,6,0,6,1,218,402,0,1,1259.79999998212
4,65,6,6,0,1,0,171,376,0,1,1672
4,65,6,6,0,2,5,171,376,0,1,1602.5
4,65,6,6,0,3,4,171,376,0,1,1189.90000000596
4,65,6,6,0,4,3,171,376,0,1,1460.59999999404
4,65,6,6,0,5,2,171,376,0,1,1463.59999999404
4,65,6,6,0,6,1,171,376,0,1,1436
4,66,5,5,0,1,0,32,234,0,1,1741.59999999404
4,66,5,5,0,2,4,32,234,0,1,1459.5
4,66,5,5,0,3,3,32,234,0,1,1536.10000002384
4,66,5,5,0,4,2,32,234,0,1,1273.90000000596
4,66,5,5,0,5,1,32,234,0,1,1536.90000000596
4,67,7,7,0,1,0,226,457,0,1,1635
4,67,7,7,0,2,6,226,457,0,1,1603
4,67,7,7,0,3,5,226,457,0,1,1648.80000001192
4,67,7,7,0,4,4,226,457,0,1,1639.79999998212
4,67,7,7,0,5,3,226,457,0,1,1252.39999997616
4,67,7,7,0,6,2,226,457,0,1,1527.80000001192
4,67,7,7,0,7,1,226,457,0,1,2483.60000002384
4,68,7,7,0,1,0,253,445,0,1,1454.40000000596
4,68,7,7,0,2,6,253,445,0,1,1313.09999999404
4,68,7,7,0,3,5,253,445,0,1,1444.90000000596
4,68,7,7,0,4,4,253,445,0,1,1730.69999998808
4,68,7,7,0,5,3,253,445,0,1,1486.19999998808
4,68,7,7,0,6,2,253,445,0,1,1852.09999999404
4,68,7,7,0,7,1,253,445,0,1,1513.30000001192
4,69,6,6,0,1,0,288,466,0,1,1535.19999998808
4,69,6,6,0,2,5,288,466,0,1,2131.29999998212
4,69,6,6,0,3,4,288,466,0,1,2108.90000000596
4,69,6,6,0,4,3,288,466,0,1,1255.29999998212
4,69,6,6,0,5,2,288,466,0,1,1234.69999998808
4,69,6,6,0,6,1,288,466,0,1,2018.59999999404
4,70,7,7,0,1,0,90,245,0,1,1513.40000000596
4,70,7,7,0,2,6,90,245,0,1,1322.09999999404
4,70,7,7,0,3,5,90,245,0,1,1289.20000001788
4,70,7,7,0,4,4,90,245,0,1,1549.5
4,70,7,7,0,5,3,90,245,0,1,1720.60000002384
4,70,7,7,0,6,2,90,245,0,1,1795.59999999404
4,70,7,7,0,7,1,90,245,0,1,1261
4,71,6,6,0,1,0,344,522,0,1,1517.80000001192
4,71,6,6,0,2,5,344,522,0,1,1962.09999999404
4,71,6,6,0,3,4,344,522,0,1,1446
4,71,6,6,0,4,3,344,522,0,1,1614.59999999404
4,71,6,6,0,5,2,344,522,0,1,1500.30000001192
4,71,6,6,0,6,1,344,522,0,1,1269.79999998212
4,72,5,7,2,1,0,176,334,0,1,1326.09999999404
4,72,5,7,2,2,4,176,334,0,1,1311.5
4,72,5,7,2,3,3,176,334,0,1,1476.90000000596
4,72,5,7,2,4,2,176,334,0,1,1348.80000001192
4,72,5,7,2,5,1,176,334,0,1,1535
4,72,5,7,2,6,0,176,334,0,1,1854.5
4,72,5,7,2,7,0,176,334,0,1,2259.5
4,73,7,7,0,1,7,177,380,0,1,1727.09999999404
4,73,7,7,0,2,6,177,380,0,1,1392.80000001192
4,73,7,7,0,3,5,177,380,0,1,1778.90000000596
4,73,7,7,0,4,4,177,380,0,1,1577.80000001192
4,73,7,7,0,5,3,177,380,0,1,1582
4,73,7,7,0,6,2,177,380,0,1,1341.19999998808
4,73,7,7,0,7,1,177,380,0,1,1312.5
4,74,7,7,0,1,0,210,393,0,1,1589.90000000596
4,74,7,7,0,2,6,210,393,0,1,1260.69999998808
4,74,7,7,0,3,5,210,393,0,1,1497.90000000596
4,74,7,7,0,4,4,210,393,0,1,1271.40000000596
4,74,7,7,0,5,3,210,393,0,1,1241.09999999404
4,74,7,7,0,6,2,210,393,0,1,2983.29999998212
4,74,7,7,0,7,1,210,393,0,1,1276.20000001788
4,75,5,3,-2,1,0,75,226,0,1,1455
4,75,5,3,-2,2,4,75,226,0,1,1592.29999998212
4,75,5,3,-2,3,3,75,226,0,1,1554.59999999404
4,76,7,7,0,1,2,358,559,0,1,2277.30000001192
4,76,7,7,0,2,6,358,559,0,1,3298.69999998808
4,76,7,7,0,3,5,358,559,0,1,1503.30000001192
4,76,7,7,0,4,4,358,559,0,1,1536.79999998212
4,76,7,7,0,5,3,358,559,0,1,1719
4,76,7,7,0,6,2,358,559,0,1,1799.30000001192
4,76,7,7,0,7,1,358,559,0,1,1255.30000001192
4,77,6,7,1,1,0,290,465,0,1,2576
4,77,6,7,1,2,5,290,465,0,1,1195.39999997616
4,77,6,7,1,3,4,290,465,0,1,1354.69999998808
4,77,6,7,1,4,3,290,465,0,1,2599.29999998212
4,77,6,7,1,5,2,290,465,0,1,1915.30000001192
4,77,6,7,1,6,1,290,465,0,1,1169.40000000596
4,77,6,7,1,7,0,290,465,0,1,1827.20000001788
4,78,5,5,0,1,5,187,420,0,1,1921
4,78,5,5,0,2,4,187,420,0,1,1319.80000001192
4,78,5,5,0,3,3,187,420,0,1,1515.5
4,78,5,5,0,4,2,187,420,0,1,1229
4,78,5,5,0,5,1,187,420,0,1,1230.29999998212
4,79,7,10,3,1,0,65,221,0,1,1581.69999998808
4,79,7,10,3,2,6,65,221,0,1,1257.09999999404
4,79,7,10,3,3,5,65,221,0,1,1623.09999999404
4,79,7,10,3,4,4,65,221,0,1,1261.70000001788
4,79,7,10,3,5,3,65,221,0,1,1287.90000000596
4,79,7,10,3,6,2,65,221,0,1,1336.19999998808
4,79,7,10,3,7,1,65,221,0,1,1319.90000000596
4,79,7,10,3,8,0,65,221,0,1,1359.5
4,79,7,10,3,9,0,65,221,0,1,1757.30000001192
4,79,7,10,3,10,0,65,221,0,1,1203.80000001192
4,80,5,5,0,1,5,194,416,0,1,1652.20000001788
4,80,5,5,0,2,4,194,416,0,1,1520.59999999404
4,80,5,5,0,3,3,194,416,0,1,1988.80000001192
4,80,5,5,0,4,2,194,416,0,1,2468.30000001192
4,80,5,5,0,5,1,194,416,0,1,1471
4,81,7,7,0,1,0,32,181,0,1,1381.20000001788
4,81,7,7,0,2,6,32,181,0,1,1201.59999999404
4,81,7,7,0,3,5,32,181,0,1,1101.09999999404
4,81,7,7,0,4,4,32,181,0,1,1187.69999998808
4,81,7,7,0,5,3,32,181,0,1,1644.80000001192
4,81,7,7,0,6,2,32,181,0,1,1207.29999998212
4,81,7,7,0,7,1,32,181,0,1,1841.70000001788
4,82,6,6,0,1,0,210,401,0,1,1695.79999998212
4,82,6,6,0,2,5,210,401,0,1,1505.10000002384
4,82,6,6,0,3,4,210,401,0,1,1219.60000002384
4,82,6,6,0,4,3,210,401,0,1,2012.59999999404
4,82,6,6,0,5,2,210,401,0,1,1195.10000002384
4,82,6,6,0,6,1,210,401,0,1,1295.09999999404
4,83,6,10,4,1,0,292,481,0,1,1494.40000000596
4,83,6,10,4,2,5,292,481,0,1,1268.69999998808
4,83,6,10,4,3,4,292,481,0,1,1766.5
4,83,6,10,4,4,3,292,481,0,1,2841.09999999404
4,83,6,10,4,5,2,292,481,0,1,1407.20000001788
4,83,6,10,4,6,1,292,481,0,1,1250.5
4,83,6,10,4,7,0,292,481,0,1,1284.59999999404
4,83,6,10,4,8,0,292,481,0,1,1652
4,83,6,10,4,9,0,292,481,0,1,1211.29999998212
4,83,6,10,4,10,0,292,481,0,1,1269
4,84,5,5,0,1,5,12,183,0,1,1171.90000000596
4,84,5,5,0,2,4,12,183,0,1,1287.29999998212
4,84,5,5,0,3,3,12,183,0,1,1757.09999999404
4,84,5,5,0,4,2,12,183,0,1,1516.80000001192
4,84,5,5,0,5,1,12,183,0,1,1465.59999999404
4,85,7,7,0,1,0,327,512,0,1,1268
4,85,7,7,0,2,6,327,512,0,1,1537.69999998808
4,85,7,7,0,3,5,327,512,0,1,1329.09999999404
4,85,7,7,0,4,4,327,512,0,1,2124.90000000596
4,85,7,7,0,5,3,327,512,0,1,1219.09999999404
4,85,7,7,0,6,2,327,512,0,1,1204.30000001192
4,85,7,7,0,7,1,327,512,0,1,1295.20000001788
4,86,7,7,0,1,0,129,361,0,1,1744.19999998808
4,86,7,7,0,2,6,129,361,0,1,1221.79999998212
4,86,7,7,0,3,5,129,361,0,1,1252.5
4,86,7,7,0,4,4,129,361,0,1,1550.69999998808
4,86,7,7,0,5,3,129,361,0,1,1247.09999999404
4,86,7,7,0,6,2,129,361,0,1,1417.5
4,86,7,7,0,7,1,129,361,0,1,1584.79999998212
4,87,6,6,0,1,0,121,304,0,1,1448.59999999404
4,87,6,6,0,2,5,121,304,0,1,1940.40000000596
4,87,6,6,0,3,4,121,304,0,1,1550.60000002384
4,87,6,6,0,4,3,121,304,0,1,1309.39999997616
4,87,6,6,0,5,2,121,304,0,1,1179.69999998808
4,87,6,6,0,6,1,121,304,0,1,1507.69999998808
4,88,6,9,3,1,0,71,296,0,1,1219.5
4,88,6,9,3,2,5,71,296,0,1,1241.40000000596
4,88,6,9,3,3,4,71,296,0,1,1544.5
4,88,6,9,3,4,3,71,296,0,1,1211.69999998808
4,88,6,9,3,5,2,71,296,0,1,1249.09999999404
4,88,6,9,3,6,1,71,296,0,1,1283.40000000596
4,88,6,9,3,7,0,71,296,0,1,1204.40000000596
4,88,6,9,3,8,0,71,296,0,1,1214.30000001192
4,88,6,9,3,9,0,71,296,0,1,1177.39999997616
4,89,5,5,0,1,5,151,325,0,1,1897.19999998808
4,89,5,5,0,2,4,151,325,0,1,1485.69999998808
4,89,5,5,0,3,3,151,325,0,1,1206.5
4,89,5,5,0,4,2,151,325,0,1,2906.5
4,89,5,5,0,5,1,151,325,0,1,1551.40000000596
4,90,7,3,-4,1,0,249,460,0,1,2767.10000002384
4,90,7,3,-4,2,6,249,460,0,1,1635.70000001788
4,90,7,3,-4,3,5,249,460,0,1,1384.40000000596
4,91,7,5,-2,1,4,178,409,0,1,1265.59999999404
4,91,7,5,-2,2,6,178,409,0,1,2008.19999998808
4,91,7,5,-2,3,5,178,409,0,1,1238.69999998808
4,91,7,5,-2,4,4,178,409,0,1,1975.89999997616
4,91,7,5,-2,5,3,178,409,0,1,1514.69999998808
4,92,5,9,4,1,2,121,304,0,1,1770.59999999404
4,92,5,9,4,2,4,121,304,0,1,1288.5
4,92,5,9,4,3,3,121,304,0,1,1212.30000001192
4,92,5,9,4,4,2,121,304,0,1,1533.69999998808
4,92,5,9,4,5,1,121,304,0,1,2545
4,92,5,9,4,6,0,121,304,0,1,1544.70000001788
4,92,5,9,4,7,0,121,304,0,1,1245
4,92,5,9,4,8,0,121,304,0,1,1911.69999998808
4,92,5,9,4,9,0,121,304,0,1,1495
4,93,6,6,0,1,6,272,437,0,1,1515.39999997616
4,93,6,6,0,2,5,272,437,0,1,1503.19999998808
4,93,6,6,0,3,4,272,437,0,1,1231.59999999404
4,93,6,6,0,4,3,272,437,0,1,2526
4,93,6,6,0,5,2,272,437,0,1,1644.29999998212
4,93,6,6,0,6,1,272,437,0,1,1252.19999998808
4,94,7,7,0,1,0,71,271,0,1,1618.20000001788
4,94,7,7,0,2,6,71,271,0,1,1577.5
4,94,7,7,0,3,5,71,271,0,1,1254.20000001788
4,94,7,7,0,4,4,71,271,0,1,1289.70000001788
4,94,7,7,0,5,3,71,271,0,1,1411.70000001788
4,94,7,7,0,6,2,71,271,0,1,1239.80000001192
4,94,7,7,0,7,1,71,271,0,1,1145.40000000596
4,95,6,6,0,1,0,174,329,0,1,1935.59999999404
4,95,6,6,0,2,5,174,329,0,1,1176
4,95,6,6,0,3,4,174,329,0,1,1292.39999997616
4,95,6,6,0,4,3,174,329,0,1,1246.40000000596
4,95,6,6,0,5,2,174,329,0,1,1496.90000000596
4,95,6,6,0,6,1,174,329,0,1,2341.90000000596
4,96,5,1,-4,1,0,344,521,0,1,2190.30000001192
32,1,7,7,0,1,7,331,534,0,1,2457.80000001192
32,1,7,7,0,2,6,331,534,0,1,1699.39999997616
32,1,7,7,0,3,5,331,534,0,1,1577.80000001192
32,1,7,7,0,4,4,331,534,0,1,1491.70000001788
32,1,7,7,0,5,3,331,534,0,1,1421.60000002384
32,1,7,7,0,6,2,331,534,0,1,1622.09999999404
32,1,7,7,0,7,1,331,534,0,1,2387
32,2,5,6,1,1,0,177,368,0,1,1289
32,2,5,6,1,2,4,177,368,0,1,1280.30000001192
32,2,5,6,1,3,3,177,368,0,1,1179.69999998808
32,2,5,6,1,4,2,177,368,0,1,1275.10000002384
32,2,5,6,1,5,1,177,368,0,1,1358.30000001192
32,2,5,6,1,6,0,177,368,0,1,1530.69999998808
32,3,6,3,-3,1,6,112,303,0,1,2519.69999998808
32,3,6,3,-3,2,5,112,303,0,1,1390.29999998212
32,3,6,3,-3,3,4,112,303,0,1,1379.20000001788
32,4,5,5,0,1,3,282,483,0,1,1629.69999998808
32,4,5,5,0,2,4,282,483,0,1,1796.59999999404
32,4,5,5,0,3,3,282,483,0,1,1216.5
32,4,5,5,0,4,2,282,483,0,1,1153
32,4,5,5,0,5,1,282,483,0,1,1215.5
32,5,7,7,0,1,0,116,350,0,1,1821.10000002384
32,5,7,7,0,2,6,116,350,0,1,1257.40000000596
32,5,7,7,0,3,5,116,350,0,1,1260.09999999404
32,5,7,7,0,4,4,116,350,0,1,1339.59999999404
32,5,7,7,0,5,3,116,350,0,1,3208.39999997616
32,5,7,7,0,6,2,116,350,0,1,1212
32,5,7,7,0,7,1,116,350,0,1,1231.70000001788
32,6,6,8,2,1,0,343,564,0,1,2146.69999998808
32,6,6,8,2,2,5,343,564,0,1,1189.90000000596
32,6,6,8,2,3,4,343,564,0,1,1210.5
32,6,6,8,2,4,3,343,564,0,1,1294.59999999404
32,6,6,8,2,5,2,343,564,0,1,1520.90000000596
32,6,6,8,2,6,1,343,564,0,1,1452.89999997616
32,6,6,8,2,7,0,343,564,0,1,1251.5
32,6,6,8,2,8,0,343,564,0,1,1777.19999998808
32,7,7,7,0,1,7,195,374,0,1,1037.09999999404
32,7,7,7,0,2,6,195,374,0,1,2261
32,7,7,7,0,3,5,195,374,0,1,2606.5
32,7,7,7,0,4,4,195,374,0,1,1140.70000001788
32,7,7,7,0,5,3,195,374,0,1,3290.30000001192
32,7,7,7,0,6,2,195,374,0,1,1173.59999999404
32,7,7,7,0,7,1,195,374,0,1,1188.19999998808
32,8,7,7,0,1,0,226,429,0,1,1281.09999999404
32,8,7,7,0,2,6,226,429,0,1,1465.09999999404
32,8,7,7,0,3,5,226,429,0,1,1275
32,8,7,7,0,4,4,226,429,0,1,1280.30000001192
32,8,7,7,0,5,3,226,429,0,1,1096.29999998212
32,8,7,7,0,6,2,226,429,0,1,1259.90000000596
32,8,7,7,0,7,1,226,429,0,1,1791.80000001192
32,9,7,3,-4,1,0,132,323,0,1,1467.80000001192
32,9,7,3,-4,2,6,132,323,0,1,1934.59999999404
32,9,7,3,-4,3,5,132,323,0,1,1108.59999999404
32,10,6,6,0,1,4,234,409,0,1,2287.09999999404
32,10,6,6,0,2,5,234,409,0,1,1039.09999999404
32,10,6,6,0,3,4,234,409,0,1,2336.20000001788
32,10,6,6,0,4,3,234,409,0,1,1261
32,10,6,6,0,5,2,234,409,0,1,1140
32,10,6,6,0,6,1,234,409,0,1,1150.59999999404
32,11,5,5,0,1,0,195,392,0,1,1170.19999998808
32,11,5,5,0,2,4,195,392,0,1,2991.10000002384
32,11,5,5,0,3,3,195,392,0,1,1192.80000001192
32,11,5,5,0,4,2,195,392,0,1,1694.90000000596
32,11,5,5,0,5,1,195,392,0,1,1166.59999999404
32,12,5,5,0,1,0,23,169,0,1,1438.19999998808
32,12,5,5,0,2,4,23,169,0,1,1365.30000001192
32,12,5,5,0,3,3,23,169,0,1,1401.09999999404
32,12,5,5,0,4,2,23,169,0,1,1259.89999997616
32,12,5,5,0,5,1,23,169,0,1,1464.90000000596
32,13,7,10,3,1,0,147,319,0,1,1572.5
32,13,7,10,3,2,6,147,319,0,1,1466
32,13,7,10,3,3,5,147,319,0,1,1209.5
32,13,7,10,3,4,4,147,319,0,1,1748.69999998808
32,13,7,10,3,5,3,147,319,0,1,1409.40000000596
32,13,7,10,3,6,2,147,319,0,1,1485.29999998212
32,13,7,10,3,7,1,147,319,0,1,1706.80000001192
32,13,7,10,3,8,0,147,319,0,1,1414.90000000596
32,13,7,10,3,9,0,147,319,0,1,1430.5
32,13,7,10,3,10,0,147,319,0,1,2110.39999997616
32,14,6,10,4,1,6,247,465,0,1,1115.30000001192
32,14,6,10,4,2,5,247,465,0,1,1210
32,14,6,10,4,3,4,247,465,0,1,1437.90000000596
32,14,6,10,4,4,3,247,465,0,1,1286.10000002384
32,14,6,10,4,5,2,247,465,0,1,1494.19999998808
32,14,6,10,4,6,1,247,465,0,1,1260.30000001192
32,14,6,10,4,7,0,247,465,0,1,1266.59999999404
32,14,6,10,4,8,0,247,465,0,1,1287.90000000596
32,14,6,10,4,9,0,247,465,0,1,2258.69999998808
32,14,6,10,4,10,0,247,465,0,1,1085.59999999404
32,15,6,6,0,1,6,56,261,0,1,1324.19999998808
32,15,6,6,0,2,5,56,261,0,1,1167.90000000596
32,15,6,6,0,3,4,56,261,0,1,1170.69999998808
32,15,6,6,0,4,3,56,261,0,1,2200.79999998212
32,15,6,6,0,5,2,56,261,0,1,1138.59999999404
32,15,6,6,0,6,1,56,261,0,1,1111
32,16,7,7,0,1,0,296,469,0,1,1513.59999999404
32,16,7,7,0,2,6,296,469,0,1,1273
32,16,7,7,0,3,5,296,469,0,1,2737.30000001192
32,16,7,7,0,4,4,296,469,0,1,1041.59999999404
32,16,7,7,0,5,3,296,469,0,1,1409.59999999404
32,16,7,7,0,6,2,296,469,0,1,1310.69999998808
32,16,7,7,0,7,1,296,469,0,1,1253.5
32,17,6,6,0,1,0,273,486,0,1,1686.30000001192
32,17,6,6,0,2,5,273,486,0,1,1254.5
32,17,6,6,0,3,4,273,486,0,1,1264.70000001788
32,17,6,6,0,4,3,273,486,0,1,1250.5
32,17,6,6,0,5,2,273,486,0,1,1861.80000001192
32,17,6,6,0,6,1,273,486,0,1,1275.59999999404
32,18,7,6,-1,1,0,51,254,0,1,2792.10000002384
32,18,7,6,-1,2,6,51,254,0,1,1055.69999998808
32,18,7,6,-1,3,5,51,254,0,1,1169.19999998808
32,18,7,6,-1,4,4,51,254,0,1,1349.70000001788
32,18,7,6,-1,5,3,51,254,0,1,1289.60000002384
32,18,7,6,-1,6,2,51,254,0,1,1187.19999998808
32,19,6,6,0,1,1,11,234,0,1,1168.70000001788
32,19,6,6,0,2,5,11,234,0,1,1209.09999999404
32,19,6,6,0,3,4,11,234,0,1,1246.90000000596
32,19,6,6,0,4,3,11,234,0,1,1155.10000002384
32,19,6,6,0,5,2,11,234,0,1,1230
32,19,6,6,0,6,1,11,234,0,1,1195.90000000596
32,20,5,1,-4,1,0,77,290,0,1,3318.40000000596
32,21,5,5,0,1,5,320,484,9,0,177.40000000596
32,21,5,5,0,2,4,320,484,5,0,184.59999999404
32,21,5,5,0,3,3,320,484,,,
32,21,5,5,0,4,2,320,484,0,1,1499.69999998808
32,21,5,5,0,5,1,320,484,0,1,1471.19999998808
32,22,7,7,0,1,0,48,255,0,1,3359.69999998808
32,22,7,7,0,2,6,48,255,0,1,1239.59999999404
32,22,7,7,0,3,5,48,255,0,1,1224.30000001192
32,22,7,7,0,4,4,48,255,0,1,1316
32,22,7,7,0,5,3,48,255,0,1,3552
32,22,7,7,0,6,2,48,255,5,0,155.59999999404
32,22,7,7,0,7,1,48,255,0,1,1310.80000001192
32,23,6,3,-3,1,0,245,406,0,1,1387.79999998212
32,23,6,3,-3,2,5,245,406,,,
32,23,6,3,-3,3,4,245,406,0,1,2044.5
32,24,7,7,0,1,3,235,462,0,1,1147.89999997616
32,24,7,7,0,2,6,235,462,0,1,1274.5
32,24,7,7,0,3,5,235,462,0,1,1977.30000001192
32,24,7,7,0,4,4,235,462,0,1,1124.80000001192
32,24,7,7,0,5,3,235,462,0,1,1428.19999998808
32,24,7,7,0,6,2,235,462,0,1,1316.5
32,24,7,7,0,7,1,235,462,0,1,1315.29999998212
32,25,5,5,0,1,0,304,506,0,1,1380.29999998212
32,25,5,5,0,2,4,304,506,0,1,1991.09999999404
32,25,5,5,0,3,3,304,506,0,1,1182.29999998212
32,25,5,5,0,4,2,304,506,0,1,1240.40000000596
32,25,5,5,0,5,1,304,506,0,1,1300
32,26,5,3,-2,1,0,111,279,0,1,1273.40000000596
32,26,5,3,-2,2,4,111,279,0,1,1293
32,26,5,3,-2,3,3,111,279,0,1,1757.09999999404
32,27,7,9,2,1,2,159,325,0,1,1331.60000002384
32,27,7,9,2,2,6,159,325,0,1,2319
32,27,7,9,2,3,5,159,325,0,1,1341
32,27,7,9,2,4,4,159,325,0,1,2617.09999999404
32,27,7,9,2,5,3,159,325,0,1,1971.5
32,27,7,9,2,6,2,159,325,0,1,1174.69999998808
32,27,7,9,2,7,1,159,325,0,1,1490.30000001192
32,27,7,9,2,8,0,159,325,0,1,1283.19999998808
32,27,7,9,2,9,0,159,325,0,1,2671.90000000596
32,28,6,6,0,1,6,137,329,0,1,1204.90000000596
32,28,6,6,0,2,5,137,329,0,1,1250.80000001192
32,28,6,6,0,3,4,137,329,0,1,1224.5
32,28,6,6,0,4,3,137,329,0,1,1126.30000001192
32,28,6,6,0,5,2,137,329,0,1,1613.80000001192
32,28,6,6,0,6,1,137,329,0,1,1429.5
32,29,7,7,0,1,0,211,387,0,1,2855.89999997616
32,29,7,7,0,2,6,211,387,0,1,1068.10000002384
32,29,7,7,0,3,5,211,387,0,1,1115.80000001192
32,29,7,7,0,4,4,211,387,0,1,1285
32,29,7,7,0,5,3,211,387,0,1,1286
32,29,7,7,0,6,2,211,387,0,1,1230.30000001192
32,29,7,7,0,7,1,211,387,0,1,3643.59999999404
32,30,5,9,4,1,0,315,540,0,1,1580
32,30,5,9,4,2,4,315,540,0,1,1287.40000000596
32,30,5,9,4,3,3,315,540,0,1,3018.89999997616
32,30,5,9,4,4,2,315,540,0,1,1182
32,30,5,9,4,5,1,315,540,0,1,3227.80000001192
32,30,5,9,4,6,0,315,540,0,1,3256
32,30,5,9,4,7,0,315,540,0,1,1442.79999998212
32,30,5,9,4,8,0,315,540,0,1,1529.40000000596
32,30,5,9,4,9,0,315,540,0,1,1246.39999997616
32,31,6,8,2,1,6,279,507,0,1,1310
32,31,6,8,2,2,5,279,507,0,1,1288
32,31,6,8,2,3,4,279,507,0,1,1366.59999999404
32,31,6,8,2,4,3,279,507,0,1,1231.80000001192
32,31,6,8,2,5,2,279,507,0,1,1287.09999999404
32,31,6,8,2,6,1,279,507,0,1,1345.80000001192
32,31,6,8,2,7,0,279,507,0,1,1741.90000000596
32,31,6,8,2,8,0,279,507,0,1,1515.39999997616
32,32,5,5,0,1,5,39,219,0,1,1416.40000000596
32,32,5,5,0,2,4,39,219,0,1,2772.39999997616
32,32,5,5,0,3,3,39,219,0,1,1399.70000001788
32,32,5,5,0,4,2,39,219,0,1,1394.89999997616
32,32,5,5,0,5,1,39,219,0,1,2516.70000001788
32,33,7,7,0,1,0,73,242,0,1,1382.79999998212
32,33,7,7,0,2,6,73,242,0,1,1224.20000001788
32,33,7,7,0,3,5,73,242,0,1,1217.19999998808
32,33,7,7,0,4,4,73,242,0,1,1366
32,33,7,7,0,5,3,73,242,0,1,1268.69999998808
32,33,7,7,0,6,2,73,242,0,1,1215.59999999404
32,33,7,7,0,7,1,73,242,0,1,1260.09999999404
32,34,6,6,0,1,0,189,371,0,1,2349.29999998212
32,34,6,6,0,2,5,189,371,0,1,1331.90000000596
32,34,6,6,0,3,4,189,371,0,1,3025.40000000596
32,34,6,6,0,4,3,189,371,0,1,2588.5
32,34,6,6,0,5,2,189,371,0,1,1281.70000001788
32,34,6,6,0,6,1,189,371,0,1,1401.5
32,35,5,5,0,1,0,294,440,0,1,1366.5
32,35,5,5,0,2,4,294,440,0,1,1445
32,35,5,5,0,3,3,294,440,0,1,1239.5
32,35,5,5,0,4,2,294,440,0,1,1239.30000001192
32,35,5,5,0,5,1,294,440,0,1,1308.5
32,36,7,11,4,1,0,92,299,0,1,1481.5
32,36,7,11,4,2,6,92,299,0,1,1664.30000001192
32,36,7,11,4,3,5,92,299,0,1,1395.5
32,36,7,11,4,4,4,92,299,0,1,1542.80000001192
32,36,7,11,4,5,3,92,299,0,1,1948.5
32,36,7,11,4,6,2,92,299,0,1,1444.70000001788
32,36,7,11,4,7,1,92,299,0,1,1366.30000001192
32,36,7,11,4,8,0,92,299,0,1,1359.90000000596
32,36,7,11,4,9,0,92,299,0,1,1246.70000001788
32,36,7,11,4,10,0,92,299,0,1,1302.60000002384
32,36,7,11,4,11,0,92,299,0,1,1363
32,37,6,10,4,1,6,96,257,0,1,1260.5
32,37,6,10,4,2,5,96,257,0,1,1271.09999999404
32,37,6,10,4,3,4,96,257,0,1,1295.40000000596
32,37,6,10,4,4,3,96,257,0,1,2970.80000001192
32,37,6,10,4,5,2,96,257,5,0,176.90000000596
32,37,6,10,4,6,1,96,257,0,1,1824.69999998808
32,37,6,10,4,7,0,96,257,0,1,1332.60000002384
32,37,6,10,4,8,0,96,257,0,1,1214.59999999404
32,37,6,10,4,9,0,96,257,0,1,1245.5
32,37,6,10,4,10,0,96,257,0,1,1295
32,38,5,7,2,1,5,217,428,0,1,2410.90000000596
32,38,5,7,2,2,4,217,428,0,1,1022.30000001192
32,38,5,7,2,3,3,217,428,0,1,2262.30000001192
32,38,5,7,2,4,2,217,428,0,1,1140.5
32,38,5,7,2,5,1,217,428,0,1,1273.09999999404
32,38,5,7,2,6,0,217,428,0,1,1359.30000001192
32,38,5,7,2,7,0,217,428,0,1,1218.19999998808
32,39,7,3,-4,1,7,137,358,0,1,1621.09999999404
32,39,7,3,-4,2,6,137,358,0,1,1451.30000001192
32,39,7,3,-4,3,5,137,358,0,1,1438.80000001192
32,40,7,5,-2,1,4,197,381,0,1,1676.30000001192
32,40,7,5,-2,2,6,197,381,0,1,1444.40000000596
32,40,7,5,-2,3,5,197,381,0,1,1522.09999999404
32,40,7,5,-2,4,4,197,381,0,1,2828.09999999404
32,40,7,5,-2,5,3,197,381,0,1,1386.90000000596
32,41,7,8,1,1,2,27,191,0,1,3734.90000000596
32,41,7,8,1,2,6,27,191,0,1,1728.59999999404
32,41,7,8,1,3,5,27,191,0,1,2077.5
32,41,7,8,1,4,4,27,191,0,1,1530.40000000596
32,41,7,8,1,5,3,27,191,0,1,1301.90000000596
32,41,7,8,1,6,2,27,191,0,1,1290.69999998808
32,41,7,8,1,7,1,27,191,0,1,1294.89999997616
32,41,7,8,1,8,0,27,191,0,1,1244.59999999404
32,42,7,6,-1,1,7,134,280,0,1,1447.70000001788
32,42,7,6,-1,2,6,134,280,0,1,1474.5
32,42,7,6,-1,3,5,134,280,0,1,2307.20000001788
32,42,7,6,-1,4,4,134,280,0,1,1403.20000001788
32,42,7,6,-1,5,3,134,280,0,1,1571.80000001192
32,42,7,6,-1,6,2,134,280,0,1,2756.40000000596
32,43,5,4,-1,1,1,201,408,0,1,1212.19999998808
32,43,5,4,-1,2,4,201,408,0,1,1536.29999998212
32,43,5,4,-1,3,3,201,408,0,1,1333.90000000596
32,43,5,4,-1,4,2,201,408,0,1,1231.80000001192
32,44,7,4,-3,1,1,87,313,0,1,1959.19999998808
32,44,7,4,-3,2,6,87,313,0,1,1388.40000000596
32,44,7,4,-3,3,5,87,313,0,1,1741.30000001192
32,44,7,4,-3,4,4,87,313,0,1,1273.59999999404
32,45,5,5,0,1,3,351,551,0,1,1309.40000000596
32,45,5,5,0,2,4,351,551,0,1,1204.59999999404
32,45,5,5,0,3,3,351,551,0,1,1407.79999998212
32,45,5,5,0,4,2,351,551,0,1,1379.09999999404
32,45,5,5,0,5,1,351,551,0,1,1222.30000001192
32,46,6,9,3,1,0,179,352,0,1,1210.19999998808
32,46,6,9,3,2,5,179,352,0,1,1251.59999999404
32,46,6,9,3,3,4,179,352,0,1,1380.79999998212
32,46,6,9,3,4,3,179,352,0,1,1267.40000000596
32,46,6,9,3,5,2,179,352,0,1,1145.5
32,46,6,9,3,6,1,179,352,0,1,2316.90000000596
32,46,6,9,3,7,0,179,352,0,1,2146.69999998808
32,46,6,9,3,8,0,179,352,0,1,1317.29999998212
32,46,6,9,3,9,0,179,352,0,1,1317.09999999404
32,47,7,10,3,1,7,114,346,0,1,1471.59999999404
32,47,7,10,3,2,6,114,346,0,1,1247.30000001192
32,47,7,10,3,3,5,114,346,0,1,1159.09999999404
32,47,7,10,3,4,4,114,346,0,1,1325.29999998212
32,47,7,10,3,5,3,114,346,0,1,1296.40000000596
32,47,7,10,3,6,2,114,346,0,1,1281.19999998808
32,47,7,10,3,7,1,114,346,0,1,1429.79999998212
32,47,7,10,3,8,0,114,346,0,1,1231.90000000596
32,47,7,10,3,9,0,114,346,0,1,1259.70000001788
32,47,7,10,3,10,0,114,346,0,1,1230.5
32,48,5,2,-3,1,5,144,317,0,1,2396
32,48,5,2,-3,2,4,144,317,0,1,1347.89999997616
32,49,6,7,1,1,3,215,401,0,1,1746.69999998808
32,49,6,7,1,2,5,215,401,0,1,1778
32,49,6,7,1,3,4,215,401,0,1,1169.10000002384
32,49,6,7,1,4,3,215,401,0,1,1052
32,49,6,7,1,5,2,215,401,0,1,1323.20000001788
32,49,6,7,1,6,1,215,401,0,1,1175.5
32,49,6,7,1,7,0,215,401,0,1,1328.69999998808
32,50,7,7,0,1,7,144,326,0,1,1471.90000000596
32,50,7,7,0,2,6,144,326,0,1,1489
32,50,7,7,0,3,5,144,326,0,1,1440.59999999404
32,50,7,7,0,4,4,144,326,0,1,1229.09999999404
32,50,7,7,0,5,3,144,326,0,1,1259.90000000596
32,50,7,7,0,6,2,144,326,0,1,1316.80000001192
32,50,7,7,0,7,1,144,326,0,1,1953.59999999404
32,51,6,4,-2,1,0,90,281,0,1,1359.5
32,51,6,4,-2,2,5,90,281,0,1,2061.89999997616
32,51,6,4,-2,3,4,90,281,0,1,1210.30000001192
32,51,6,4,-2,4,3,90,281,0,1,1343.09999999404
32,52,7,7,0,1,2,264,429,0,1,1600.59999999404
32,52,7,7,0,2,6,264,429,0,1,1491.20000001788
32,52,7,7,0,3,5,264,429,0,1,3595.90000000596
32,52,7,7,0,4,4,264,429,0,1,1393.09999999404
32,52,7,7,0,5,3,264,429,0,1,1438.20000001788
32,52,7,7,0,6,2,264,429,0,1,1479.59999999404
32,52,7,7,0,7,1,264,429,0,1,1522.5
32,53,6,6,0,1,0,39,233,0,1,1345
32,53,6,6,0,2,5,39,233,0,1,1257.70000001788
32,53,6,6,0,3,4,39,233,0,1,2445.60000002384
32,53,6,6,0,4,3,39,233,0,1,1272
32,53,6,6,0,5,2,39,233,0,1,1237.59999999404
32,53,6,6,0,6,1,39,233,0,1,1238.30000001192
32,54,7,7,0,1,0,247,462,0,1,1429.70000001788
32,54,7,7,0,2,6,247,462,0,1,1164.90000000596
32,54,7,7,0,3,5,247,462,0,1,1202.09999999404
32,54,7,7,0,4,4,247,462,0,1,1926.89999997616
32,54,7,7,0,5,3,247,462,0,1,1268.10000002384
32,54,7,7,0,6,2,247,462,0,1,1388.90000000596
32,54,7,7,0,7,1,247,462,0,1,1435.70000001788
32,55,6,4,-2,1,0,45,231,0,1,1307.80000001192
32,55,6,4,-2,2,5,45,231,0,1,1253.30000001192
32,55,6,4,-2,3,4,45,231,0,1,1208
32,55,6,4,-2,4,3,45,231,0,1,2225.19999998808
32,56,5,5,0,1,2,137,288,0,1,1376.19999998808
32,56,5,5,0,2,4,137,288,0,1,1288.59999999404
32,56,5,5,0,3,3,137,288,0,1,1344.30000001192
32,56,5,5,0,4,2,137,288,0,1,1601.19999998808
32,56,5,5,0,5,1,137,288,0,1,1379
32,57,7,7,0,1,0,56,222,0,1,1153.09999999404
32,57,7,7,0,2,6,56,222,0,1,1307.40000000596
32,57,7,7,0,3,5,56,222,0,1,1203.5
32,57,7,7,0,4,4,56,222,0,1,1302.09999999404
32,57,7,7,0,5,3,56,222,0,1,1209.90000000596
32,57,7,7,0,6,2,56,222,0,1,1238
32,57,7,7,0,7,1,56,222,0,1,1211.09999999404
32,58,7,7,0,1,0,83,249,0,1,1366.89999997616
32,58,7,7,0,2,6,83,249,0,1,1506.19999998808
32,58,7,7,0,3,5,83,249,0,1,1224.80000001192
32,58,7,7,0,4,4,83,249,0,1,1883.09999999404
32,58,7,7,0,5,3,83,249,0,1,1217.5
32,58,7,7,0,6,2,83,249,0,1,1139.79999998212
32,58,7,7,0,7,1,83,249,0,1,1465.79999998212
32,59,6,6,0,1,0,83,310,0,1,1726.59999999404
32,59,6,6,0,2,5,83,310,0,1,1267.40000000596
32,59,6,6,0,3,4,83,310,0,1,1515.40000000596
32,59,6,6,0,4,3,83,310,0,1,1253.60000002384
32,59,6,6,0,5,2,83,310,0,1,1396.29999998212
32,59,6,6,0,6,1,83,310,0,1,1867.40000000596
32,60,7,7,0,1,0,35,254,0,1,1221.89999997616
32,60,7,7,0,2,6,35,254,0,1,1291.09999999404
32,60,7,7,0,3,5,35,254,0,1,1543.19999998808
32,60,7,7,0,4,4,35,254,0,1,1281.40000000596
32,60,7,7,0,5,3,35,254,0,1,1208.30000001192
32,60,7,7,0,6,2,35,254,0,1,1040.70000001788
32,60,7,7,0,7,1,35,254,0,1,1152.10000002384
32,61,7,4,-3,1,0,168,391,0,1,1823.5
32,61,7,4,-3,2,6,168,391,0,1,1235.10000002384
32,61,7,4,-3,3,5,168,391,0,1,1962
32,61,7,4,-3,4,4,168,391,0,1,1292.20000001788
32,62,6,6,0,1,3,1,228,0,1,1210.79999998212
32,62,6,6,0,2,5,1,228,0,1,1304
32,62,6,6,0,3,4,1,228,0,1,1289.29999998212
32,62,6,6,0,4,3,1,228,0,1,1260.5
32,62,6,6,0,5,2,1,228,0,1,1271.59999999404
32,62,6,6,0,6,1,1,228,0,1,1330.5
32,63,5,5,0,1,0,33,261,0,1,1395.80000001192
32,63,5,5,0,2,4,33,261,0,1,1210.5
32,63,5,5,0,3,3,33,261,0,1,1160.69999998808
32,63,5,5,0,4,2,33,261,0,1,1301.70000001788
32,63,5,5,0,5,1,33,261,0,1,1417
32,64,6,6,0,1,0,137,372,0,1,1342.40000000596
32,64,6,6,0,2,5,137,372,0,1,2956.40000000596
32,64,6,6,0,3,4,137,372,0,1,1091.90000000596
32,64,6,6,0,4,3,137,372,0,1,1222.70000001788
32,64,6,6,0,5,2,137,372,0,1,1281.5
32,64,6,6,0,6,1,137,372,0,1,1294.90000000596
32,65,5,8,3,1,0,204,414,0,1,1459.09999999404
32,65,5,8,3,2,4,204,414,0,1,1366.19999998808
32,65,5,8,3,3,3,204,414,0,1,1899.40000000596
32,65,5,8,3,4,2,204,414,0,1,1273.59999999404
32,65,5,8,3,5,1,204,414,0,1,1118.19999998808
32,65,5,8,3,6,0,204,414,0,1,1265.19999998808
32,65,5,8,3,7,0,204,414,0,1,1293.09999999404
32,65,5,8,3,8,0,204,414,0,1,1309.5
32,66,5,5,0,1,5,115,290,0,1,1307.70000001788
32,66,5,5,0,2,4,115,290,0,1,1472.90000000596
32,66,5,5,0,3,3,115,290,0,1,1394.40000000596
32,66,5,5,0,4,2,115,290,0,1,1246.40000000596
32,66,5,5,0,5,1,115,290,0,1,1832.69999998808
32,67,5,5,0,1,0,22,169,0,1,1457.39999997616
32,67,5,5,0,2,4,22,169,0,1,1666.39999997616
32,67,5,5,0,3,3,22,169,0,1,1392.19999998808
32,67,5,5,0,4,2,22,169,0,1,1401.89999997616
32,67,5,5,0,5,1,22,169,0,1,1324
32,68,7,8,1,1,0,229,402,0,1,1301.29999998212
32,68,7,8,1,2,6,229,402,0,1,1778.29999998212
32,68,7,8,1,3,5,229,402,0,1,1230.29999998212
32,68,7,8,1,4,4,229,402,0,1,1472.69999998808
32,68,7,8,1,5,3,229,402,0,1,1167.79999998212
32,68,7,8,1,6,2,229,402,0,1,1380.10000002384
32,68,7,8,1,7,1,229,402,0,1,1507.90000000596
32,68,7,8,1,8,0,229,402,0,1,1301.5
32,69,5,5,0,1,5,257,418,0,1,1160.20000001788
32,69,5,5,0,2,4,257,418,0,1,1267
32,69,5,5,0,3,3,257,418,0,1,1254.79999998212
32,69,5,5,0,4,2,257,418,0,1,1343.5
32,69,5,5,0,5,1,257,418,0,1,2008.40000000596
32,70,7,9,2,1,0,119,311,0,1,1707.19999998808
32,70,7,9,2,2,6,119,311,0,1,1417.30000001192
32,70,7,9,2,3,5,119,311,0,1,1323.19999998808
32,70,7,9,2,4,4,119,311,0,1,1238.89999997616
32,70,7,9,2,5,3,119,311,0,1,1775.29999998212
32,70,7,9,2,6,2,119,311,0,1,2919.69999998808
32,70,7,9,2,7,1,119,311,0,1,1410.40000000596
32,70,7,9,2,8,0,119,311,0,1,1348.59999999404
32,70,7,9,2,9,0,119,311,0,1,1635
32,71,5,3,-2,1,5,353,529,0,1,1900
32,71,5,3,-2,2,4,353,529,0,1,2202.30000001192
32,71,5,3,-2,3,3,353,529,0,1,3227.19999998808
32,72,7,5,-2,1,2,284,506,0,1,1597.60000002384
32,72,7,5,-2,2,6,284,506,0,1,1311.19999998808
32,72,7,5,-2,3,5,284,506,0,1,1408.29999998212
32,72,7,5,-2,4,4,284,506,0,1,1267.09999999404
32,72,7,5,-2,5,3,284,506,0,1,1266
32,73,6,6,0,1,2,71,220,0,1,1450.40000000596
32,73,6,6,0,2,5,71,220,0,1,1218.60000002384
32,73,6,6,0,3,4,71,220,0,1,1236.40000000596
32,73,6,6,0,4,3,71,220,0,1,1193.79999998212
32,73,6,6,0,5,2,71,220,0,1,1261
32,73,6,6,0,6,1,71,220,0,1,2522.60000002384
32,74,6,6,0,1,0,148,371,0,1,1258.5
32,74,6,6,0,2,5,148,371,0,1,1209.80000001192
32,74,6,6,0,3,4,148,371,0,1,1302.80000001192
32,74,6,6,0,4,3,148,371,0,1,1386.80000001192
32,74,6,6,0,5,2,148,371,0,1,1260.30000001192
32,74,6,6,0,6,1,148,371,0,1,1337.30000001192
32,75,7,11,4,1,0,174,397,0,1,1210.09999999404
32,75,7,11,4,2,6,174,397,0,1,1316.19999998808
32,75,7,11,4,3,5,174,397,0,1,1231.19999998808
32,75,7,11,4,4,4,174,397,0,1,1389.19999998808
32,75,7,11,4,5,3,174,397,0,1,1315.59999999404
32,75,7,11,4,6,2,174,397,0,1,1316.40000000596
32,75,7,11,4,7,1,174,397,0,1,1160.30000001192
32,75,7,11,4,8,0,174,397,0,1,2026.70000001788
32,75,7,11,4,9,0,174,397,0,1,1146.90000000596
32,75,7,11,4,10,0,174,397,0,1,1216.69999998808
32,75,7,11,4,11,0,174,397,0,1,2310.10000002384
32,76,6,2,-4,1,6,147,296,0,1,1101.5
32,76,6,2,-4,2,5,147,296,0,1,1260.5
32,77,5,5,0,1,4,67,298,0,1,1379.90000000596
32,77,5,5,0,2,4,67,298,0,1,1273.90000000596
32,77,5,5,0,3,3,67,298,0,1,1434.80000001192
32,77,5,5,0,4,2,67,298,0,1,1275.19999998808
32,77,5,5,0,5,1,67,298,0,1,2253
32,78,6,5,-1,1,0,214,394,0,1,1018.5
32,78,6,5,-1,2,5,214,394,0,1,1180.19999998808
32,78,6,5,-1,3,4,214,394,0,1,1116.39999997616
32,78,6,5,-1,4,3,214,394,0,1,1925.59999999404
32,78,6,5,-1,5,2,214,394,0,1,1183.19999998808
32,79,6,9,3,1,1,280,496,0,1,1097.30000001192
32,79,6,9,3,2,5,280,496,0,1,1209.90000000596
32,79,6,9,3,3,4,280,496,0,1,1096.09999999404
32,79,6,9,3,4,3,280,496,0,1,1237.69999998808
32,79,6,9,3,5,2,280,496,0,1,1308.5
32,79,6,9,3,6,1,280,496,0,1,1260.09999999404
32,79,6,9,3,7,0,280,496,0,1,1229.30000001192
32,79,6,9,3,8,0,280,496,0,1,1430.59999999404
32,79,6,9,3,9,0,280,496,0,1,1160
32,80,5,5,0,1,5,194,353,0,1,1224.30000001192
32,80,5,5,0,2,4,194,353,0,1,1172.80000001192
32,80,5,5,0,3,3,194,353,0,1,1289.29999998212
32,80,5,5,0,4,2,194,353,0,1,1311
32,80,5,5,0,5,1,194,353,0,1,2306.90000000596
32,81,6,6,0,1,0,46,212,0,1,1765.90000000596
32,81,6,6,0,2,5,46,212,0,1,1245.80000001192
32,81,6,6,0,3,4,46,212,0,1,1352.20000001788
32,81,6,6,0,4,3,46,212,0,1,1173.40000000596
32,81,6,6,0,5,2,46,212,0,1,1267.09999999404
32,81,6,6,0,6,1,46,212,0,1,1202
32,82,6,6,0,1,0,187,337,0,1,2507.80000001192
32,82,6,6,0,2,5,187,337,0,1,1172.40000000596
32,82,6,6,0,3,4,187,337,0,1,1373.80000001192
32,82,6,6,0,4,3,187,337,0,1,1884
32,82,6,6,0,5,2,187,337,0,1,1220.39999997616
32,82,6,6,0,6,1,187,337,0,1,1287.30000001192
32,83,7,7,0,1,0,284,447,0,1,1415.5
32,83,7,7,0,2,6,284,447,0,1,1267.89999997616
32,83,7,7,0,3,5,284,447,0,1,2584
32,83,7,7,0,4,4,284,447,0,1,1196.5
32,83,7,7,0,5,3,284,447,0,1,1245.90000000596
32,83,7,7,0,6,2,284,447,0,1,1246.29999998212
32,83,7,7,0,7,1,284,447,0,1,1771.20000001788
32,84,6,7,1,1,0,153,348,0,1,1363.80000001192
32,84,6,7,1,2,5,153,348,0,1,1224.40000000596
32,84,6,7,1,3,4,153,348,0,1,1308.70000001788
32,84,6,7,1,4,3,153,348,0,1,1259.40000000596
32,84,6,7,1,5,2,153,348,0,1,1245.69999998808
32,84,6,7,1,6,1,153,348,0,1,1274.5
32,84,6,7,1,7,0,153,348,0,1,1983.09999999404
32,85,5,1,-4,1,5,132,295,0,1,1237.69999998808
32,86,5,2,-3,1,4,323,499,0,1,1572.60000002384
32,86,5,2,-3,2,4,323,499,0,1,1600.90000000596
32,87,6,6,0,1,3,315,467,0,1,1437.09999999404
32,87,6,6,0,2,5,315,467,0,1,1320.70000001788
32,87,6,6,0,3,4,315,467,0,1,1691
32,87,6,6,0,4,3,315,467,0,1,1415.5
32,87,6,6,0,5,2,315,467,0,1,1324.90000000596
32,87,6,6,0,6,1,315,467,0,1,1245
32,88,6,6,0,1,0,29,225,0,1,1394.19999998808
32,88,6,6,0,2,5,29,225,0,1,1186.10000002384
32,88,6,6,0,3,4,29,225,0,1,1316.90000000596
32,88,6,6,0,4,3,29,225,0,1,1203
32,88,6,6,0,5,2,29,225,0,1,1316.70000001788
32,88,6,6,0,6,1,29,225,0,1,1195.30000001192
32,89,5,8,3,1,0,84,251,0,1,1287.70000001788
32,89,5,8,3,2,4,84,251,0,1,1346
32,89,5,8,3,3,3,84,251,0,1,1195.59999999404
32,89,5,8,3,4,2,84,251,0,1,1343.29999998212
32,89,5,8,3,5,1,84,251,0,1,1381.09999999404
32,89,5,8,3,6,0,84,251,0,1,1614.59999999404
32,89,5,8,3,7,0,84,251,0,1,1341.70000001788
32,89,5,8,3,8,0,84,251,0,1,1409.40000000596
32,90,6,2,-4,1,6,315,460,0,1,1798.20000001788
32,90,6,2,-4,2,5,315,460,0,1,1479.30000001192
32,91,5,7,2,1,4,323,533,0,1,1543.09999999404
32,91,5,7,2,2,4,323,533,0,1,4346.80000001192
32,91,5,7,2,3,3,323,533,0,1,1380.5
32,91,5,7,2,4,2,323,533,0,1,1673.10000002384
32,91,5,7,2,5,1,323,533,0,1,1578.29999998212
32,91,5,7,2,6,0,323,533,0,1,2648.59999999404
32,91,5,7,2,7,0,323,533,0,1,1309.59999999404
32,92,5,5,0,1,5,21,175,0,1,1658.60000002384
32,92,5,5,0,2,4,21,175,0,1,1519.29999998212
32,92,5,5,0,3,3,21,175,0,1,1274.80000001192
32,92,5,5,0,4,2,21,175,0,1,2046.20000001788
32,92,5,5,0,5,1,21,175,0,1,1554.5
32,93,5,6,1,1,0,148,352,0,1,3489
32,93,5,6,1,2,4,148,352,0,1,1305.19999998808
32,93,5,6,1,3,3,148,352,0,1,1281.5
32,93,5,6,1,4,2,148,352,0,1,1302.5
32,93,5,6,1,5,1,148,352,0,1,1273.69999998808
32,93,5,6,1,6,0,148,352,0,1,1686.09999999404
32,94,5,4,-1,1,5,212,410,0,1,1294.40000000596
32,94,5,4,-1,2,4,212,410,0,1,1286.59999999404
32,94,5,4,-1,3,3,212,410,0,1,1286.5
32,94,5,4,-1,4,2,212,410,0,1,1238.59999999404
32,95,6,5,-1,1,1,337,500,0,1,1409.60000002384
32,95,6,5,-1,2,5,337,500,0,1,1299.79999998212
32,95,6,5,-1,3,4,337,500,0,1,1194.90000000596
32,95,6,5,-1,4,3,337,500,0,1,1267.40000000596
32,95,6,5,-1,5,2,337,500,0,1,1205.20000001788
32,96,5,9,4,1,1,223,456,0,1,1363.90000000596
32,96,5,9,4,2,4,223,456,0,1,2259.30000001192
32,96,5,9,4,3,3,223,456,0,1,1007.90000000596
32,96,5,9,4,4,2,223,456,0,1,1140.20000001788
32,96,5,9,4,5,1,223,456,0,1,1161.79999998212
32,96,5,9,4,6,0,223,456,0,1,1340
32,96,5,9,4,7,0,223,456,0,1,1111.40000000596
32,96,5,9,4,8,0,223,456,0,1,2367.40000000596
32,96,5,9,4,9,0,223,456,0,1,1112.10000002384
5,1,5,2,-3,1,5,343,490,0,1,3766.40000000596
5,1,5,2,-3,2,4,343,490,0,1,1558.39999999106
5,2,6,2,-4,1,3,300,522,0,1,1576.5
5,2,6,2,-4,2,5,300,522,0,1,1678.59999999404
5,3,7,10,3,1,4,315,491,0,1,1527.59999999404
5,3,7,10,3,2,6,315,491,0,1,2828.20000000298
5,3,7,10,3,3,5,315,491,6,0,228.899999991059
5,3,7,10,3,4,4,315,491,0,1,1724.39999999106
5,3,7,10,3,5,3,315,491,0,1,1457.70000000298
5,3,7,10,3,6,2,315,491,0,1,1427.90000000596
5,3,7,10,3,7,1,315,491,0,1,1627
5,3,7,10,3,8,0,315,491,0,1,1194.90000000596
5,3,7,10,3,9,0,315,491,0,1,1478.59999999404
5,3,7,10,3,10,0,315,491,0,1,1861.59999999404
5,4,5,5,0,1,5,200,393,0,1,1779.39999999106
5,4,5,5,0,2,4,200,393,0,1,3277.90000000596
5,4,5,5,0,3,3,200,393,0,1,1928.79999999702
5,4,5,5,0,4,2,200,393,0,1,2329.19999998808
5,4,5,5,0,5,1,200,393,0,1,1228.90000000596
5,5,5,2,-3,1,0,114,312,0,1,1328.90000000596
5,5,5,2,-3,2,4,114,312,0,1,1291.90000000596
5,6,5,5,0,1,3,185,418,0,1,1662
5,6,5,5,0,2,4,185,418,0,1,1145.89999999106
5,6,5,5,0,3,3,185,418,0,1,1112
5,6,5,5,0,4,2,185,418,0,1,1412
5,6,5,5,0,5,1,185,418,0,1,1158.30000001192
5,7,5,6,1,1,0,302,487,0,1,1445.70000000298
5,7,5,6,1,2,4,302,487,0,1,1262.39999999106
5,7,5,6,1,3,3,302,487,0,1,1495.70000000298
5,7,5,6,1,4,2,302,487,0,1,1095.09999999404
5,7,5,6,1,5,1,302,487,0,1,1008.09999999404
5,7,5,6,1,6,0,302,487,0,1,1262.40000000596
5,8,7,11,4,1,7,335,550,0,1,1446.09999999404
5,8,7,11,4,2,6,335,550,0,1,1329.09999999404
5,8,7,11,4,3,5,335,550,0,1,946
5,8,7,11,4,4,4,335,550,0,1,1091
5,8,7,11,4,5,3,335,550,0,1,1428.90000000596
5,8,7,11,4,6,2,335,550,0,1,1279.20000000298
5,8,7,11,4,7,1,335,550,0,1,1578.89999999106
5,8,7,11,4,8,0,335,550,0,1,1529.29999999702
5,8,7,11,4,9,0,335,550,0,1,1062.09999999404
5,8,7,11,4,10,0,335,550,0,1,1229.5
5,8,7,11,4,11,0,335,550,0,1,991.100000008941
5,9,5,7,2,1,5,291,525,0,1,1612.59999999404
5,9,5,7,2,2,4,291,525,0,1,1079.40000000596
5,9,5,7,2,3,3,291,525,0,1,962.399999991059
5,9,5,7,2,4,2,291,525,0,1,1778.90000000596
5,9,5,7,2,5,1,291,525,0,1,1390.90000000596
5,9,5,7,2,6,0,291,525,0,1,1395
5,9,5,7,2,7,0,291,525,0,1,1928.40000000596
5,10,6,6,0,1,6,112,271,0,1,1579.20000000298
5,10,6,6,0,2,5,112,271,0,1,1097.70000000298
5,10,6,6,0,3,4,112,271,0,1,944.59999999404
5,10,6,6,0,4,3,112,271,0,1,1092.69999998808
5,10,6,6,0,5,2,112,271,0,1,1362.20000000298
5,10,6,6,0,6,1,112,271,0,1,1811.70000000298
5,11,5,8,3,1,0,167,378,0,1,1829
5,11,5,8,3,2,4,167,378,0,1,1412
5,11,5,8,3,3,3,167,378,0,1,1246
5,11,5,8,3,4,2,167,378,0,1,1029
5,11,5,8,3,5,1,167,378,0,1,1025.80000001192
5,11,5,8,3,6,0,167,378,0,1,1212.39999999106
5,11,5,8,3,7,0,167,378,0,1,1129.09999999404
5,11,5,8,3,8,0,167,378,0,1,1658.10000000894
5,12,7,3,-4,1,7,71,226,0,1,1228.80000001192
5,12,7,3,-4,2,6,71,226,0,1,1045.30000001192
5,12,7,3,-4,3,5,71,226,0,1,1244.80000001192
5,13,5,4,-1,1,4,133,278,0,1,1129.59999999404
5,13,5,4,-1,2,4,133,278,0,1,1175.19999998808
5,13,5,4,-1,3,3,133,278,0,1,1011.79999999702
5,13,5,4,-1,4,2,133,278,0,1,1162.5
5,14,5,1,-4,1,1,80,243,0,1,1591.5
5,15,7,7,0,1,0,357,572,0,1,1312.40000000596
5,15,7,7,0,2,6,357,572,0,1,1144.80000001192
5,15,7,7,0,3,5,357,572,0,1,1896.09999999404
5,15,7,7,0,4,4,357,572,0,1,1046.09999999404
5,15,7,7,0,5,3,357,572,0,1,995.40000000596
5,15,7,7,0,6,2,357,572,0,1,995.900000005961
5,15,7,7,0,7,1,357,572,0,1,1375.5
5,16,6,6,0,1,0,237,400,0,1,1295.60000000894
5,16,6,6,0,2,5,237,400,0,1,1161.69999998808
5,16,6,6,0,3,4,237,400,0,1,1661.59999999404
5,16,6,6,0,4,3,237,400,0,1,1545.09999999404
5,16,6,6,0,5,2,237,400,0,1,2711.20000000298
5,16,6,6,0,6,1,237,400,0,1,1545.40000000596
5,17,6,7,1,1,0,46,198,0,1,1617.40000000596
5,17,6,7,1,2,5,46,198,0,1,1028.60000000894
5,17,6,7,1,3,4,46,198,0,1,1544.59999999404
5,17,6,7,1,4,3,46,198,0,1,1008.30000001192
5,17,6,7,1,5,2,46,198,0,1,979.29999999702
5,17,6,7,1,6,1,46,198,0,1,1196.10000000894
5,17,6,7,1,7,0,46,198,0,1,1107.79999999702
5,18,6,4,-2,1,6,86,253,0,1,1262.59999999404
5,18,6,4,-2,2,5,86,253,0,1,1362.5
5,18,6,4,-2,3,4,86,253,0,1,1312.59999999404
5,18,6,4,-2,4,3,86,253,0,1,1112
5,19,6,6,0,1,2,191,376,0,1,1558.10000000894
5,19,6,6,0,2,5,191,376,0,1,1145
5,19,6,6,0,3,4,191,376,0,1,1179.09999999404
5,19,6,6,0,4,3,191,376,0,1,1078.80000001192
5,19,6,6,0,5,2,191,376,0,1,1412.40000000596
5,19,6,6,0,6,1,191,376,0,1,1425.10000000894
5,20,7,7,0,1,0,143,348,0,1,1711.59999999404
5,20,7,7,0,2,6,143,348,0,1,1511.40000000596
5,20,7,7,0,3,5,143,348,0,1,1428.79999999702
5,20,7,7,0,4,4,143,348,0,1,1708.59999999404
5,20,7,7,0,5,3,143,348,0,1,1311.40000000596
5,20,7,7,0,6,2,143,348,0,1,1762
5,20,7,7,0,7,1,143,348,0,1,1562.60000000894
5,21,5,5,0,1,0,41,272,0,1,1779
5,21,5,5,0,2,4,41,272,0,1,1361.79999999702
5,21,5,5,0,3,3,41,272,0,1,1028.90000000596
5,21,5,5,0,4,2,41,272,0,1,1095.20000000298
5,21,5,5,0,5,1,41,272,0,1,1291.80000001192
5,22,5,5,0,1,0,343,531,0,1,1262.69999998808
5,22,5,5,0,2,4,343,531,0,1,1262.70000000298
5,22,5,5,0,3,3,343,531,0,1,1295.89999999106
5,22,5,5,0,4,2,343,531,0,1,1312.29999999702
5,22,5,5,0,5,1,343,531,0,1,1390.90000000596
5,23,7,8,1,1,0,328,498,0,1,1695.29999999702
5,23,7,8,1,2,6,328,498,0,1,1411.79999999702
5,23,7,8,1,3,5,328,498,0,1,1195
5,23,7,8,1,4,4,328,498,0,1,1445.60000000894
5,23,7,8,1,5,3,328,498,0,1,1444.59999999404
5,23,7,8,1,6,2,328,498,0,1,2261.60000000894
5,23,7,8,1,7,1,328,498,0,1,1111.29999999702
5,23,7,8,1,8,0,328,498,0,1,1228.60000000894
5,24,7,7,0,1,7,62,240,0,1,1128.20000000298
5,24,7,7,0,2,6,62,240,0,1,1046
5,24,7,7,0,3,5,62,240,0,1,941.400000005961
5,24,7,7,0,4,4,62,240,0,1,1045.5
5,24,7,7,0,5,3,62,240,0,1,1012.5
5,24,7,7,0,6,2,62,240,0,1,1141.59999999404
5,24,7,7,0,7,1,62,240,0,1,1546
5,25,6,6,0,1,0,280,499,0,1,1395.89999999106
5,25,6,6,0,2,5,280,499,0,1,995.29999999702
5,25,6,6,0,3,4,280,499,0,1,1129.20000000298
5,25,6,6,0,4,3,280,499,0,1,908.5
5,25,6,6,0,5,2,280,499,0,1,1111.5
5,25,6,6,0,6,1,280,499,0,1,991.100000008941
5,26,5,5,0,1,0,358,568,0,1,1162.30000001192
5,26,5,5,0,2,4,358,568,0,1,946
5,26,5,5,0,3,3,358,568,0,1,1942.20000000298
5,26,5,5,0,4,2,358,568,0,1,1179.20000000298
5,26,5,5,0,5,1,358,568,0,1,945.79999999702
5,27,7,6,-1,1,0,15,190,0,1,1161.89999999106
5,27,7,6,-1,2,6,15,190,0,1,995.59999999404
5,27,7,6,-1,3,5,15,190,0,1,1242
5,27,7,6,-1,4,4,15,190,0,1,1162
5,27,7,6,-1,5,3,15,190,0,1,1595.5
5,27,7,6,-1,6,2,15,190,0,1,895.400000005961
5,28,5,5,0,1,1,27,176,0,1,1012.19999998808
