participant,block_i,expected_length,real_length,lengthDiff,trial_i_within_block,next_wave_in,targetMeanColor,distractorMeanColor,clicked_monster_id,correct,rt
26,1,6,6,0,1,6,194,363,0,1,3605
26,1,6,6,0,2,5,194,363,0,1,1688
26,1,6,6,0,3,4,194,363,0,1,2143
26,1,6,6,0,4,3,194,363,0,1,1466
26,1,6,6,0,5,2,194,363,0,1,1976
26,1,6,6,0,6,1,194,363,0,1,1334
26,2,7,6,-1,1,0,288,471,0,1,1638.00000000001
26,2,7,6,-1,2,6,288,471,0,1,1329.99999999999
26,2,7,6,-1,3,5,288,471,0,1,1165.99999999999
26,2,7,6,-1,4,4,288,471,0,1,2218
26,2,7,6,-1,5,3,288,471,0,1,1384
26,2,7,6,-1,6,2,288,471,0,1,1290
26,3,7,8,1,1,1,88,276,0,1,1508
26,3,7,8,1,2,6,88,276,0,1,1407
26,3,7,8,1,3,5,88,276,0,1,1340
26,3,7,8,1,4,4,88,276,0,1,1273.00000000001
26,3,7,8,1,5,3,88,276,0,1,1352.00000000001
26,3,7,8,1,6,2,88,276,0,1,1022
26,3,7,8,1,7,1,88,276,0,1,1876
26,3,7,8,1,8,0,88,276,0,1,1524.99999999999
26,4,5,5,0,1,5,241,440,0,1,1707
26,4,5,5,0,2,4,241,440,0,1,1330
26,4,5,5,0,3,3,241,440,0,1,1293.99999999999
26,4,5,5,0,4,2,241,440,0,1,1397
26,4,5,5,0,5,1,241,440,0,1,1971
26,5,6,6,0,1,0,155,340,0,1,1463
26,5,6,6,0,2,5,155,340,0,1,1443
26,5,6,6,0,3,4,155,340,0,1,2302
26,5,6,6,0,4,3,155,340,0,1,1206
26,5,6,6,0,5,2,155,340,0,1,3347
26,5,6,6,0,6,1,155,340,0,1,1163
26,6,6,3,-3,1,0,47,278,0,1,1414
26,6,6,3,-3,2,5,47,278,0,1,1095
26,6,6,3,-3,3,4,47,278,0,1,1289
26,7,6,8,2,1,3,336,551,0,1,1314.00000000001
26,7,6,8,2,2,5,336,551,0,1,1213
26,7,6,8,2,3,4,336,551,0,1,1086.99999999999
26,7,6,8,2,4,3,336,551,0,1,1153.00000000001
26,7,6,8,2,5,2,336,551,0,1,1270.00000000001
26,7,6,8,2,6,1,336,551,0,1,1082
26,7,6,8,2,7,0,336,551,0,1,1265
26,7,6,8,2,8,0,336,551,0,1,1099
26,8,7,11,4,1,7,33,216,0,1,1090
26,8,7,11,4,2,6,33,216,0,1,1457
26,8,7,11,4,3,5,33,216,0,1,1007
26,8,7,11,4,4,4,33,216,0,1,1550
26,8,7,11,4,5,3,33,216,0,1,1201
26,8,7,11,4,6,2,33,216,0,1,1057
26,8,7,11,4,7,1,33,216,0,1,1864
26,8,7,11,4,8,0,33,216,0,1,1262
26,8,7,11,4,9,0,33,216,0,1,1296
26,8,7,11,4,10,0,33,216,0,1,1432
26,8,7,11,4,11,0,33,216,0,1,1118
26,9,5,5,0,1,5,49,255,0,1,1224
26,9,5,5,0,2,4,49,255,0,1,985
26,9,5,5,0,3,3,49,255,0,1,1014
26,9,5,5,0,4,2,49,255,0,1,1157
26,9,5,5,0,5,1,49,255,0,1,1340
26,10,7,7,0,1,0,48,232,0,1,1250
26,10,7,7,0,2,6,48,232,0,1,1128
26,10,7,7,0,3,5,48,232,0,1,1143
26,10,7,7,0,4,4,48,232,0,1,1213
26,10,7,7,0,5,3,48,232,0,1,1432
26,10,7,7,0,6,2,48,232,0,1,1023
26,10,7,7,0,7,1,48,232,0,1,1354
26,11,7,8,1,1,0,73,244,0,1,1329.99999999997
26,11,7,8,1,2,6,73,244,0,1,1129
26,11,7,8,1,3,5,73,244,0,1,1147
26,11,7,8,1,4,4,73,244,0,1,2294
26,11,7,8,1,5,3,73,244,0,1,1211
26,11,7,8,1,6,2,73,244,0,1,1199
26,11,7,8,1,7,1,73,244,0,1,1115
26,11,7,8,1,8,0,73,244,0,1,1291
26,12,6,6,0,1,6,298,447,0,1,1774
26,12,6,6,0,2,5,298,447,0,1,1240
26,12,6,6,0,3,4,298,447,0,1,1218
26,12,6,6,0,4,3,298,447,0,1,1067.99999999997
26,12,6,6,0,5,2,298,447,0,1,1456
26,12,6,6,0,6,1,298,447,0,1,1229
26,13,7,3,-4,1,0,243,463,0,1,1241
26,13,7,3,-4,2,6,243,463,0,1,2196
26,13,7,3,-4,3,5,243,463,0,1,1151
26,14,6,2,-4,1,4,256,454,0,1,1278
26,14,6,2,-4,2,5,256,454,0,1,1193
26,15,6,9,3,1,4,54,263,0,1,1257.00000000003
26,15,6,9,3,2,5,54,263,0,1,1058
26,15,6,9,3,3,4,54,263,0,1,1131
26,15,6,9,3,4,3,54,263,0,1,1139.00000000003
26,15,6,9,3,5,2,54,263,0,1,1161
26,15,6,9,3,6,1,54,263,0,1,1147
26,15,6,9,3,7,0,54,263,0,1,1177
26,15,6,9,3,8,0,54,263,0,1,1270
26,15,6,9,3,9,0,54,263,0,1,1099
26,16,6,6,0,1,6,16,181,0,1,1180
26,16,6,6,0,2,5,16,181,0,1,1135
26,16,6,6,0,3,4,16,181,0,1,990
26,16,6,6,0,4,3,16,181,0,1,1247
26,16,6,6,0,5,2,16,181,0,1,1257
26,16,6,6,0,6,1,16,181,0,1,1106
26,17,6,4,-2,1,0,168,327,0,1,1418
26,17,6,4,-2,2,5,168,327,0,1,1286
26,17,6,4,-2,3,4,168,327,0,1,1218
26,17,6,4,-2,4,3,168,327,0,1,1269.00000000003
26,18,5,7,2,1,2,188,369,0,1,1239.99999999997
26,18,5,7,2,2,4,188,369,0,1,1191.99999999997
26,18,5,7,2,3,3,188,369,0,1,1162
26,18,5,7,2,4,2,188,369,0,1,1311
26,18,5,7,2,5,1,188,369,0,1,1215
26,18,5,7,2,6,0,188,369,0,1,1130.00000000003
26,18,5,7,2,7,0,188,369,0,1,1221
26,19,7,9,2,1,7,309,457,0,1,1915.00000000003
26,19,7,9,2,2,6,309,457,0,1,1209.99999999997
26,19,7,9,2,3,5,309,457,0,1,1539
26,19,7,9,2,4,4,309,457,0,1,1208
26,19,7,9,2,5,3,309,457,0,1,1108
26,19,7,9,2,6,2,309,457,0,1,1215.99999999997
26,19,7,9,2,7,1,309,457,0,1,1388.99999999997
26,19,7,9,2,8,0,309,457,0,1,1264
26,19,7,9,2,9,0,309,457,0,1,1141
26,20,7,7,0,1,7,192,393,0,1,1357.00000000003
26,20,7,7,0,2,6,192,393,0,1,1363
26,20,7,7,0,3,5,192,393,0,1,1333.00000000003
26,20,7,7,0,4,4,192,393,0,1,937.999999999971
26,20,7,7,0,5,3,192,393,0,1,991
26,20,7,7,0,6,2,192,393,0,1,1156
26,20,7,7,0,7,1,192,393,0,1,1045.00000000006
26,21,7,10,3,1,0,53,284,0,1,1248
26,21,7,10,3,2,6,53,284,0,1,1273
26,21,7,10,3,3,5,53,284,0,1,1160
26,21,7,10,3,4,4,53,284,0,1,1469
26,21,7,10,3,5,3,53,284,0,1,1157.00000000006
26,21,7,10,3,6,2,53,284,0,1,1931
26,21,7,10,3,7,1,53,284,0,1,1146
26,21,7,10,3,8,0,53,284,0,1,1176
26,21,7,10,3,9,0,53,284,0,1,1253
26,21,7,10,3,10,0,53,284,0,1,1178
26,22,6,3,-3,1,6,150,310,0,1,1504
26,22,6,3,-3,2,5,150,310,0,1,1822
26,22,6,3,-3,3,4,150,310,0,1,1298.99999999994
26,23,7,4,-3,1,3,150,328,0,1,2039
26,23,7,4,-3,2,6,150,328,0,1,1253
26,23,7,4,-3,3,5,150,328,0,1,1117
26,23,7,4,-3,4,4,150,328,0,1,1148
26,24,7,11,4,1,3,266,500,0,1,1306
26,24,7,11,4,2,6,266,500,0,1,1793
26,24,7,11,4,3,5,266,500,0,1,1181
26,24,7,11,4,4,4,266,500,0,1,1321
26,24,7,11,4,5,3,266,500,0,1,945
26,24,7,11,4,6,2,266,500,0,1,1095
26,24,7,11,4,7,1,266,500,0,1,1142
26,24,7,11,4,8,0,266,500,0,1,1294
26,24,7,11,4,9,0,266,500,0,1,1230.00000000006
26,24,7,11,4,10,0,266,500,0,1,1164
26,24,7,11,4,11,0,266,500,0,1,1064
26,25,7,7,0,1,7,139,299,0,1,1402
26,25,7,7,0,2,6,139,299,0,1,1359
26,25,7,7,0,3,5,139,299,0,1,1241
26,25,7,7,0,4,4,139,299,0,1,1171
26,25,7,7,0,5,3,139,299,0,1,2034
26,25,7,7,0,6,2,139,299,0,1,1073
26,25,7,7,0,7,1,139,299,0,1,977
26,26,5,6,1,1,0,272,500,0,1,1327
26,26,5,6,1,2,4,272,500,0,1,1324
26,26,5,6,1,3,3,272,500,0,1,1360.99999999994
26,26,5,6,1,4,2,272,500,0,1,1568
26,26,5,6,1,5,1,272,500,0,1,1381.99999999994
26,26,5,6,1,6,0,272,500,0,1,1423
26,27,6,6,0,1,6,185,350,0,1,1531
26,27,6,6,0,2,5,185,350,0,1,1736
26,27,6,6,0,3,4,185,350,0,1,1405.99999999994
26,27,6,6,0,4,3,185,350,0,1,1348
26,27,6,6,0,5,2,185,350,0,1,2474
26,27,6,6,0,6,1,185,350,0,1,1468.99999999994
26,28,5,5,0,1,0,117,314,0,1,1434.00000000006
26,28,5,5,0,2,4,117,314,0,1,1509
26,28,5,5,0,3,3,117,314,0,1,1430
26,28,5,5,0,4,2,117,314,0,1,2169.00000000006
26,28,5,5,0,5,1,117,314,0,1,1389
26,29,6,6,0,1,0,167,355,0,1,1595
26,29,6,6,0,2,5,167,355,0,1,1461
26,29,6,6,0,3,4,167,355,0,1,1310
26,29,6,6,0,4,3,167,355,0,1,1451
26,29,6,6,0,5,2,167,355,0,1,1365
26,29,6,6,0,6,1,167,355,0,1,1540
26,30,6,2,-4,1,0,108,285,0,1,1303
26,30,6,2,-4,2,5,108,285,0,1,1512
26,31,7,7,0,1,4,289,504,0,1,1512
26,31,7,7,0,2,6,289,504,0,1,1269.00000000006
26,31,7,7,0,3,5,289,504,0,1,1591
26,31,7,7,0,4,4,289,504,0,1,1268.00000000006
26,31,7,7,0,5,3,289,504,0,1,1249
26,31,7,7,0,6,2,289,504,0,1,1613
26,31,7,7,0,7,1,289,504,0,1,1392.00000000006
26,32,6,6,0,1,0,338,566,0,1,1482
26,32,6,6,0,2,5,338,566,0,1,1579
26,32,6,6,0,3,4,338,566,0,1,1313
26,32,6,6,0,4,3,338,566,0,1,1469
26,32,6,6,0,5,2,338,566,0,1,1463
26,32,6,6,0,6,1,338,566,0,1,1200
26,33,5,8,3,1,0,267,460,0,1,1572
26,33,5,8,3,2,4,267,460,0,1,1352
26,33,5,8,3,3,3,267,460,0,1,1330
26,33,5,8,3,4,2,267,460,0,1,1193
26,33,5,8,3,5,1,267,460,0,1,1370.99999999994
26,33,5,8,3,6,0,267,460,0,1,1399
26,33,5,8,3,7,0,267,460,0,1,1420
26,33,5,8,3,8,0,267,460,0,1,1327.99999999994
26,34,7,7,0,1,7,186,413,0,1,1275.00000000006
26,34,7,7,0,2,6,186,413,0,1,1340
26,34,7,7,0,3,5,186,413,0,1,1348
26,34,7,7,0,4,4,186,413,0,1,1390
26,34,7,7,0,5,3,186,413,0,1,1436
26,34,7,7,0,6,2,186,413,0,1,1235
26,34,7,7,0,7,1,186,413,0,1,1422
26,35,5,1,-4,1,0,38,255,0,1,2024.99999999994
26,36,7,7,0,1,7,147,323,0,1,1412
26,36,7,7,0,2,6,147,323,0,1,2184.00000000006
26,36,7,7,0,3,5,147,323,0,1,1128.00000000006
26,36,7,7,0,4,4,147,323,0,1,1214
26,36,7,7,0,5,3,147,323,0,1,1161
26,36,7,7,0,6,2,147,323,0,1,1163
26,36,7,7,0,7,1,147,323,0,1,1425
26,37,5,5,0,1,0,165,388,0,1,1176.00000000006
26,37,5,5,0,2,4,165,388,0,1,1036
26,37,5,5,0,3,3,165,388,0,1,1183
26,37,5,5,0,4,2,165,388,0,1,1014
26,37,5,5,0,5,1,165,388,0,1,1297
26,38,6,4,-2,1,0,111,300,0,1,1454.00000000006
26,38,6,4,-2,2,5,111,300,0,1,1392.99999999994
26,38,6,4,-2,3,4,111,300,0,1,1263.99999999994
26,38,6,4,-2,4,3,111,300,0,1,1394
26,39,6,5,-1,1,2,120,276,0,1,1432
26,39,6,5,-1,2,5,120,276,0,1,1278
26,39,6,5,-1,3,4,120,276,0,1,1326.99999999994
26,39,6,5,-1,4,3,120,276,0,1,1440
26,39,6,5,-1,5,2,120,276,0,1,1456
26,40,5,5,0,1,1,9,179,0,1,1384.99999999994
26,40,5,5,0,2,4,9,179,0,1,1350.00000000006
26,40,5,5,0,3,3,9,179,0,1,1522
26,40,5,5,0,4,2,9,179,0,1,1338
26,40,5,5,0,5,1,9,179,0,1,1434
26,41,7,7,0,1,0,247,415,0,1,1400
26,41,7,7,0,2,6,247,415,0,1,1165
26,41,7,7,0,3,5,247,415,0,1,1274
26,41,7,7,0,4,4,247,415,0,1,1195
26,41,7,7,0,5,3,247,415,0,1,1524
26,41,7,7,0,6,2,247,415,0,1,1396
26,41,7,7,0,7,1,247,415,0,1,1307.99999999994
26,42,6,8,2,1,0,349,549,0,1,1606
26,42,6,8,2,2,5,349,549,0,1,1386
26,42,6,8,2,3,4,349,549,0,1,1556.99999999994
26,42,6,8,2,4,3,349,549,0,1,1202
26,42,6,8,2,5,2,349,549,0,1,1408
26,42,6,8,2,6,1,349,549,0,1,1202
26,42,6,8,2,7,0,349,549,0,1,3348
26,42,6,8,2,8,0,349,549,0,1,1269.99999999994
26,43,5,3,-2,1,5,159,353,0,1,1368
26,43,5,3,-2,2,4,159,353,0,1,1351
26,43,5,3,-2,3,3,159,353,0,1,1481
26,44,7,7,0,1,2,17,221,0,1,1466.99999999994
26,44,7,7,0,2,6,17,221,0,1,1364.99999999994
26,44,7,7,0,3,5,17,221,0,1,1247
26,44,7,7,0,4,4,17,221,0,1,1330
26,44,7,7,0,5,3,17,221,0,1,1794
26,44,7,7,0,6,2,17,221,0,1,1347
26,44,7,7,0,7,1,17,221,0,1,1351.99999999994
26,45,6,9,3,1,0,9,170,0,1,1375
26,45,6,9,3,2,5,9,170,0,1,1272.99999999994
26,45,6,9,3,3,4,9,170,0,1,1322
26,45,6,9,3,4,3,9,170,0,1,1451.00000000006
26,45,6,9,3,5,2,9,170,0,1,1304
26,45,6,9,3,6,1,9,170,0,1,1258
26,45,6,9,3,7,0,9,170,0,1,1331.99999999994
26,45,6,9,3,8,0,9,170,0,1,1146
26,45,6,9,3,9,0,9,170,0,1,2305
26,46,7,7,0,1,7,298,473,0,1,1507
26,46,7,7,0,2,6,298,473,0,1,1487
26,46,7,7,0,3,5,298,473,0,1,1401
26,46,7,7,0,4,4,298,473,0,1,1345
26,46,7,7,0,5,3,298,473,0,1,1135
26,46,7,7,0,6,2,298,473,0,1,1418
26,46,7,7,0,7,1,298,473,0,1,1325
26,47,5,7,2,1,0,179,395,0,1,1410.00000000006
26,47,5,7,2,2,4,179,395,0,1,1390.00000000006
26,47,5,7,2,3,3,179,395,0,1,1439
26,47,5,7,2,4,2,179,395,0,1,1418.00000000006
26,47,5,7,2,5,1,179,395,0,1,1205
26,47,5,7,2,6,0,179,395,0,1,1494
26,47,5,7,2,7,0,179,395,0,1,1231
26,48,5,5,0,1,5,334,544,0,1,1582.00000000006
26,48,5,5,0,2,4,334,544,0,1,1164.00000000006
26,48,5,5,0,3,3,334,544,0,1,1646.00000000012
26,48,5,5,0,4,2,334,544,0,1,1449.99999999994
26,48,5,5,0,5,1,334,544,0,1,1200.00000000006
26,49,6,6,0,1,0,54,232,0,1,1329
26,49,6,6,0,2,5,54,232,0,1,1428
26,49,6,6,0,3,4,54,232,0,1,1326
26,49,6,6,0,4,3,54,232,0,1,1206.00000000012
26,49,6,6,0,5,2,54,232,0,1,2073
26,49,6,6,0,6,1,54,232,0,1,1435.00000000012
26,50,5,5,0,1,0,66,244,0,1,1432
26,50,5,5,0,2,4,66,244,0,1,1487
26,50,5,5,0,3,3,66,244,0,1,1409
26,50,5,5,0,4,2,66,244,0,1,1272
26,50,5,5,0,5,1,66,244,0,1,1281
26,51,5,5,0,1,0,7,160,0,1,1383
26,51,5,5,0,2,4,7,160,0,1,1317
26,51,5,5,0,3,3,7,160,0,1,1337.00000000012
26,51,5,5,0,4,2,7,160,0,1,1474
26,51,5,5,0,5,1,7,160,0,1,1308.99999999988
26,52,6,10,4,1,0,8,194,0,1,1318
26,52,6,10,4,2,5,8,194,0,1,1326
26,52,6,10,4,3,4,8,194,0,1,1144
26,52,6,10,4,4,3,8,194,0,1,1287
26,52,6,10,4,5,2,8,194,0,1,1226
26,52,6,10,4,6,1,8,194,0,1,1311
26,52,6,10,4,7,0,8,194,0,1,1307
26,52,6,10,4,8,0,8,194,0,1,1315
26,52,6,10,4,9,0,8,194,0,1,1154
26,52,6,10,4,10,0,8,194,0,1,1309.00000000012
26,53,5,5,0,1,5,70,297,0,1,1445
26,53,5,5,0,2,4,70,297,0,1,1259
26,53,5,5,0,3,3,70,297,0,1,1501.00000000012
26,53,5,5,0,4,2,70,297,0,1,1388
26,53,5,5,0,5,1,70,297,0,1,1328
26,54,6,6,0,1,0,284,456,0,1,1303
26,54,6,6,0,2,5,284,456,0,1,2327.99999999988
26,54,6,6,0,3,4,284,456,0,1,1207
26,54,6,6,0,4,3,284,456,0,1,1424
26,54,6,6,0,5,2,284,456,0,1,1161.00000000012
26,54,6,6,0,6,1,284,456,0,1,1360.00000000012
26,55,6,7,1,1,0,77,297,0,1,1410
26,55,6,7,1,2,5,77,297,0,1,1214
26,55,6,7,1,3,4,77,297,0,1,1217.00000000012
26,55,6,7,1,4,3,77,297,0,1,1220
26,55,6,7,1,5,2,77,297,0,1,1338
26,55,6,7,1,6,1,77,297,0,1,1144
26,55,6,7,1,7,0,77,297,0,1,1408
26,56,7,5,-2,1,7,125,357,0,1,1248
26,56,7,5,-2,2,6,125,357,0,1,1322
26,56,7,5,-2,3,5,125,357,0,1,1282
26,56,7,5,-2,4,4,125,357,0,1,2187.00000000012
26,56,7,5,-2,5,3,125,357,0,1,1295
26,57,6,5,-1,1,2,350,521,0,1,1677.99999999988
26,57,6,5,-1,2,5,350,521,0,1,1255
26,57,6,5,-1,3,4,350,521,0,1,1281.00000000012
26,57,6,5,-1,4,3,350,521,0,1,1600
26,57,6,5,-1,5,2,350,521,0,1,1212.99999999988
26,58,7,7,0,1,1,192,416,0,1,1338
26,58,7,7,0,2,6,192,416,0,1,1329.99999999988
26,58,7,7,0,3,5,192,416,0,1,1370.99999999988
26,58,7,7,0,4,4,192,416,0,1,2428
26,58,7,7,0,5,3,192,416,0,1,1275.99999999988
26,58,7,7,0,6,2,192,416,0,1,1334
26,58,7,7,0,7,1,192,416,0,1,1318.00000000012
26,59,5,2,-3,1,0,184,351,0,1,1328
26,59,5,2,-3,2,4,184,351,0,1,1447
26,60,5,4,-1,1,3,137,335,0,1,1335
26,60,5,4,-1,2,4,137,335,0,1,1357.99999999988
26,60,5,4,-1,3,3,137,335,0,1,1196.00000000012
26,60,5,4,-1,4,2,137,335,0,1,1264
26,61,6,10,4,1,1,10,232,0,1,1350
26,61,6,10,4,2,5,10,232,0,1,1509.99999999988
26,61,6,10,4,3,4,10,232,0,1,1298
26,61,6,10,4,4,3,10,232,0,1,1514
26,61,6,10,4,5,2,10,232,0,1,1435.99999999988
26,61,6,10,4,6,1,10,232,0,1,1282
26,61,6,10,4,7,0,10,232,0,1,1396
26,61,6,10,4,8,0,10,232,0,1,1231
26,61,6,10,4,9,0,10,232,0,1,1239
26,61,6,10,4,10,0,10,232,0,1,1272
26,62,6,6,0,1,6,225,443,0,1,1298
26,62,6,6,0,2,5,225,443,0,1,1250
26,62,6,6,0,3,4,225,443,0,1,1206
26,62,6,6,0,4,3,225,443,0,1,1467
26,62,6,6,0,5,2,225,443,0,1,1538
26,62,6,6,0,6,1,225,443,0,1,1346
26,63,5,3,-2,1,0,254,489,0,1,1400
26,63,5,3,-2,2,4,254,489,0,1,1602.00000000012
26,63,5,3,-2,3,3,254,489,0,1,1471
26,64,7,5,-2,1,2,63,284,0,1,1819
26,64,7,5,-2,2,6,63,284,0,1,1508
26,64,7,5,-2,3,5,63,284,0,1,1323
26,64,7,5,-2,4,4,63,284,0,1,1235
26,64,7,5,-2,5,3,63,284,0,1,1395
26,65,5,8,3,1,2,68,292,0,1,1337
26,65,5,8,3,2,4,68,292,0,1,1209
26,65,5,8,3,3,3,68,292,0,1,1389
26,65,5,8,3,4,2,68,292,0,1,1238
26,65,5,8,3,5,1,68,292,0,1,1304
26,65,5,8,3,6,0,68,292,0,1,2312
26,65,5,8,3,7,0,68,292,0,1,1426
26,65,5,8,3,8,0,68,292,0,1,1219
26,66,7,7,0,1,7,334,517,0,1,1364
26,66,7,7,0,2,6,334,517,0,1,1177
26,66,7,7,0,3,5,334,517,0,1,1342
26,66,7,7,0,4,4,334,517,0,1,1248
26,66,7,7,0,5,3,334,517,0,1,1292
26,66,7,7,0,6,2,334,517,0,1,1228
26,66,7,7,0,7,1,334,517,0,1,1323
26,67,7,7,0,1,0,246,475,0,1,1355
26,67,7,7,0,2,6,246,475,0,1,1360
26,67,7,7,0,3,5,246,475,0,1,1159.00000000012
26,67,7,7,0,4,4,246,475,0,1,1239
26,67,7,7,0,5,3,246,475,0,1,1393
26,67,7,7,0,6,2,246,475,0,1,1234
26,67,7,7,0,7,1,246,475,0,1,2200
26,68,5,5,0,1,0,184,389,0,1,1364.00000000012
26,68,5,5,0,2,4,184,389,0,1,1544
26,68,5,5,0,3,3,184,389,0,1,1398
26,68,5,5,0,4,2,184,389,0,1,1235
26,68,5,5,0,5,1,184,389,0,1,1361.00000000012
26,69,7,7,0,1,0,3,174,0,1,1473
26,69,7,7,0,2,6,3,174,0,1,1269
26,69,7,7,0,3,5,3,174,0,1,1255
26,69,7,7,0,4,4,3,174,0,1,1161
26,69,7,7,0,5,3,3,174,0,1,1491
26,69,7,7,0,6,2,3,174,0,1,1685
26,69,7,7,0,7,1,3,174,0,1,1302
26,70,5,5,0,1,0,145,318,0,1,1473
26,70,5,5,0,2,4,145,318,0,1,1243.00000000012
26,70,5,5,0,3,3,145,318,0,1,1285
26,70,5,5,0,4,2,145,318,0,1,1563
26,70,5,5,0,5,1,145,318,0,1,1892
26,71,5,9,4,1,0,315,469,0,1,1488
26,71,5,9,4,2,4,315,469,0,1,2423
26,71,5,9,4,3,3,315,469,0,1,1519
26,71,5,9,4,4,2,315,469,0,1,1391
26,71,5,9,4,5,1,315,469,0,1,1395.00000000012
26,71,5,9,4,6,0,315,469,0,1,1229
26,71,5,9,4,7,0,315,469,0,1,1947
26,71,5,9,4,8,0,315,469,0,1,1443
26,71,5,9,4,9,0,315,469,0,1,1199.00000000012
26,72,7,6,-1,1,7,337,494,0,1,1331
26,72,7,6,-1,2,6,337,494,0,1,1596
26,72,7,6,-1,3,5,337,494,0,1,1406.00000000012
26,72,7,6,-1,4,4,337,494,0,1,1249.00000000012
26,72,7,6,-1,5,3,337,494,0,1,1609
26,72,7,6,-1,6,2,337,494,0,1,1358
26,73,5,1,-4,1,1,261,487,0,1,1371.99999999988
26,74,5,5,0,1,0,296,470,0,1,1261.00000000012
26,74,5,5,0,2,4,296,470,0,1,1425
26,74,5,5,0,3,3,296,470,0,1,1941
26,74,5,5,0,4,2,296,470,0,1,1273
26,74,5,5,0,5,1,296,470,0,1,1408
26,75,5,4,-1,1,0,285,441,0,1,1277
26,75,5,4,-1,2,4,285,441,0,1,1516
26,75,5,4,-1,3,3,285,441,0,1,1154
26,75,5,4,-1,4,2,285,441,0,1,1257
26,76,6,6,0,1,1,258,466,0,1,2741
26,76,6,6,0,2,5,258,466,0,1,1396.99999999988
26,76,6,6,0,3,4,258,466,0,1,1341
26,76,6,6,0,4,3,258,466,0,1,1243
26,76,6,6,0,5,2,258,466,0,1,1317.99999999988
26,76,6,6,0,6,1,258,466,0,1,1619
26,77,7,4,-3,1,0,149,370,0,1,1463
26,77,7,4,-3,2,6,149,370,0,1,1333
26,77,7,4,-3,3,5,149,370,0,1,1404
26,77,7,4,-3,4,4,149,370,0,1,1319
26,78,7,7,0,1,3,0,230,0,1,1725
26,78,7,7,0,2,6,0,230,0,1,1389.99999999988
26,78,7,7,0,3,5,0,230,0,1,1250
26,78,7,7,0,4,4,0,230,0,1,1280
26,78,7,7,0,5,3,0,230,0,1,1265
26,78,7,7,0,6,2,0,230,0,1,1362
26,78,7,7,0,7,1,0,230,0,1,1462
26,79,6,6,0,1,0,329,527,0,1,1352
26,79,6,6,0,2,5,329,527,0,1,1204.99999999988
26,79,6,6,0,3,4,329,527,0,1,1276.99999999988
26,79,6,6,0,4,3,329,527,0,1,1142
26,79,6,6,0,5,2,329,527,0,1,1221
26,79,6,6,0,6,1,329,527,0,1,1391
26,80,6,6,0,1,0,281,479,0,1,1361
26,80,6,6,0,2,5,281,479,0,1,1264
26,80,6,6,0,3,4,281,479,0,1,1344
26,80,6,6,0,4,3,281,479,0,1,1144
26,80,6,6,0,5,2,281,479,0,1,1341.00000000012
26,80,6,6,0,6,1,281,479,0,1,1227.00000000012
26,81,5,9,4,1,0,133,365,0,1,1989.00000000012
26,81,5,9,4,2,4,133,365,0,1,1356
26,81,5,9,4,3,3,133,365,0,1,1206
26,81,5,9,4,4,2,133,365,0,1,1125
26,81,5,9,4,5,1,133,365,0,1,1179
26,81,5,9,4,6,0,133,365,0,1,1930
26,81,5,9,4,7,0,133,365,0,1,1178
26,81,5,9,4,8,0,133,365,0,1,1237
26,81,5,9,4,9,0,133,365,0,1,1079
26,82,7,7,0,1,7,14,169,0,1,1222.99999999988
26,82,7,7,0,2,6,14,169,0,1,1275.99999999988
26,82,7,7,0,3,5,14,169,0,1,1437
26,82,7,7,0,4,4,14,169,0,1,1420
26,82,7,7,0,5,3,14,169,0,1,2259
26,82,7,7,0,6,2,14,169,0,1,1051
26,82,7,7,0,7,1,14,169,0,1,1128
26,83,7,3,-4,1,0,16,215,0,1,1196
26,83,7,3,-4,2,6,16,215,0,1,1295
26,83,7,3,-4,3,5,16,215,0,1,1159
26,84,5,5,0,1,4,33,203,0,1,1873.99999999988
26,84,5,5,0,2,4,33,203,0,1,1171.00000000012
26,84,5,5,0,3,3,33,203,0,1,957
26,84,5,5,0,4,2,33,203,0,1,996
26,84,5,5,0,5,1,33,203,0,1,1102
26,85,7,7,0,1,0,52,286,0,1,1310
26,85,7,7,0,2,6,52,286,0,1,1068
26,85,7,7,0,3,5,52,286,0,1,1101
26,85,7,7,0,4,4,52,286,0,1,1075
26,85,7,7,0,5,3,52,286,0,1,1142.99999999988
26,85,7,7,0,6,2,52,286,0,1,1077
26,85,7,7,0,7,1,52,286,0,1,1156
26,86,5,5,0,1,0,198,414,0,1,1289
26,86,5,5,0,2,4,198,414,0,1,1702
26,86,5,5,0,3,3,198,414,0,1,1132.99999999988
26,86,5,5,0,4,2,198,414,0,1,1131
26,86,5,5,0,5,1,198,414,0,1,1133
26,87,5,5,0,1,0,146,369,0,1,944
26,87,5,5,0,2,4,146,369,0,1,1029
26,87,5,5,0,3,3,146,369,0,1,919
26,87,5,5,0,4,2,146,369,0,1,1000
26,87,5,5,0,5,1,146,369,0,1,1033.99999999988
26,88,7,10,3,1,0,220,454,0,1,1130.99999999988
26,88,7,10,3,2,6,220,454,0,1,1058
26,88,7,10,3,3,5,220,454,0,1,1073
26,88,7,10,3,4,4,220,454,0,1,1057
26,88,7,10,3,5,3,220,454,0,1,1021
26,88,7,10,3,6,2,220,454,0,1,1712.99999999988
26,88,7,10,3,7,1,220,454,0,1,1160
26,88,7,10,3,8,0,220,454,0,1,1722
26,88,7,10,3,9,0,220,454,0,1,1135.99999999988
26,88,7,10,3,10,0,220,454,0,1,1035.99999999988
26,89,6,6,0,1,6,235,446,0,1,1230.00000000012
26,89,6,6,0,2,5,235,446,0,1,1076.00000000012
26,89,6,6,0,3,4,235,446,0,1,1209.99999999988
26,89,6,6,0,4,3,235,446,0,1,1816
26,89,6,6,0,5,2,235,446,0,1,1122
26,89,6,6,0,6,1,235,446,0,1,1253
26,90,5,2,-3,1,0,27,193,0,1,1188
26,90,5,2,-3,2,4,27,193,0,1,1063
26,91,6,7,1,1,3,200,399,0,1,1387.99999999988
26,91,6,7,1,2,5,200,399,0,1,1111.99999999988
26,91,6,7,1,3,4,200,399,0,1,1399
26,91,6,7,1,4,3,200,399,0,1,1121
26,91,6,7,1,5,2,200,399,0,1,1045.99999999988
26,91,6,7,1,6,1,200,399,0,1,1333
26,91,6,7,1,7,0,200,399,0,1,1154
26,92,6,6,0,1,6,52,225,0,1,1021.99999999988
26,92,6,6,0,2,5,52,225,0,1,1136
26,92,6,6,0,3,4,52,225,0,1,1169
26,92,6,6,0,4,3,52,225,0,1,1060
26,92,6,6,0,5,2,52,225,0,1,1161.99999999988
26,92,6,6,0,6,1,52,225,0,1,1071.00000000012
26,93,5,6,1,1,0,51,209,0,1,1079
26,93,5,6,1,2,4,51,209,0,1,1183
26,93,5,6,1,3,3,51,209,0,1,1158
26,93,5,6,1,4,2,51,209,0,1,1017
26,93,5,6,1,5,1,51,209,0,1,1092.00000000012
26,93,5,6,1,6,0,51,209,0,1,1974
26,94,5,5,0,1,5,24,169,0,1,1285.99999999988
26,94,5,5,0,2,4,24,169,0,1,1157.00000000012
26,94,5,5,0,3,3,24,169,0,1,1057
26,94,5,5,0,4,2,24,169,0,1,1321
26,94,5,5,0,5,1,24,169,0,1,1534
26,95,6,6,0,1,0,151,331,0,1,1122.99999999988
26,95,6,6,0,2,5,151,331,0,1,1000
26,95,6,6,0,3,4,151,331,0,1,1689
26,95,6,6,0,4,3,151,331,0,1,1256
26,95,6,6,0,5,2,151,331,0,1,1120
26,95,6,6,0,6,1,151,331,0,1,955.000000000116
26,96,7,9,2,1,0,139,372,0,1,1124.00000000012
26,96,7,9,2,2,6,139,372,0,1,1075
26,96,7,9,2,3,5,139,372,0,1,1186
26,96,7,9,2,4,4,139,372,0,1,1110
26,96,7,9,2,5,3,139,372,0,1,1075
26,96,7,9,2,6,2,139,372,0,1,1223
26,96,7,9,2,7,1,139,372,0,1,1024
26,96,7,9,2,8,0,139,372,0,1,1235
26,96,7,9,2,9,0,139,372,0,1,1176
17,1,6,6,0,1,6,327,490,0,1,1896
17,1,6,6,0,2,5,327,490,0,1,1613
17,1,6,6,0,3,4,327,490,0,1,1437.99999999999
17,1,6,6,0,4,3,327,490,0,1,1340.00000000001
17,1,6,6,0,5,2,327,490,0,1,1539.00000000001
17,1,6,6,0,6,1,327,490,0,1,1471
17,2,7,11,4,1,0,267,444,0,1,1589
17,2,7,11,4,2,6,267,444,0,1,1224
17,2,7,11,4,3,5,267,444,0,1,1537
17,2,7,11,4,4,4,267,444,0,1,1307
17,2,7,11,4,5,3,267,444,0,1,1354
17,2,7,11,4,6,2,267,444,0,1,1254
17,2,7,11,4,7,1,267,444,0,1,1323.00000000001
17,2,7,11,4,8,0,267,444,0,1,1443
17,2,7,11,4,9,0,267,444,0,1,1323.99999999999
17,2,7,11,4,10,0,267,444,0,1,1239.00000000001
17,2,7,11,4,11,0,267,444,0,1,1225
17,3,5,5,0,1,5,257,469,0,1,1504
17,3,5,5,0,2,4,257,469,0,1,1223
17,3,5,5,0,3,3,257,469,0,1,1357
17,3,5,5,0,4,2,257,469,0,1,1189.99999999999
17,3,5,5,0,5,1,257,469,0,1,1407
17,4,7,7,0,1,0,29,181,0,1,1424
17,4,7,7,0,2,6,29,181,0,1,1240.00000000001
17,4,7,7,0,3,5,29,181,0,1,1140.00000000001
17,4,7,7,0,4,4,29,181,0,1,1342
17,4,7,7,0,5,3,29,181,0,1,1157.00000000001
17,4,7,7,0,6,2,29,181,0,1,1173
17,4,7,7,0,7,1,29,181,0,1,1406.99999999999
17,5,7,7,0,1,0,134,282,0,1,1542
17,5,7,7,0,2,6,134,282,0,1,1140
17,5,7,7,0,3,5,134,282,0,1,1106
17,5,7,7,0,4,4,134,282,0,1,1173
17,5,7,7,0,5,3,134,282,0,1,1224
17,5,7,7,0,6,2,134,282,0,1,1123.00000000001
17,5,7,7,0,7,1,134,282,0,1,1291.00000000004
17,6,5,5,0,1,0,55,236,0,1,1321
17,6,5,5,0,2,4,55,236,0,1,1240.00000000003
17,6,5,5,0,3,3,55,236,0,1,1190
17,6,5,5,0,4,2,55,236,0,1,1209.99999999997
17,6,5,5,0,5,1,55,236,0,1,1175
17,7,5,8,3,1,0,316,496,0,1,1224
17,7,5,8,3,2,4,316,496,0,1,1307
17,7,5,8,3,3,3,316,496,0,1,1209
17,7,5,8,3,4,2,316,496,0,1,1191
17,7,5,8,3,5,1,316,496,0,1,1306
17,7,5,8,3,6,0,316,496,0,1,1174
17,7,5,8,3,7,0,316,496,0,1,1191
17,7,5,8,3,8,0,316,496,0,1,1890.99999999997
17,8,6,10,4,1,6,358,549,0,1,1608
17,8,6,10,4,2,5,358,549,0,1,1173
17,8,6,10,4,3,4,358,549,0,1,1908
17,8,6,10,4,4,3,358,549,0,1,1288
17,8,6,10,4,5,2,358,549,0,1,1324
17,8,6,10,4,6,1,358,549,0,1,1242
17,8,6,10,4,7,0,358,549,0,1,1457
17,8,6,10,4,8,0,358,549,0,1,1191
17,8,6,10,4,9,0,358,549,0,1,1790
17,8,6,10,4,10,0,358,549,0,1,1393
17,9,5,6,1,1,5,289,501,0,1,1193
17,9,5,6,1,2,4,289,501,0,1,1206
17,9,5,6,1,3,3,289,501,0,1,1271.99999999997
17,9,5,6,1,4,2,289,501,0,1,1756
17,9,5,6,1,5,1,289,501,0,1,1193
17,9,5,6,1,6,0,289,501,0,1,2907
17,10,5,5,0,1,5,333,545,0,1,1556
17,10,5,5,0,2,4,333,545,0,1,1141
17,10,5,5,0,3,3,333,545,0,1,1142
17,10,5,5,0,4,2,333,545,0,1,1438
17,10,5,5,0,5,1,333,545,0,1,1358
17,11,6,7,1,1,0,150,302,0,1,1441.00000000003
17,11,6,7,1,2,5,150,302,0,1,1442
17,11,6,7,1,3,4,150,302,0,1,1225.00000000003
17,11,6,7,1,4,3,150,302,0,1,1305
17,11,6,7,1,5,2,150,302,0,1,1292
17,11,6,7,1,6,1,150,302,0,1,1243
17,11,6,7,1,7,0,150,302,0,1,1259
17,12,6,6,0,1,6,351,530,0,1,1158
17,12,6,6,0,2,5,351,530,0,1,1210
17,12,6,6,0,3,4,351,530,0,1,1143
17,12,6,6,0,4,3,351,530,0,1,1176
17,12,6,6,0,5,2,351,530,0,1,1179
17,12,6,6,0,6,1,351,530,0,1,1139
17,13,6,5,-1,1,0,208,407,0,1,1276.00000000003
17,13,6,5,-1,2,5,208,407,0,1,1392
17,13,6,5,-1,3,4,208,407,0,1,1292
17,13,6,5,-1,4,3,208,407,0,1,1126
17,13,6,5,-1,5,2,208,407,0,1,1377
17,14,7,10,3,1,1,182,340,0,1,1261
17,14,7,10,3,2,6,182,340,0,1,1307.00000000003
17,14,7,10,3,3,5,182,340,0,1,1275
17,14,7,10,3,4,4,182,340,0,1,1292.99999999997
17,14,7,10,3,5,3,182,340,0,1,1275.99999999997
17,14,7,10,3,6,2,182,340,0,1,1276
17,14,7,10,3,7,1,182,340,0,1,1293
17,14,7,10,3,8,0,182,340,0,1,1344
17,14,7,10,3,9,0,182,340,0,1,1308
17,14,7,10,3,10,0,182,340,0,1,1256
17,15,5,8,3,1,5,172,379,0,1,1527.99999999997
17,15,5,8,3,2,4,172,379,0,1,1326
17,15,5,8,3,3,3,172,379,0,1,1307.99999999997
17,15,5,8,3,4,2,172,379,0,1,1343
17,15,5,8,3,5,1,172,379,0,1,1374
17,15,5,8,3,6,0,172,379,0,1,1192
17,15,5,8,3,7,0,172,379,0,1,1644
17,15,5,8,3,8,0,172,379,0,1,1193
17,16,6,6,0,1,6,256,406,0,1,1309
17,16,6,6,0,2,5,256,406,0,1,1474
17,16,6,6,0,3,4,256,406,0,1,1241.99999999997
17,16,6,6,0,4,3,256,406,0,1,1094
17,16,6,6,0,5,2,256,406,0,1,1460.00000000003
17,16,6,6,0,6,1,256,406,0,1,1210
17,17,7,7,0,1,0,41,254,0,1,2818.99999999997
17,17,7,7,0,2,6,41,254,0,1,1193
17,17,7,7,0,3,5,41,254,0,1,1208
17,17,7,7,0,4,4,41,254,0,1,1161
17,17,7,7,0,5,3,41,254,0,1,1143
17,17,7,7,0,6,2,41,254,0,1,1144.00000000003
17,17,7,7,0,7,1,41,254,0,1,1463
17,18,6,2,-4,1,0,168,328,0,1,1140
17,18,6,2,-4,2,5,168,328,0,1,1909
17,19,7,7,0,1,4,90,299,0,1,1527.99999999997
17,19,7,7,0,2,6,90,299,0,1,1175
17,19,7,7,0,3,5,90,299,0,1,1511.00000000003
17,19,7,7,0,4,4,90,299,0,1,1177.99999999997
17,19,7,7,0,5,3,90,299,0,1,1245
17,19,7,7,0,6,2,90,299,0,1,1229.00000000003
17,19,7,7,0,7,1,90,299,0,1,1245
17,20,5,7,2,1,0,288,462,0,1,1443
17,20,5,7,2,2,4,288,462,0,1,1242
17,20,5,7,2,3,3,288,462,0,1,1327
17,20,5,7,2,4,2,288,462,0,1,1244
17,20,5,7,2,5,1,288,462,0,1,1292
17,20,5,7,2,6,0,288,462,0,1,1128
17,20,5,7,2,7,0,288,462,0,1,1448
17,21,5,5,0,1,5,316,513,0,1,1209
17,21,5,5,0,2,4,316,513,0,1,1179
17,21,5,5,0,3,3,316,513,0,1,1177
17,21,5,5,0,4,2,316,513,0,1,1246
17,21,5,5,0,5,1,316,513,0,1,1296
17,22,6,6,0,1,0,333,562,0,1,1278
17,22,6,6,0,2,5,333,562,0,1,1294
17,22,6,6,0,3,4,333,562,0,1,1210
17,22,6,6,0,4,3,333,562,0,1,1243.99999999994
17,22,6,6,0,5,2,333,562,0,1,1395
17,22,6,6,0,6,1,333,562,0,1,1128
17,23,6,9,3,1,0,4,150,0,1,1262
17,23,6,9,3,2,5,4,150,0,1,1295
17,23,6,9,3,3,4,4,150,0,1,1227.00000000006
17,23,6,9,3,4,3,4,150,0,1,1611
17,23,6,9,3,5,2,4,150,0,1,1262
17,23,6,9,3,6,1,4,150,0,1,1445
17,23,6,9,3,7,0,4,150,0,1,1227
17,23,6,9,3,8,0,4,150,0,1,1512
17,23,6,9,3,9,0,4,150,0,1,1426
17,24,6,5,-1,1,6,230,390,0,1,1227.99999999994
17,24,6,5,-1,2,5,230,390,0,1,1509.99999999994
17,24,6,5,-1,3,4,230,390,0,1,1277.00000000006
17,24,6,5,-1,4,3,230,390,0,1,1060
17,24,6,5,-1,5,2,230,390,0,1,1878
17,25,5,9,4,1,1,43,200,0,1,1412
17,25,5,9,4,2,4,43,200,0,1,1446
17,25,5,9,4,3,3,43,200,0,1,1231
17,25,5,9,4,4,2,43,200,0,1,1162
17,25,5,9,4,5,1,43,200,0,1,1494
17,25,5,9,4,6,0,43,200,0,1,1210
17,25,5,9,4,7,0,43,200,0,1,1162
17,25,5,9,4,8,0,43,200,0,1,1360
17,25,5,9,4,9,0,43,200,0,1,1274
17,26,6,6,0,1,6,40,208,0,1,1461
17,26,6,6,0,2,5,40,208,0,1,1725
17,26,6,6,0,3,4,40,208,0,1,1562
17,26,6,6,0,4,3,40,208,0,1,1242
17,26,6,6,0,5,2,40,208,0,1,1196
17,26,6,6,0,6,1,40,208,0,1,1363
17,27,6,10,4,1,0,206,370,0,1,1596
17,27,6,10,4,2,5,206,370,0,1,1230
17,27,6,10,4,3,4,206,370,0,1,1927.99999999994
17,27,6,10,4,4,3,206,370,0,1,2497
17,27,6,10,4,5,2,206,370,0,1,1797
17,27,6,10,4,6,1,206,370,0,1,1244.99999999994
17,27,6,10,4,7,0,206,370,0,1,1378
17,27,6,10,4,8,0,206,370,0,1,1463
17,27,6,10,4,9,0,206,370,0,1,1402
17,27,6,10,4,10,0,206,370,0,1,1296
17,28,7,8,1,1,7,182,331,0,1,1279.99999999994
17,28,7,8,1,2,6,182,331,0,1,1163
17,28,7,8,1,3,5,182,331,0,1,1310
17,28,7,8,1,4,4,182,331,0,1,1197
17,28,7,8,1,5,3,182,331,0,1,1146
17,28,7,8,1,6,2,182,331,0,1,1263
17,28,7,8,1,7,1,182,331,0,1,995.999999999942
17,28,7,8,1,8,0,182,331,0,1,1314
17,29,7,7,0,1,7,111,306,0,1,1497
17,29,7,7,0,2,6,111,306,0,1,1225
17,29,7,7,0,3,5,111,306,0,1,1111.99999999994
17,29,7,7,0,4,4,111,306,0,1,1146
17,29,7,7,0,5,3,111,306,0,1,1181
17,29,7,7,0,6,2,111,306,0,1,1346
17,29,7,7,0,7,1,111,306,0,1,1241
17,30,6,7,1,1,0,92,309,0,1,1661
17,30,6,7,1,2,5,92,309,0,1,1197
17,30,6,7,1,3,4,92,309,0,1,1147
17,30,6,7,1,4,3,92,309,0,1,1163.99999999994
17,30,6,7,1,5,2,92,309,0,1,1214
17,30,6,7,1,6,1,92,309,0,1,1196
17,30,6,7,1,7,0,92,309,0,1,1244.99999999994
17,31,7,9,2,1,7,284,495,0,1,1276.99999999994
17,31,7,9,2,2,6,284,495,0,1,1726.99999999994
17,31,7,9,2,3,5,284,495,0,1,1313
17,31,7,9,2,4,4,284,495,0,1,1212
17,31,7,9,2,5,3,284,495,0,1,1380
17,31,7,9,2,6,2,284,495,0,1,1224
17,31,7,9,2,7,1,284,495,0,1,1115
17,31,7,9,2,8,0,284,495,0,1,1732.00000000006
17,31,7,9,2,9,0,284,495,0,1,1529
17,32,6,4,-2,1,6,226,437,0,1,1197.99999999994
17,32,6,4,-2,2,5,226,437,0,1,1229.99999999994
17,32,6,4,-2,3,4,226,437,0,1,992
17,32,6,4,-2,4,3,226,437,0,1,1166
17,33,5,5,0,1,2,128,338,0,1,1364
17,33,5,5,0,2,4,128,338,0,1,1197
17,33,5,5,0,3,3,128,338,0,1,1196
17,33,5,5,0,4,2,128,338,0,1,1314
17,33,5,5,0,5,1,128,338,0,1,1163
17,34,7,7,0,1,0,11,184,0,1,1463
17,34,7,7,0,2,6,11,184,0,1,1148
17,34,7,7,0,3,5,11,184,0,1,1179
17,34,7,7,0,4,4,11,184,0,1,1048
17,34,7,7,0,5,3,11,184,0,1,1078
17,34,7,7,0,6,2,11,184,0,1,1330
17,34,7,7,0,7,1,11,184,0,1,1231
17,35,7,3,-4,1,0,343,516,0,1,1148
17,35,7,3,-4,2,6,343,516,0,1,1164
17,35,7,3,-4,3,5,343,516,0,1,1216
17,36,5,5,0,1,4,296,472,0,1,1198.00000000006
17,36,5,5,0,2,4,296,472,0,1,1163.99999999994
17,36,5,5,0,3,3,296,472,0,1,1447
17,36,5,5,0,4,2,296,472,0,1,1245
17,36,5,5,0,5,1,296,472,0,1,1163
17,37,7,7,0,1,0,322,542,0,1,1296.99999999994
17,37,7,7,0,2,6,322,542,0,1,1163.99999999994
17,37,7,7,0,3,5,322,542,0,1,1414
17,37,7,7,0,4,4,322,542,0,1,1399.99999999994
17,37,7,7,0,5,3,322,542,0,1,1214
17,37,7,7,0,6,2,322,542,0,1,1215.00000000006
17,37,7,7,0,7,1,322,542,0,1,1249
17,38,6,6,0,1,0,164,333,0,1,1599
17,38,6,6,0,2,5,164,333,0,1,1131.99999999994
17,38,6,6,0,3,4,164,333,0,1,1232.00000000006
17,38,6,6,0,4,3,164,333,0,1,1281
17,38,6,6,0,5,2,164,333,0,1,1213
17,38,6,6,0,6,1,164,333,0,1,1182.99999999994
17,39,6,2,-4,1,0,52,273,0,1,1142
17,39,6,2,-4,2,5,52,273,0,1,1082
17,40,7,4,-3,1,4,357,545,0,1,1566
17,40,7,4,-3,2,6,357,545,0,1,1199.00000000006
17,40,7,4,-3,3,5,357,545,0,1,1264.99999999994
17,40,7,4,-3,4,4,357,545,0,1,1850.00000000006
17,41,5,9,4,1,3,329,492,0,1,1267
17,41,5,9,4,2,4,329,492,0,1,1114
17,41,5,9,4,3,3,329,492,0,1,1297
17,41,5,9,4,4,2,329,492,0,1,1616
17,41,5,9,4,5,1,329,492,0,1,1233
17,41,5,9,4,6,0,329,492,0,1,1181
17,41,5,9,4,7,0,329,492,0,1,1098
17,41,5,9,4,8,0,329,492,0,1,1115.99999999994
17,41,5,9,4,9,0,329,492,0,1,1264.00000000006
17,42,5,3,-2,1,5,84,291,0,1,1333
17,42,5,3,-2,2,4,84,291,0,1,1181
17,42,5,3,-2,3,3,84,291,0,1,1163
17,43,7,7,0,1,2,316,533,0,1,1166
17,43,7,7,0,2,6,316,533,0,1,1432.99999999994
17,43,7,7,0,3,5,316,533,0,1,1549
17,43,7,7,0,4,4,316,533,0,1,1315
17,43,7,7,0,5,3,316,533,0,1,1150
17,43,7,7,0,6,2,316,533,0,1,1216.99999999994
17,43,7,7,0,7,1,316,533,0,1,1503
17,44,7,7,0,1,0,18,244,0,1,1832
17,44,7,7,0,2,6,18,244,0,1,1246
17,44,7,7,0,3,5,18,244,0,1,1215.00000000006
17,44,7,7,0,4,4,18,244,0,1,1114.99999999994
17,44,7,7,0,5,3,18,244,0,1,1166
17,44,7,7,0,6,2,18,244,0,1,1801
17,44,7,7,0,7,1,18,244,0,1,1133.00000000006
17,45,5,5,0,1,0,355,562,0,1,1264.99999999994
17,45,5,5,0,2,4,355,562,0,1,1749
17,45,5,5,0,3,3,355,562,0,1,1133.00000000006
17,45,5,5,0,4,2,355,562,0,1,1134.00000000006
17,45,5,5,0,5,1,355,562,0,1,1102
17,46,7,3,-4,1,0,110,258,0,1,1916
17,46,7,3,-4,2,6,110,258,0,1,1351
17,46,7,3,-4,3,5,110,258,0,1,1433.99999999994
17,47,6,6,0,1,4,210,410,0,1,1399
17,47,6,6,0,2,5,210,410,0,1,1162
17,47,6,6,0,3,4,210,410,0,1,1315
17,47,6,6,0,4,3,210,410,0,1,1399
17,47,6,6,0,5,2,210,410,0,1,1250
17,47,6,6,0,6,1,210,410,0,1,2001
17,48,6,6,0,1,0,140,301,0,1,1364.99999999994
17,48,6,6,0,2,5,140,301,0,1,1177
17,48,6,6,0,3,4,140,301,0,1,1158
17,48,6,6,0,4,3,140,301,0,1,1697
17,48,6,6,0,5,2,140,301,0,1,1300.99999999994
17,48,6,6,0,6,1,140,301,0,1,1220
17,49,5,2,-3,1,0,203,425,0,1,1330
17,49,5,2,-3,2,4,203,425,0,1,1180.99999999994
17,50,5,5,0,1,3,355,519,0,1,2083.00000000006
17,50,5,5,0,2,4,355,519,0,1,1168
17,50,5,5,0,3,3,355,519,0,1,1251
17,50,5,5,0,4,2,355,519,0,1,1533
17,50,5,5,0,5,1,355,519,0,1,1116.00000000012
17,51,7,6,-1,1,0,265,422,0,1,1534
17,51,7,6,-1,2,6,265,422,0,1,1252.00000000006
17,51,7,6,-1,3,5,265,422,0,1,1500.99999999994
17,51,7,6,-1,4,4,265,422,0,1,1117
17,51,7,6,-1,5,3,265,422,0,1,1034.99999999994
17,51,7,6,-1,6,2,265,422,0,1,1317.99999999994
17,52,7,7,0,1,1,85,305,0,1,1635
17,52,7,7,0,2,6,85,305,0,1,1735
17,52,7,7,0,3,5,85,305,0,1,1319
17,52,7,7,0,4,4,85,305,0,1,1585
17,52,7,7,0,5,3,85,305,0,1,1200.00000000012
17,52,7,7,0,6,2,85,305,0,1,1201
17,52,7,7,0,7,1,85,305,0,1,1183
17,53,6,6,0,1,0,24,256,0,1,1733
17,53,6,6,0,2,5,24,256,0,1,1184
17,53,6,6,0,3,4,24,256,0,1,1500
17,53,6,6,0,4,3,24,256,0,1,1603
17,53,6,6,0,5,2,24,256,0,1,1186
17,53,6,6,0,6,1,24,256,0,1,1502
17,54,7,10,3,1,0,30,197,0,1,1285
17,54,7,10,3,2,6,30,197,0,1,1267
17,54,7,10,3,3,5,30,197,0,1,1153
17,54,7,10,3,4,4,30,197,0,1,1368
17,54,7,10,3,5,3,30,197,0,1,1421
17,54,7,10,3,6,2,30,197,0,1,1118
17,54,7,10,3,7,1,30,197,0,1,1118
17,54,7,10,3,8,0,30,197,0,1,1218
17,54,7,10,3,9,0,30,197,0,1,1136
17,54,7,10,3,10,0,30,197,0,1,1385
17,55,5,2,-3,1,5,134,289,0,1,1508.00000000012
17,55,5,2,-3,2,4,134,289,0,1,1154
17,56,6,8,2,1,3,329,509,0,1,1416
17,56,6,8,2,2,5,329,509,0,1,1567
17,56,6,8,2,3,4,329,509,0,1,1036
17,56,6,8,2,4,3,329,509,0,1,1451
17,56,6,8,2,5,2,329,509,0,1,1519
17,56,6,8,2,6,1,329,509,0,1,1385
17,56,6,8,2,7,0,329,509,0,1,1218
17,56,6,8,2,8,0,329,509,0,1,1187
17,57,5,5,0,1,5,16,193,0,1,1350
17,57,5,5,0,2,4,16,193,0,1,1202
17,57,5,5,0,3,3,16,193,0,1,1085.99999999988
17,57,5,5,0,4,2,16,193,0,1,1686
17,57,5,5,0,5,1,16,193,0,1,1269
17,58,5,5,0,1,0,57,288,0,1,1933.99999999988
17,58,5,5,0,2,4,57,288,0,1,1269
17,58,5,5,0,3,3,57,288,0,1,1170
17,58,5,5,0,4,2,57,288,0,1,1153
17,58,5,5,0,5,1,57,288,0,1,1153
17,59,6,6,0,1,0,112,344,0,1,1753.00000000012
17,59,6,6,0,2,5,112,344,0,1,1752.99999999988
17,59,6,6,0,3,4,112,344,0,1,1351
17,59,6,6,0,4,3,112,344,0,1,2003.99999999988
17,59,6,6,0,5,2,112,344,0,1,1702.99999999988
17,59,6,6,0,6,1,112,344,0,1,1185
17,60,5,5,0,1,0,336,536,0,1,2005
17,60,5,5,0,2,4,336,536,0,1,1156.99999999988
17,60,5,5,0,3,3,336,536,0,1,1474
17,60,5,5,0,4,2,336,536,0,1,1407
17,60,5,5,0,5,1,336,536,0,1,1192
17,61,6,6,0,1,0,134,367,0,1,1456
17,61,6,6,0,2,5,134,367,0,1,1208
17,61,6,6,0,3,4,134,367,0,1,1307
17,61,6,6,0,4,3,134,367,0,1,1293
17,61,6,6,0,5,2,134,367,0,1,1310
17,61,6,6,0,6,1,134,367,0,1,1157
17,62,7,9,2,1,0,95,317,0,1,1126
17,62,7,9,2,2,6,95,317,0,1,1075.99999999988
17,62,7,9,2,3,5,95,317,0,1,1060
17,62,7,9,2,4,4,95,317,0,1,1194
17,62,7,9,2,5,3,95,317,0,1,1209.99999999988
17,62,7,9,2,6,2,95,317,0,1,1177
17,62,7,9,2,7,1,95,317,0,1,1176
17,62,7,9,2,8,0,95,317,0,1,1295
17,62,7,9,2,9,0,95,317,0,1,1194
17,63,5,3,-2,1,5,298,498,0,1,1356
17,63,5,3,-2,2,4,298,498,0,1,1225
17,63,5,3,-2,3,3,298,498,0,1,1159
17,64,5,5,0,1,2,331,480,0,1,1229
17,64,5,5,0,2,4,331,480,0,1,1061
17,64,5,5,0,3,3,331,480,0,1,1228
17,64,5,5,0,4,2,331,480,0,1,1460
17,64,5,5,0,5,1,331,480,0,1,1228
17,65,5,1,-4,1,0,328,479,0,1,1476.99999999988
17,66,5,4,-1,1,5,22,216,0,1,1144
17,66,5,4,-1,2,4,22,216,0,1,1110.99999999988
17,66,5,4,-1,3,3,22,216,0,1,1159
17,66,5,4,-1,4,2,22,216,0,1,1920
17,67,5,5,0,1,1,309,537,0,1,1055
17,67,5,5,0,2,4,309,537,0,1,1143
17,67,5,5,0,3,3,309,537,0,1,1712
17,67,5,5,0,4,2,309,537,0,1,1797.00000000012
17,67,5,5,0,5,1,309,537,0,1,1209.00000000012
17,68,6,9,3,1,0,250,449,0,1,1080
17,68,6,9,3,2,5,250,449,0,1,1095
17,68,6,9,3,3,4,250,449,0,1,1181
17,68,6,9,3,4,3,250,449,0,1,1229
17,68,6,9,3,5,2,250,449,0,1,1431
17,68,6,9,3,6,1,250,449,0,1,1046
17,68,6,9,3,7,0,250,449,0,1,1112
17,68,6,9,3,8,0,250,449,0,1,1095
17,68,6,9,3,9,0,250,449,0,1,1696
17,69,7,8,1,1,7,247,472,0,1,1797
17,69,7,8,1,2,6,247,472,0,1,1248
17,69,7,8,1,3,5,247,472,0,1,1395
17,69,7,8,1,4,4,247,472,0,1,1296
17,69,7,8,1,5,3,247,472,0,1,1228.99999999988
17,69,7,8,1,6,2,247,472,0,1,1194
17,69,7,8,1,7,1,247,472,0,1,1264
17,69,7,8,1,8,0,247,472,0,1,1142
17,70,5,7,2,1,5,354,510,0,1,1346.99999999988
17,70,5,7,2,2,4,354,510,0,1,1242.99999999988
17,70,5,7,2,3,3,354,510,0,1,1162
17,70,5,7,2,4,2,354,510,0,1,1180.99999999988
17,70,5,7,2,5,1,354,510,0,1,1692
17,70,5,7,2,6,0,354,510,0,1,1197
17,70,5,7,2,7,0,354,510,0,1,1216
17,71,5,6,1,1,5,40,256,0,1,1198.00000000012
17,71,5,6,1,2,4,40,256,0,1,1177
17,71,5,6,1,3,3,40,256,0,1,1205
17,71,5,6,1,4,2,40,256,0,1,1263
17,71,5,6,1,5,1,40,256,0,1,1164.00000000012
17,71,5,6,1,6,0,40,256,0,1,2031
17,72,6,6,0,1,6,98,278,0,1,1597.00000000012
17,72,6,6,0,2,5,98,278,0,1,1147
17,72,6,6,0,3,4,98,278,0,1,1146
17,72,6,6,0,4,3,98,278,0,1,1029
17,72,6,6,0,5,2,98,278,0,1,1246
17,72,6,6,0,6,1,98,278,0,1,1692
17,73,7,7,0,1,0,342,535,0,1,1181.99999999988
17,73,7,7,0,2,6,342,535,0,1,1913
17,73,7,7,0,3,5,342,535,0,1,1115
17,73,7,7,0,4,4,342,535,0,1,1248
17,73,7,7,0,5,3,342,535,0,1,1196.00000000012
17,73,7,7,0,6,2,342,535,0,1,1747
17,73,7,7,0,7,1,342,535,0,1,1198.00000000012
17,74,7,5,-2,1,0,107,326,0,1,1563.00000000012
17,74,7,5,-2,2,6,107,326,0,1,1096
17,74,7,5,-2,3,5,107,326,0,1,1247
17,74,7,5,-2,4,4,107,326,0,1,1248
17,74,7,5,-2,5,3,107,326,0,1,1314
17,75,5,5,0,1,2,18,180,0,1,1515
17,75,5,5,0,2,4,18,180,0,1,1182
17,75,5,5,0,3,3,18,180,0,1,1032
17,75,5,5,0,4,2,18,180,0,1,1216
17,75,5,5,0,5,1,18,180,0,1,1098
17,76,7,11,4,1,0,162,371,0,1,1399
17,76,7,11,4,2,6,162,371,0,1,1180
17,76,7,11,4,3,5,162,371,0,1,1211.99999999988
17,76,7,11,4,4,4,162,371,0,1,1197
17,76,7,11,4,5,3,162,371,0,1,1147
17,76,7,11,4,6,2,162,371,0,1,1316
17,76,7,11,4,7,1,162,371,0,1,1234.00000000012
17,76,7,11,4,8,0,162,371,0,1,1114
17,76,7,11,4,9,0,162,371,0,1,1197
17,76,7,11,4,10,0,162,371,0,1,1144
17,76,7,11,4,11,0,162,371,0,1,1446
17,77,5,1,-4,1,5,284,462,0,1,1481
17,78,7,7,0,1,4,12,242,0,1,1280
17,78,7,7,0,2,6,12,242,0,1,1180
17,78,7,7,0,3,5,12,242,0,1,1082
17,78,7,7,0,4,4,12,242,0,1,1196
17,78,7,7,0,5,3,12,242,0,1,1881
17,78,7,7,0,6,2,12,242,0,1,1315
17,78,7,7,0,7,1,12,242,0,1,1180
17,79,6,8,2,1,0,336,485,0,1,1480
17,79,6,8,2,2,5,336,485,0,1,1133
17,79,6,8,2,3,4,336,485,0,1,1308
17,79,6,8,2,4,3,336,485,0,1,1200
17,79,6,8,2,5,2,336,485,0,1,1198
17,79,6,8,2,6,1,336,485,0,1,1165.99999999988
17,79,6,8,2,7,0,336,485,0,1,1239
17,79,6,8,2,8,0,336,485,0,1,1346
17,80,7,7,0,1,7,260,435,0,1,1150
17,80,7,7,0,2,6,260,435,0,1,1182
17,80,7,7,0,3,5,260,435,0,1,1227.99999999988
17,80,7,7,0,4,4,260,435,0,1,1197.99999999988
17,80,7,7,0,5,3,260,435,0,1,1182
17,80,7,7,0,6,2,260,435,0,1,1281.99999999988
17,80,7,7,0,7,1,260,435,0,1,1232
17,81,7,5,-2,1,0,27,237,0,1,1263
17,81,7,5,-2,2,6,27,237,0,1,1149.99999999988
17,81,7,5,-2,3,5,27,237,0,1,1649
17,81,7,5,-2,4,4,27,237,0,1,1298
17,81,7,5,-2,5,3,27,237,0,1,1133.00000000012
17,82,7,7,0,1,2,151,354,0,1,1198
17,82,7,7,0,2,6,151,354,0,1,1632.99999999988
17,82,7,7,0,3,5,151,354,0,1,1734
17,82,7,7,0,4,4,151,354,0,1,1798
17,82,7,7,0,5,3,151,354,0,1,1150
17,82,7,7,0,6,2,151,354,0,1,1015
17,82,7,7,0,7,1,151,354,0,1,1184.00000000012
17,83,5,4,-1,1,0,191,411,0,1,1348
17,83,5,4,-1,2,4,191,411,0,1,1250
17,83,5,4,-1,3,3,191,411,0,1,1498
17,83,5,4,-1,4,2,191,411,0,1,1682
17,84,5,5,0,1,1,255,433,0,1,1351
17,84,5,5,0,2,4,255,433,0,1,1267
17,84,5,5,0,3,3,255,433,0,1,1267
17,84,5,5,0,4,2,255,433,0,1,1335
17,84,5,5,0,5,1,255,433,0,1,1150
17,85,6,6,0,1,0,169,364,0,1,1266
17,85,6,6,0,2,5,169,364,0,1,1217
17,85,6,6,0,3,4,169,364,0,1,1234.00000000012
17,85,6,6,0,4,3,169,364,0,1,1817.99999999988
17,85,6,6,0,5,2,169,364,0,1,1550
17,85,6,6,0,6,1,169,364,0,1,1105.00000000012
17,86,6,6,0,1,0,264,467,0,1,1383.00000000012
17,86,6,6,0,2,5,264,467,0,1,1199.99999999988
17,86,6,6,0,3,4,264,467,0,1,1183.00000000012
17,86,6,6,0,4,3,264,467,0,1,1448
17,86,6,6,0,5,2,264,467,0,1,1750
17,86,6,6,0,6,1,264,467,0,1,1252.00000000012
17,87,6,3,-3,1,0,4,206,0,1,1485
17,87,6,3,-3,2,5,4,206,0,1,1135
17,87,6,3,-3,3,4,4,206,0,1,1167
17,88,7,7,0,1,3,236,432,0,1,1269.00000000012
17,88,7,7,0,2,6,236,432,0,1,1199
17,88,7,7,0,3,5,236,432,0,1,1202
17,88,7,7,0,4,4,236,432,0,1,1166
17,88,7,7,0,5,3,236,432,0,1,1483
17,88,7,7,0,6,2,236,432,0,1,1216.99999999988
17,88,7,7,0,7,1,236,432,0,1,1201.00000000012
17,89,7,7,0,1,0,220,407,0,1,1185
17,89,7,7,0,2,6,220,407,0,1,1748
17,89,7,7,0,3,5,220,407,0,1,1151
17,89,7,7,0,4,4,220,407,0,1,1301
17,89,7,7,0,5,3,220,407,0,1,1651
17,89,7,7,0,6,2,220,407,0,1,1153.00000000012
17,89,7,7,0,7,1,220,407,0,1,1368
17,90,6,6,0,1,0,196,376,0,1,1169
17,90,6,6,0,2,5,196,376,0,1,1368
17,90,6,6,0,3,4,196,376,0,1,1268
17,90,6,6,0,4,3,196,376,0,1,1201
17,90,6,6,0,5,2,196,376,0,1,1100.00000000012
17,90,6,6,0,6,1,196,376,0,1,1118
17,91,7,4,-3,1,0,98,320,0,1,1283
17,91,7,4,-3,2,6,98,320,0,1,1268
17,91,7,4,-3,3,5,98,320,0,1,1217
17,91,7,4,-3,4,4,98,320,0,1,1118
17,92,5,5,0,1,3,55,281,0,1,1218
17,92,5,5,0,2,4,55,281,0,1,1218
17,92,5,5,0,3,3,55,281,0,1,1150.99999999988
17,92,5,5,0,4,2,55,281,0,1,1202
17,92,5,5,0,5,1,55,281,0,1,1451
17,93,6,4,-2,1,0,161,363,0,1,1653
17,93,6,4,-2,2,5,161,363,0,1,1217
17,93,6,4,-2,3,4,161,363,0,1,1233
17,93,6,4,-2,4,3,161,363,0,1,1133.00000000012
17,94,6,3,-3,1,2,311,537,0,1,1302
17,94,6,3,-3,2,5,311,537,0,1,1101
17,94,6,3,-3,3,4,311,537,0,1,1151
17,95,6,6,0,1,3,339,545,0,1,1132
17,95,6,6,0,2,5,339,545,0,1,1015.99999999988
17,95,6,6,0,3,4,339,545,0,1,1268.00000000012
17,95,6,6,0,4,3,339,545,0,1,1249.00000000012
17,95,6,6,0,5,2,339,545,0,1,1179
17,95,6,6,0,6,1,339,545,0,1,1087.00000000012
17,96,7,6,-1,1,0,292,510,0,1,1183
17,96,7,6,-1,2,6,292,510,0,1,1135.00000000012
17,96,7,6,-1,3,5,292,510,0,1,1220
17,96,7,6,-1,4,4,292,510,0,1,1115
17,96,7,6,-1,5,3,292,510,0,1,1168
17,96,7,6,-1,6,2,292,510,0,1,1382
24,1,7,3,-4,1,7,302,451,0,1,1767.30000000447
24,1,7,3,-4,2,6,302,451,0,1,1332.10000000149
24,1,7,3,-4,3,5,302,451,0,1,1533
24,2,7,7,0,1,4,246,412,0,1,1365.60000000149
24,2,7,7,0,2,6,246,412,0,1,1299.20000000298
24,2,7,7,0,3,5,246,412,0,1,1216.60000000149
24,2,7,7,0,4,4,246,412,0,1,1332.30000000447
24,2,7,7,0,5,3,246,412,0,1,1132.80000000447
24,2,7,7,0,6,2,246,412,0,1,1232.5
24,2,7,7,0,7,1,246,412,0,1,1183.30000000447
24,3,5,6,1,1,0,308,489,0,1,1333.10000000149
24,3,5,6,1,2,4,308,489,0,1,1316.29999999702
24,3,5,6,1,3,3,308,489,0,1,1150.5
24,3,5,6,1,4,2,308,489,0,1,1199.79999999702
24,3,5,6,1,5,1,308,489,0,1,1216.5
24,3,5,6,1,6,0,308,489,0,1,1250.80000000447
24,4,6,8,2,1,6,354,583,0,1,1567.10000000149
24,4,6,8,2,2,5,354,583,0,1,1133.59999999404
24,4,6,8,2,3,4,354,583,0,1,1117.19999999553
24,4,6,8,2,4,3,354,583,0,1,1283.69999999553
24,4,6,8,2,5,2,354,583,0,1,1195.60000000149
24,4,6,8,2,6,1,354,583,0,1,1133.79999999702
24,4,6,8,2,7,0,354,583,0,1,1179.20000000298
24,4,6,8,2,8,0,354,583,0,1,1165.20000000298
24,5,7,9,2,1,7,97,266,0,1,1430.29999999702
24,5,7,9,2,2,6,97,266,0,1,1167
24,5,7,9,2,3,5,97,266,0,1,1683.80000000447
24,5,7,9,2,4,4,97,266,0,1,1249.60000000149
24,5,7,9,2,5,3,97,266,0,1,1333.79999999702
24,5,7,9,2,6,2,97,266,0,1,1282.89999999851
24,5,7,9,2,7,1,97,266,0,1,1283.5
24,5,7,9,2,8,0,97,266,0,1,1166.5
24,5,7,9,2,9,0,97,266,0,1,966.80000000447
24,6,6,6,0,1,6,191,393,0,1,1783.5
24,6,6,6,0,2,5,191,393,0,1,1300.19999999553
24,6,6,6,0,3,4,191,393,0,1,1200.39999999851
24,6,6,6,0,4,3,191,393,0,1,1233.10000000149
24,6,6,6,0,5,2,191,393,0,1,1100.30000000447
24,6,6,6,0,6,1,191,393,0,1,1199.79999999702
24,7,7,10,3,1,0,213,430,0,1,1449.89999999851
24,7,7,10,3,2,6,213,430,0,1,1383.89999999851
24,7,7,10,3,3,5,213,430,0,1,1166.70000000298
24,7,7,10,3,4,4,213,430,,,
24,7,7,10,3,5,3,213,430,0,1,1411.80000000447
24,7,7,10,3,6,2,213,430,,,
24,7,7,10,3,7,1,213,430,0,1,1362.5
24,7,7,10,3,8,0,213,430,0,1,1299.30000000447
24,7,7,10,3,9,0,213,430,0,1,1166.5
24,7,7,10,3,10,0,213,430,0,1,1148.89999999851
24,8,7,7,0,1,7,150,348,0,1,1283.20000000298
24,8,7,7,0,2,6,150,348,0,1,1350.39999999851
24,8,7,7,0,3,5,150,348,0,1,1200
24,8,7,7,0,4,4,150,348,0,1,1183.10000000149
24,8,7,7,0,5,3,150,348,0,1,1016.29999999702
24,8,7,7,0,6,2,150,348,0,1,1182.39999999851
24,8,7,7,0,7,1,150,348,0,1,1182.89999999851
24,9,7,7,0,1,0,260,482,0,1,1216
24,9,7,7,0,2,6,260,482,0,1,1349.60000000149
24,9,7,7,0,3,5,260,482,0,1,1383
24,9,7,7,0,4,4,260,482,0,1,1216.29999999702
24,9,7,7,0,5,3,260,482,0,1,1199.29999999702
24,9,7,7,0,6,2,260,482,0,1,1149.09999999404
24,9,7,7,0,7,1,260,482,0,1,1233
24,10,6,6,0,1,0,163,386,0,1,1483.10000000149
24,10,6,6,0,2,5,163,386,0,1,1249.79999999702
24,10,6,6,0,3,4,163,386,0,1,966.5
24,10,6,6,0,4,3,163,386,0,1,1200
24,10,6,6,0,5,2,163,386,0,1,1316.39999999851
24,10,6,6,0,6,1,163,386,0,1,1352.79999999702
24,11,6,7,1,1,0,339,532,0,1,1082.60000000149
24,11,6,7,1,2,5,339,532,0,1,1182.70000000298
24,11,6,7,1,3,4,339,532,0,1,1415.79999999702
24,11,6,7,1,4,3,339,532,0,1,1266.5
24,11,6,7,1,5,2,339,532,0,1,1232.89999999851
24,11,6,7,1,6,1,339,532,0,1,1284
24,11,6,7,1,7,0,339,532,0,1,1266.29999999702
24,12,5,5,0,1,5,311,494,0,1,1333
24,12,5,5,0,2,4,311,494,0,1,1215.29999999702
24,12,5,5,0,3,3,311,494,0,1,1132.60000000149
24,12,5,5,0,4,2,311,494,0,1,1032.59999999404
24,12,5,5,0,5,1,311,494,0,1,1083.5
24,13,7,9,2,1,0,295,513,0,1,1083.20000000298
24,13,7,9,2,2,6,295,513,0,1,1082.89999999851
24,13,7,9,2,3,5,295,513,0,1,1016
24,13,7,9,2,4,4,295,513,0,1,1066
24,13,7,9,2,5,3,295,513,0,1,1132.80000000447
24,13,7,9,2,6,2,295,513,0,1,1182
24,13,7,9,2,7,1,295,513,0,1,1132.39999999851
24,13,7,9,2,8,0,295,513,0,1,1099.30000000447
24,13,7,9,2,9,0,295,513,0,1,1232.5
24,14,5,6,1,1,5,137,312,0,1,1348.60000000149
24,14,5,6,1,2,4,137,312,0,1,1466.10000000149
24,14,5,6,1,3,3,137,312,0,1,1099.70000000298
24,14,5,6,1,4,2,137,312,0,1,1332
24,14,5,6,1,5,1,137,312,0,1,1133.29999999702
24,14,5,6,1,6,0,137,312,0,1,1100.20000000298
24,15,7,7,0,1,7,327,507,0,1,1549.5
24,15,7,7,0,2,6,327,507,0,1,1182.20000000298
24,15,7,7,0,3,5,327,507,0,1,1182.5
24,15,7,7,0,4,4,327,507,0,1,1049.10000000149
24,15,7,7,0,5,3,327,507,0,1,1218
24,15,7,7,0,6,2,327,507,0,1,1234.20000000298
24,15,7,7,0,7,1,327,507,0,1,1349.60000000149
24,16,7,6,-1,1,0,103,323,0,1,1533
24,16,7,6,-1,2,6,103,323,,,
24,16,7,6,-1,3,5,103,323,0,1,1810.20000000298
24,16,7,6,-1,4,4,103,323,0,1,1298.79999999702
24,16,7,6,-1,5,3,103,323,0,1,1449.20000000298
24,16,7,6,-1,6,2,103,323,0,1,1350
24,17,6,10,4,1,1,331,484,0,1,1414.5
24,17,6,10,4,2,5,331,484,0,1,1332.80000000447
24,17,6,10,4,3,4,331,484,0,1,1082.89999999851
24,17,6,10,4,4,3,331,484,0,1,1066.20000000298
24,17,6,10,4,5,2,331,484,0,1,1066.39999999851
24,17,6,10,4,6,1,331,484,0,1,1149.80000000447
24,17,6,10,4,7,0,331,484,0,1,1082.70000000298
24,17,6,10,4,8,0,331,484,0,1,1117.39999999851
24,17,6,10,4,9,0,331,484,0,1,1132.79999999702
24,17,6,10,4,10,0,331,484,,,
24,18,5,5,0,1,5,210,369,0,1,1261.70000000298
24,18,5,5,0,2,4,210,369,0,1,1367.60000000149
24,18,5,5,0,3,3,210,369,0,1,1199.90000000596
24,18,5,5,0,4,2,210,369,0,1,1116.39999999851
24,18,5,5,0,5,1,210,369,0,1,1150.69999999553
24,19,7,5,-2,1,0,179,338,0,1,1316.60000000149
24,19,7,5,-2,2,6,179,338,0,1,1099.5
24,19,7,5,-2,3,5,179,338,0,1,1001.69999999553
24,19,7,5,-2,4,4,179,338,0,1,983.5
24,19,7,5,-2,5,3,179,338,0,1,1166.30000000447
24,20,7,7,0,1,2,180,393,0,1,1117.5
24,20,7,7,0,2,6,180,393,0,1,1082.89999999851
24,20,7,7,0,3,5,180,393,0,1,1132.5
24,20,7,7,0,4,4,180,393,0,1,1066.60000000149
24,20,7,7,0,5,3,180,393,0,1,1333.29999999702
24,20,7,7,0,6,2,180,393,0,1,1282.69999999553
24,20,7,7,0,7,1,180,393,0,1,1085.19999999553
24,21,6,5,-1,1,0,63,284,0,1,1450.10000000149
24,21,6,5,-1,2,5,63,284,0,1,1100.89999999851
24,21,6,5,-1,3,4,63,284,0,1,1132.89999999851
24,21,6,5,-1,4,3,63,284,0,1,1335
24,21,6,5,-1,5,2,63,284,0,1,949.30000000447
24,22,7,7,0,1,1,313,489,0,1,1200.29999999702
24,22,7,7,0,2,6,313,489,0,1,1133
24,22,7,7,0,3,5,313,489,0,1,899.19999999553
24,22,7,7,0,4,4,313,489,0,1,1233.19999999553
24,22,7,7,0,5,3,313,489,0,1,1250
24,22,7,7,0,6,2,313,489,0,1,1400.29999999702
24,22,7,7,0,7,1,313,489,0,1,1349.90000000596
24,23,7,6,-1,1,0,216,434,,,
24,23,7,6,-1,2,6,216,434,0,1,1228.20000000298
24,23,7,6,-1,3,5,216,434,0,1,1133.69999999553
24,23,7,6,-1,4,4,216,434,0,1,1216.30000000447
24,23,7,6,-1,5,3,216,434,0,1,1167
24,23,7,6,-1,6,2,216,434,0,1,1199.79999999702
24,24,5,2,-3,1,1,219,429,0,1,1233.10000000149
24,24,5,2,-3,2,4,219,429,0,1,1468.40000000596
24,25,6,6,0,1,3,274,452,0,1,1050.5
24,25,6,6,0,2,5,274,452,0,1,1316.39999999851
24,25,6,6,0,3,4,274,452,0,1,1100.10000000149
24,25,6,6,0,4,3,274,452,0,1,1000.60000000149
24,25,6,6,0,5,2,274,452,0,1,1083.39999999851
24,25,6,6,0,6,1,274,452,0,1,1134.39999999851
24,26,7,4,-3,1,0,163,313,0,1,1334.20000000298
24,26,7,4,-3,2,6,163,313,0,1,1100.39999999851
24,26,7,4,-3,3,5,163,313,0,1,1099.89999999851
24,26,7,4,-3,4,4,163,313,0,1,1266.10000000149
24,27,6,4,-2,1,3,125,272,0,1,1284.30000000447
24,27,6,4,-2,2,5,125,272,0,1,950.29999999702
24,27,6,4,-2,3,4,125,272,0,1,1299.60000000149
24,27,6,4,-2,4,3,125,272,0,1,1118.10000000149
24,28,6,10,4,1,2,335,555,0,1,1366.69999999553
24,28,6,10,4,2,5,335,555,0,1,1218.60000000149
24,28,6,10,4,3,4,335,555,0,1,1183.30000000447
24,28,6,10,4,4,3,335,555,0,1,1316.5
24,28,6,10,4,5,2,335,555,0,1,1167.40000000596
24,28,6,10,4,6,1,335,555,0,1,1350.20000000298
24,28,6,10,4,7,0,335,555,0,1,933.10000000149
24,28,6,10,4,8,0,335,555,0,1,1051.39999999851
24,28,6,10,4,9,0,335,555,0,1,1118.60000000149
24,28,6,10,4,10,0,335,555,0,1,933.60000000149
24,29,6,9,3,1,6,36,217,0,1,1749.60000000149
24,29,6,9,3,2,5,36,217,0,1,1201
24,29,6,9,3,3,4,36,217,0,1,1151.10000000149
24,29,6,9,3,4,3,36,217,0,1,1099.89999999851
24,29,6,9,3,5,2,36,217,0,1,1050.5
24,29,6,9,3,6,1,36,217,0,1,1117.80000000447
24,29,6,9,3,7,0,36,217,0,1,1116.60000000149
24,29,6,9,3,8,0,36,217,0,1,1032.39999999851
24,29,6,9,3,9,0,36,217,0,1,1567.30000000447
24,30,5,9,4,1,5,239,466,0,1,1434.20000000298
24,30,5,9,4,2,4,239,466,0,1,1149.29999999702
24,30,5,9,4,3,3,239,466,0,1,1316.40000000596
24,30,5,9,4,4,2,239,466,0,1,1216.20000000298
24,30,5,9,4,5,1,239,466,0,1,1151.39999999851
24,30,5,9,4,6,0,239,466,0,1,1150
24,30,5,9,4,7,0,239,466,0,1,1266.89999999851
24,30,5,9,4,8,0,239,466,0,1,1135.19999999553
24,30,5,9,4,9,0,239,466,0,1,1017.30000000447
24,31,5,4,-1,1,5,278,478,0,1,1116.59999999404
24,31,5,4,-1,2,4,278,478,0,1,1283.29999999702
24,31,5,4,-1,3,3,278,478,0,1,1050.5
24,31,5,4,-1,4,2,278,478,0,1,1418.59999999404
24,32,6,6,0,1,1,289,439,0,1,1233.60000000149
24,32,6,6,0,2,5,289,439,0,1,1283.79999999702
24,32,6,6,0,3,4,289,439,0,1,1233
24,32,6,6,0,4,3,289,439,0,1,1000.39999999851
24,32,6,6,0,5,2,289,439,0,1,1268.5
24,32,6,6,0,6,1,289,439,0,1,1284.39999999851
24,33,5,5,0,1,0,50,244,0,1,1302.30000000447
24,33,5,5,0,2,4,50,244,0,1,1033.80000000447
24,33,5,5,0,3,3,50,244,0,1,1150.80000000447
24,33,5,5,0,4,2,50,244,0,1,1166.80000000447
24,33,5,5,0,5,1,50,244,0,1,1101.10000000149
24,34,7,7,0,1,0,226,392,0,1,1399.30000000447
24,34,7,7,0,2,6,226,392,0,1,1318.19999999553
24,34,7,7,0,3,5,226,392,0,1,1300.10000000149
24,34,7,7,0,4,4,226,392,0,1,1165.79999999702
24,34,7,7,0,5,3,226,392,0,1,1133.39999999851
24,34,7,7,0,6,2,226,392,0,1,1016.40000000596
24,34,7,7,0,7,1,226,392,0,1,1218.59999999404
24,35,7,7,0,1,0,169,324,0,1,1333.20000000298
24,35,7,7,0,2,6,169,324,0,1,1151.60000000149
24,35,7,7,0,3,5,169,324,,,
24,35,7,7,0,4,4,169,324,0,1,1444.5
24,35,7,7,0,5,3,169,324,0,1,1400.59999999404
24,35,7,7,0,6,2,169,324,0,1,1149.39999999851
24,35,7,7,0,7,1,169,324,0,1,1185.39999999851
24,36,6,2,-4,1,0,259,472,0,1,1399.90000000596
24,36,6,2,-4,2,5,259,472,0,1,1150.10000000149
24,37,5,5,0,1,4,339,504,0,1,1118.39999999851
24,37,5,5,0,2,4,339,504,0,1,1168.80000000447
24,37,5,5,0,3,3,339,504,0,1,1218.5
24,37,5,5,0,4,2,339,504,0,1,1399.29999999702
24,37,5,5,0,5,1,339,504,0,1,1368.69999999553
24,38,6,9,3,1,0,193,356,0,1,1649.89999999851
24,38,6,9,3,2,5,193,356,0,1,1585
24,38,6,9,3,3,4,193,356,0,1,1283
24,38,6,9,3,4,3,193,356,0,1,1166.89999999851
24,38,6,9,3,5,2,193,356,0,1,1267.10000000149
24,38,6,9,3,6,1,193,356,0,1,1316.80000000447
24,38,6,9,3,7,0,193,356,0,1,1218.19999999553
24,38,6,9,3,8,0,193,356,0,1,1400.5
24,38,6,9,3,9,0,193,356,0,1,1434.70000000298
24,39,7,7,0,1,7,344,533,0,1,1250.10000000149
24,39,7,7,0,2,6,344,533,0,1,1333.59999999404
24,39,7,7,0,3,5,344,533,0,1,1201.89999999851
24,39,7,7,0,4,4,344,533,0,1,1149.39999999851
24,39,7,7,0,5,3,344,533,0,1,1117
24,39,7,7,0,6,2,344,533,0,1,1400
24,39,7,7,0,7,1,344,533,0,1,1151
24,40,7,3,-4,1,0,6,234,0,1,1333.30000000447
24,40,7,3,-4,2,6,6,234,0,1,1350.39999999851
24,40,7,3,-4,3,5,6,234,0,1,1250.5
24,41,7,11,4,1,4,277,473,0,1,1266.79999999702
24,41,7,11,4,2,6,277,473,,,
24,41,7,11,4,3,5,277,473,0,1,1192.5
24,41,7,11,4,4,4,277,473,0,1,1050.30000000447
24,41,7,11,4,5,3,277,473,0,1,1368.39999999851
24,41,7,11,4,6,2,277,473,0,1,1249.89999999851
24,41,7,11,4,7,1,277,473,0,1,1017.5
24,41,7,11,4,8,0,277,473,0,1,1100.10000000149
24,41,7,11,4,9,0,277,473,0,1,1050.10000000149
24,41,7,11,4,10,0,277,473,0,1,1217.20000000298
24,41,7,11,4,11,0,277,473,0,1,1200.60000000149
24,42,5,5,0,1,5,201,381,0,1,1183.19999999553
24,42,5,5,0,2,4,201,381,0,1,1088.89999999851
24,42,5,5,0,3,3,201,381,0,1,1234.89999999851
24,42,5,5,0,4,2,201,381,0,1,1301
24,42,5,5,0,5,1,201,381,0,1,1418.5
24,43,7,10,3,1,0,56,211,0,1,1283.39999999851
24,43,7,10,3,2,6,56,211,0,1,1334.80000000447
24,43,7,10,3,3,5,56,211,0,1,1250.10000000149
24,43,7,10,3,4,4,56,211,0,1,1284.79999999702
24,43,7,10,3,5,3,56,211,0,1,1068.10000000149
24,43,7,10,3,6,2,56,211,0,1,1134.40000000596
24,43,7,10,3,7,1,56,211,0,1,1084.79999999702
24,43,7,10,3,8,0,56,211,0,1,1151.89999999851
24,43,7,10,3,9,0,56,211,0,1,1134.79999999702
24,43,7,10,3,10,0,56,211,0,1,1134.5
24,44,6,6,0,1,6,309,487,0,1,1052
24,44,6,6,0,2,5,309,487,0,1,1034.80000000447
24,44,6,6,0,3,4,309,487,0,1,1118.20000000298
24,44,6,6,0,4,3,309,487,0,1,1035
24,44,6,6,0,5,2,309,487,0,1,1135.40000000596
24,44,6,6,0,6,1,309,487,0,1,1168.39999999851
24,45,7,7,0,1,0,23,238,0,1,1201.10000000149
24,45,7,7,0,2,6,23,238,0,1,1285.59999999404
24,45,7,7,0,3,5,23,238,0,1,1134.29999999702
24,45,7,7,0,4,4,23,238,0,1,867.10000000149
24,45,7,7,0,5,3,23,238,0,1,1085.19999999553
24,45,7,7,0,6,2,23,238,0,1,1135.89999999851
24,45,7,7,0,7,1,23,238,0,1,1068.20000000298
24,46,5,5,0,1,0,122,326,0,1,1250.5
24,46,5,5,0,2,4,122,326,0,1,1101.29999999702
24,46,5,5,0,3,3,122,326,0,1,983.89999999851
24,46,5,5,0,4,2,122,326,0,1,1134
24,46,5,5,0,5,1,122,326,0,1,1268.30000000447
24,47,5,9,4,1,0,239,451,0,1,1184.19999999553
24,47,5,9,4,2,4,239,451,0,1,1283.29999999702
24,47,5,9,4,3,3,239,451,0,1,1134.29999999702
24,47,5,9,4,4,2,239,451,0,1,1051.59999999404
24,47,5,9,4,5,1,239,451,0,1,1100.39999999851
24,47,5,9,4,6,0,239,451,0,1,1101.30000000447
24,47,5,9,4,7,0,239,451,0,1,1085.09999999404
24,47,5,9,4,8,0,239,451,0,1,1267.80000000447
24,47,5,9,4,9,0,239,451,0,1,1285.60000000149
24,48,7,4,-3,1,7,18,194,0,1,1301.39999999851
24,48,7,4,-3,2,6,18,194,0,1,1484.19999999553
24,48,7,4,-3,3,5,18,194,0,1,1184.90000000596
24,48,7,4,-3,4,4,18,194,0,1,918
24,49,6,7,1,1,3,290,476,0,1,1425.09999999404
24,49,6,7,1,2,5,290,476,0,1,1001.59999999404
24,49,6,7,1,3,4,290,476,0,1,1085.10000000149
24,49,6,7,1,4,3,290,476,0,1,1150.80000000447
24,49,6,7,1,5,2,290,476,,,
24,49,6,7,1,6,1,290,476,0,1,1215.5
24,49,6,7,1,7,0,290,476,0,1,1134.39999999851
24,50,5,1,-4,1,5,79,274,0,1,1168.80000000447
24,51,6,6,0,1,4,273,444,0,1,984.69999999553
24,51,6,6,0,2,5,273,444,0,1,1135.09999999404
24,51,6,6,0,3,4,273,444,0,1,1085.39999999851
24,51,6,6,0,4,3,273,444,0,1,1184.19999999553
24,51,6,6,0,5,2,273,444,0,1,1234.20000000298
24,51,6,6,0,6,1,273,444,0,1,1068.39999999851
24,52,5,5,0,1,0,357,544,0,1,1401.90000000596
24,52,5,5,0,2,4,357,544,0,1,1085.39999999851
24,52,5,5,0,3,3,357,544,0,1,1068.5
24,52,5,5,0,4,2,357,544,0,1,1316.70000000298
24,52,5,5,0,5,1,357,544,0,1,935.5
24,53,5,4,-1,1,0,268,469,0,1,1051.5
24,53,5,4,-1,2,4,268,469,0,1,1068.59999999404
24,53,5,4,-1,3,3,268,469,0,1,1018.39999999851
24,53,5,4,-1,4,2,268,469,0,1,1101.80000000447
24,54,5,5,0,1,1,341,543,0,1,1134.29999999702
24,54,5,5,0,2,4,341,543,0,1,1001.5
24,54,5,5,0,3,3,341,543,0,1,1102.10000000149
24,54,5,5,0,4,2,341,543,0,1,1152.10000000149
24,54,5,5,0,5,1,341,543,0,1,1201.20000000298
24,55,7,5,-2,1,0,216,421,,,
24,55,7,5,-2,2,6,216,421,0,1,1313.09999999404
24,55,7,5,-2,3,5,216,421,0,1,1085.10000000149
24,55,7,5,-2,4,4,216,421,0,1,951.89999999851
24,55,7,5,-2,5,3,216,421,0,1,1235.20000000298
24,56,6,6,0,1,2,333,551,0,1,1268.59999999404
24,56,6,6,0,2,5,333,551,0,1,1002
24,56,6,6,0,3,4,333,551,0,1,1318.5
24,56,6,6,0,4,3,333,551,0,1,1068.5
24,56,6,6,0,5,2,333,551,0,1,1068.60000000149
24,56,6,6,0,6,1,333,551,0,1,1118.29999999702
24,57,7,8,1,1,0,69,294,0,1,985.10000000149
24,57,7,8,1,2,6,69,294,0,1,984.89999999851
24,57,7,8,1,3,5,69,294,0,1,1035.10000000149
24,57,7,8,1,4,4,69,294,0,1,885
24,57,7,8,1,5,3,69,294,0,1,1318.30000000447
24,57,7,8,1,6,2,69,294,,,
24,57,7,8,1,7,1,69,294,0,1,1147.59999999404
24,57,7,8,1,8,0,69,294,0,1,1268.5
24,58,5,5,0,1,5,277,446,0,1,1168.5
24,58,5,5,0,2,4,277,446,0,1,1085.39999999851
24,58,5,5,0,3,3,277,446,0,1,1068.60000000149
24,58,5,5,0,4,2,277,446,0,1,1117.70000000298
24,58,5,5,0,5,1,277,446,0,1,1351.19999999553
24,59,7,8,1,1,0,163,359,0,1,1119
24,59,7,8,1,2,6,163,359,0,1,1184.60000000149
24,59,7,8,1,3,5,163,359,0,1,1351.90000000596
24,59,7,8,1,4,4,163,359,0,1,1335.29999999702
24,59,7,8,1,5,3,163,359,0,1,1152
24,59,7,8,1,6,2,163,359,0,1,1068.59999999404
24,59,7,8,1,7,1,163,359,0,1,1201.79999999702
24,59,7,8,1,8,0,163,359,0,1,967.89999999851
24,60,5,7,2,1,5,229,392,0,1,1402.20000000298
24,60,5,7,2,2,4,229,392,0,1,1118.39999999851
24,60,5,7,2,3,3,229,392,0,1,1118.70000000298
24,60,5,7,2,4,2,229,392,0,1,1036.19999999553
24,60,5,7,2,5,1,229,392,0,1,1085.10000000149
24,60,5,7,2,6,0,229,392,,,
24,60,5,7,2,7,0,229,392,0,1,1147.10000000149
24,61,7,7,0,1,7,64,271,0,1,1102.19999999553
24,61,7,7,0,2,6,64,271,0,1,1068.20000000298
24,61,7,7,0,3,5,64,271,0,1,1485.59999999404
24,61,7,7,0,4,4,64,271,0,1,1068.80000000447
24,61,7,7,0,5,3,64,271,0,1,1385.39999999851
24,61,7,7,0,6,2,64,271,0,1,1117.39999999851
24,61,7,7,0,7,1,64,271,0,1,1302.30000000447
24,62,6,2,-4,1,0,289,458,0,1,1118.5
24,62,6,2,-4,2,5,289,458,0,1,1168.70000000298
24,63,5,8,3,1,4,138,305,0,1,1252.29999999702
24,63,5,8,3,2,4,138,305,0,1,1102
24,63,5,8,3,3,3,138,305,0,1,1318.5
24,63,5,8,3,4,2,138,305,0,1,1085.39999999851
24,63,5,8,3,5,1,138,305,0,1,1018.80000000447
24,63,5,8,3,6,0,138,305,0,1,918.20000000298
24,63,5,8,3,7,0,138,305,0,1,1068.59999999404
24,63,5,8,3,8,0,138,305,0,1,1152.10000000149
24,64,6,6,0,1,6,258,436,0,1,1001.80000000447
24,64,6,6,0,2,5,258,436,0,1,1052.10000000149
24,64,6,6,0,3,4,258,436,0,1,1218.80000000447
24,64,6,6,0,4,3,258,436,0,1,1068.89999999851
24,64,6,6,0,5,2,258,436,0,1,1318.10000000149
24,64,6,6,0,6,1,258,436,0,1,1101.79999999702
24,65,5,5,0,1,0,313,538,0,1,1217
24,65,5,5,0,2,4,313,538,0,1,1168.39999999851
24,65,5,5,0,3,3,313,538,0,1,1118.69999999553
24,65,5,5,0,4,2,313,538,0,1,967.89999999851
24,65,5,5,0,5,1,313,538,0,1,1018.79999999702
24,66,6,6,0,1,0,102,328,0,1,952
24,66,6,6,0,2,5,102,328,0,1,1067.39999999851
24,66,6,6,0,3,4,102,328,0,1,1301.89999999851
24,66,6,6,0,4,3,102,328,0,1,1001.79999999702
24,66,6,6,0,5,2,102,328,0,1,1268.60000000149
24,66,6,6,0,6,1,102,328,0,1,1152.19999999553
24,67,6,8,2,1,0,127,300,0,1,1152.10000000149
24,67,6,8,2,2,5,127,300,0,1,1218.10000000149
24,67,6,8,2,3,4,127,300,0,1,1085.39999999851
24,67,6,8,2,4,3,127,300,0,1,1068.79999999702
24,67,6,8,2,5,2,127,300,0,1,901.89999999851
24,67,6,8,2,6,1,127,300,0,1,1068.80000000447
24,67,6,8,2,7,0,127,300,0,1,1169
24,67,6,8,2,8,0,127,300,0,1,1218.69999999553
24,68,6,6,0,1,6,165,332,0,1,1285.39999999851
24,68,6,6,0,2,5,165,332,0,1,1319.10000000149
24,68,6,6,0,3,4,165,332,0,1,1018.60000000149
24,68,6,6,0,4,3,165,332,0,1,1252.10000000149
24,68,6,6,0,5,2,165,332,0,1,1102.29999999702
24,68,6,6,0,6,1,165,332,0,1,1118.60000000149
24,69,6,6,0,1,0,122,312,0,1,1068.60000000149
24,69,6,6,0,2,5,122,312,9,0,1085.29999999702
24,69,6,6,0,3,4,122,312,0,1,1199.70000000298
24,69,6,6,0,4,3,122,312,0,1,1235.5
24,69,6,6,0,5,2,122,312,0,1,1152.19999999553
24,69,6,6,0,6,1,122,312,0,1,1202.10000000149
24,70,6,5,-1,1,0,185,413,0,1,1151.80000000447
24,70,6,5,-1,2,5,185,413,0,1,1168.69999999553
24,70,6,5,-1,3,4,185,413,0,1,1135.70000000298
24,70,6,5,-1,4,3,185,413,0,1,1585
24,70,6,5,-1,5,2,185,413,0,1,1235.39999999851
24,71,5,5,0,1,1,279,427,0,1,1352
24,71,5,5,0,2,4,279,427,0,1,1185.30000000447
24,71,5,5,0,3,3,279,427,0,1,1218.89999999851
24,71,5,5,0,4,2,279,427,0,1,1152.20000000298
24,71,5,5,0,5,1,279,427,0,1,1368.60000000149
24,72,5,1,-4,1,0,124,334,0,1,1102
24,73,6,3,-3,1,6,177,374,0,1,1118.09999999404
24,73,6,3,-3,2,5,177,374,0,1,1151.80000000447
24,73,6,3,-3,3,4,177,374,0,1,1085.60000000149
24,74,5,5,0,1,3,295,520,0,1,1318.19999999553
24,74,5,5,0,2,4,295,520,0,1,1102.10000000149
24,74,5,5,0,3,3,295,520,0,1,1101.90000000596
24,74,5,5,0,4,2,295,520,0,1,1168.80000000447
24,74,5,5,0,5,1,295,520,0,1,1052.19999999553
24,75,7,7,0,1,0,188,415,0,1,1068.20000000298
24,75,7,7,0,2,6,188,415,0,1,1233.39999999851
24,75,7,7,0,3,5,188,415,0,1,1085.30000000447
24,75,7,7,0,4,4,188,415,0,1,1302.19999999553
24,75,7,7,0,5,3,188,415,0,1,1152.5
24,75,7,7,0,6,2,188,415,0,1,1168.60000000149
24,75,7,7,0,7,1,188,415,0,1,1052.29999999702
24,76,6,4,-2,1,0,311,471,0,1,1185.39999999851
24,76,6,4,-2,2,5,311,471,0,1,1168.70000000298
24,76,6,4,-2,3,4,311,471,0,1,968.5
24,76,6,4,-2,4,3,311,471,0,1,1068.79999999702
24,77,5,8,3,1,2,246,434,0,1,1168.70000000298
24,77,5,8,3,2,4,246,434,0,1,1035.70000000298
24,77,5,8,3,3,3,246,434,0,1,1052
24,77,5,8,3,4,2,246,434,0,1,1284.89999999851
24,77,5,8,3,5,1,246,434,0,1,1168.5
24,77,5,8,3,6,0,246,434,0,1,1202.5
24,77,5,8,3,7,0,246,434,0,1,1152.20000000298
24,77,5,8,3,8,0,246,434,0,1,1135.20000000298
24,78,7,7,0,1,7,237,405,0,1,1185.10000000149
24,78,7,7,0,2,6,237,405,0,1,1118.79999999702
24,78,7,7,0,3,5,237,405,0,1,1218.90000000596
24,78,7,7,0,4,4,237,405,0,1,1268.89999999851
24,78,7,7,0,5,3,237,405,0,1,1002.10000000149
24,78,7,7,0,6,2,237,405,0,1,1101.5
24,78,7,7,0,7,1,237,405,0,1,1052.10000000149
24,79,6,6,0,1,0,58,239,0,1,1068.59999999404
24,79,6,6,0,2,5,58,239,0,1,1069
24,79,6,6,0,3,4,58,239,0,1,1235.20000000298
24,79,6,6,0,4,3,58,239,0,1,1302
24,79,6,6,0,5,2,58,239,0,1,1035.10000000149
24,79,6,6,0,6,1,58,239,0,1,1118.90000000596
24,80,6,3,-3,1,0,306,519,0,1,1301.89999999851
24,80,6,3,-3,2,5,306,519,0,1,1485.60000000149
24,80,6,3,-3,3,4,306,519,0,1,952.19999999553
24,81,7,11,4,1,3,96,313,0,1,1278.39999999851
24,81,7,11,4,2,6,96,313,,,
24,81,7,11,4,3,5,96,313,0,1,1248.29999999702
24,81,7,11,4,4,4,96,313,0,1,1068.20000000298
24,81,7,11,4,5,3,96,313,,,
24,81,7,11,4,6,2,96,313,0,1,1181.60000000149
24,81,7,11,4,7,1,96,313,0,1,1268.69999999553
24,81,7,11,4,8,0,96,313,3,0,1401.60000000149
24,81,7,11,4,9,0,96,313,0,1,1200.10000000149
24,81,7,11,4,10,0,96,313,0,1,1135.60000000149
24,81,7,11,4,11,0,96,313,0,1,1052.29999999702
24,82,5,3,-2,1,5,32,236,0,1,1051.79999999702
24,82,5,3,-2,2,4,32,236,,,
24,82,5,3,-2,3,3,32,236,0,1,1382.39999999851
24,83,5,5,0,1,2,162,372,0,1,1335.39999999851
24,83,5,5,0,2,4,162,372,0,1,1069
24,83,5,5,0,3,3,162,372,0,1,1085.69999999553
24,83,5,5,0,4,2,162,372,0,1,1085.79999999702
24,83,5,5,0,5,1,162,372,0,1,1218.80000000447
24,84,6,6,0,1,0,144,300,0,1,1335.60000000149
24,84,6,6,0,2,5,144,300,0,1,1118.89999999851
24,84,6,6,0,3,4,144,300,0,1,1335.20000000298
24,84,6,6,0,4,3,144,300,0,1,1402.5
24,84,6,6,0,5,2,144,300,,,
24,84,6,6,0,6,1,144,300,0,1,1365.60000000149
24,85,7,7,0,1,0,295,455,0,1,1402.30000000447
24,85,7,7,0,2,6,295,455,0,1,1251.89999999851
24,85,7,7,0,3,5,295,455,0,1,1185.59999999404
24,85,7,7,0,4,4,295,455,0,1,1335.39999999851
24,85,7,7,0,5,3,295,455,0,1,1285.59999999404
24,85,7,7,0,6,2,295,455,0,1,1068.70000000298
24,85,7,7,0,7,1,295,455,0,1,1084.60000000149
24,86,5,5,0,1,0,202,370,0,1,1102.09999999404
24,86,5,5,0,2,4,202,370,0,1,1135.19999999553
24,86,5,5,0,3,3,202,370,0,1,1035.60000000149
24,86,5,5,0,4,2,202,370,0,1,1218.70000000298
24,86,5,5,0,5,1,202,370,0,1,1119.10000000149
24,87,6,6,0,1,0,280,505,0,1,1018.79999999702
24,87,6,6,0,2,5,280,505,0,1,1101.89999999851
24,87,6,6,0,3,4,280,505,0,1,1285.60000000149
24,87,6,6,0,4,3,280,505,0,1,1302.39999999851
24,87,6,6,0,5,2,280,505,0,1,1152.20000000298
24,87,6,6,0,6,1,280,505,0,1,1335.29999999702
24,88,5,2,-3,1,0,95,257,0,1,1252.19999999553
24,88,5,2,-3,2,4,95,257,0,1,1119
24,89,5,5,0,1,3,116,277,0,1,1152
24,89,5,5,0,2,4,116,277,0,1,1085.70000000298
24,89,5,5,0,3,3,116,277,0,1,1035.29999999702
24,89,5,5,0,4,2,116,277,0,1,1168.39999999851
24,89,5,5,0,5,1,116,277,0,1,1035.60000000149
24,90,5,7,2,1,0,272,486,0,1,1235.89999999851
24,90,5,7,2,2,4,272,486,0,1,1219.10000000149
24,90,5,7,2,3,3,272,486,0,1,1052
24,90,5,7,2,4,2,272,486,0,1,1052.39999999851
24,90,5,7,2,5,1,272,486,0,1,1019.19999999553
24,90,5,7,2,6,0,272,486,0,1,968.70000000298
24,90,5,7,2,7,0,272,486,0,1,1119.10000000149
24,91,7,7,0,1,7,356,524,0,1,1052.30000000447
24,91,7,7,0,2,6,356,524,0,1,1102.10000000149
24,91,7,7,0,3,5,356,524,0,1,1069.19999999553
24,91,7,7,0,4,4,356,524,0,1,1102.29999999702
24,91,7,7,0,5,3,356,524,0,1,968.89999999851
24,91,7,7,0,6,2,356,524,0,1,1119.20000000298
24,91,7,7,0,7,1,356,524,0,1,1285.69999999553
24,92,6,6,0,1,0,267,440,0,1,1085.59999999404
24,92,6,6,0,2,5,267,440,0,1,1035.80000000447
24,92,6,6,0,3,4,267,440,0,1,1118.60000000149
24,92,6,6,0,4,3,267,440,0,1,935.70000000298
24,92,6,6,0,5,2,267,440,0,1,935.60000000149
24,92,6,6,0,6,1,267,440,0,1,1168.79999999702
24,93,6,6,0,1,0,126,314,0,1,1385.80000000447
24,93,6,6,0,2,5,126,314,0,1,1251.80000000447
24,93,6,6,0,3,4,126,314,0,1,1319.10000000149
24,93,6,6,0,4,3,126,314,0,1,1052.10000000149
24,93,6,6,0,5,2,126,314,0,1,1152.5
24,93,6,6,0,6,1,126,314,0,1,1152.29999999702
24,94,7,7,0,1,0,281,482,0,1,1318.60000000149
24,94,7,7,0,2,6,281,482,0,1,1202.20000000298
24,94,7,7,0,3,5,281,482,0,1,1235.60000000149
24,94,7,7,0,4,4,281,482,0,1,1152.39999999851
24,94,7,7,0,5,3,281,482,0,1,1068.79999999702
24,94,7,7,0,6,2,281,482,0,1,985.70000000298
24,94,7,7,0,7,1,281,482,0,1,1152.60000000149
24,95,5,5,0,1,0,94,324,0,1,1285.5
24,95,5,5,0,2,4,94,324,0,1,1119.20000000298
24,95,5,5,0,3,3,94,324,0,1,1168.79999999702
24,95,5,5,0,4,2,94,324,0,1,1235.59999999404
24,95,5,5,0,5,1,94,324,0,1,1385.69999999553
24,96,5,3,-2,1,0,58,291,0,1,1185.89999999851
24,96,5,3,-2,2,4,58,291,0,1,1118.5
24,96,5,3,-2,3,3,58,291,0,1,1235.70000000298
8,1,6,6,0,1,6,358,522,0,1,1944
8,1,6,6,0,2,5,358,522,0,1,1921
8,1,6,6,0,3,4,358,522,0,1,1457
8,1,6,6,0,4,3,358,522,0,1,1771
8,1,6,6,0,5,2,358,522,0,1,1142
8,1,6,6,0,6,1,358,522,0,1,1217
8,2,6,4,-2,1,0,277,437,0,1,1554
8,2,6,4,-2,2,5,277,437,0,1,1207
8,2,6,4,-2,3,4,277,437,0,1,1508
8,2,6,4,-2,4,3,277,437,0,1,1307
8,3,7,8,1,1,2,147,309,0,1,1790
8,3,7,8,1,2,6,147,309,0,1,1858.00000000001
8,3,7,8,1,3,5,147,309,0,1,2392
8,3,7,8,1,4,4,147,309,0,1,1274
8,3,7,8,1,5,3,147,309,0,1,1407
8,3,7,8,1,6,2,147,309,0,1,1309
8,3,7,8,1,7,1,147,309,0,1,1159
8,3,7,8,1,8,0,147,309,0,1,1325
8,4,6,6,0,1,6,330,499,0,1,1658
8,4,6,6,0,2,5,330,499,0,1,2275.00000000001
8,4,6,6,0,3,4,330,499,0,1,1342
8,4,6,6,0,4,3,330,499,0,1,1509
8,4,6,6,0,5,2,330,499,0,1,1775
8,4,6,6,0,6,1,330,499,0,1,1343
8,5,5,2,-3,1,0,96,268,0,1,2158.99999999999
8,5,5,2,-3,2,4,96,268,0,1,1460.00000000001
8,6,7,7,0,1,3,35,263,0,1,3241
8,6,7,7,0,2,6,35,263,0,1,1210
8,6,7,7,0,3,5,35,263,0,1,1308.99999999999
8,6,7,7,0,4,4,35,263,0,1,1127
8,6,7,7,0,5,3,35,263,0,1,1342
8,6,7,7,0,6,2,35,263,0,1,1274.99999999999
8,6,7,7,0,7,1,35,263,0,1,1207
8,7,6,6,0,1,0,73,286,0,1,1374
8,7,6,6,0,2,5,73,286,0,1,1160
8,7,6,6,0,3,4,73,286,0,1,1342
8,7,6,6,0,4,3,73,286,0,1,1293
8,7,6,6,0,5,2,73,286,0,1,1310
8,7,6,6,0,6,1,73,286,0,1,1226
8,8,6,6,0,1,0,102,316,0,1,1276
8,8,6,6,0,2,5,102,316,0,1,1278
8,8,6,6,0,3,4,102,316,0,1,1259
8,8,6,6,0,4,3,102,316,0,1,1309
8,8,6,6,0,5,2,102,316,0,1,1277
8,8,6,6,0,6,1,102,316,0,1,1226
8,9,5,3,-2,1,0,202,373,0,1,1427
8,9,5,3,-2,2,4,202,373,0,1,1360
8,9,5,3,-2,3,3,202,373,0,1,1143
8,10,5,5,0,1,2,211,406,0,1,1227
8,10,5,5,0,2,4,211,406,0,1,1210
8,10,5,5,0,3,3,211,406,0,1,1393
8,10,5,5,0,4,2,211,406,0,1,1176
8,10,5,5,0,5,1,211,406,0,1,1127.00000000001
8,11,6,6,0,1,0,351,569,0,1,2095
8,11,6,6,0,2,5,351,569,0,1,1778
8,11,6,6,0,3,4,351,569,0,1,1411
8,11,6,6,0,4,3,351,569,0,1,1259
8,11,6,6,0,5,2,351,569,0,1,1326
8,11,6,6,0,6,1,351,569,0,1,1543.99999999999
8,12,7,7,0,1,0,88,294,0,1,1478.00000000001
8,12,7,7,0,2,6,88,294,0,1,1212.00000000001
8,12,7,7,0,3,5,88,294,0,1,2195
8,12,7,7,0,4,4,88,294,0,1,1210.99999999999
8,12,7,7,0,5,3,88,294,0,1,1129
8,12,7,7,0,6,2,88,294,0,1,1113
8,12,7,7,0,7,1,88,294,0,1,1160
8,13,7,10,3,1,0,269,492,0,1,1428
8,13,7,10,3,2,6,269,492,0,1,2078
8,13,7,10,3,3,5,269,492,0,1,1244.99999999997
8,13,7,10,3,4,4,269,492,0,1,1312
8,13,7,10,3,5,3,269,492,0,1,1745.00000000003
8,13,7,10,3,6,2,269,492,0,1,1161
8,13,7,10,3,7,1,269,492,0,1,1130
8,13,7,10,3,8,0,269,492,0,1,1262
8,13,7,10,3,9,0,269,492,0,1,1127.00000000003
8,13,7,10,3,10,0,269,492,0,1,1081.99999999997
8,14,7,7,0,1,7,327,556,1,0,1195
8,,,,,,,,,,,
8,14,7,7,0,2,6,327,556,0,1,1357
8,14,7,7,0,3,5,327,556,0,1,1529
8,14,7,7,0,4,4,327,556,0,1,1579
8,14,7,7,0,5,3,327,556,0,1,1213
8,14,7,7,0,6,2,327,556,0,1,1164.00000000003
8,14,7,7,0,7,1,327,556,0,1,1396.00000000003
8,15,7,7,0,1,0,60,207,0,1,1213
8,15,7,7,0,2,6,60,207,0,1,1259.99999999997
8,15,7,7,0,3,5,60,207,0,1,1179
8,15,7,7,0,4,4,60,207,0,1,1212
8,15,7,7,0,5,3,60,207,0,1,1196.99999999997
8,15,7,7,0,6,2,60,207,0,1,1397
8,15,7,7,0,7,1,60,207,0,1,1229.00000000003
8,16,5,2,-3,1,0,267,456,0,1,1330
8,16,5,2,-3,2,4,267,456,0,1,1279
8,17,7,7,0,1,3,171,336,0,1,1420
8,17,7,7,0,2,6,171,336,0,1,1164
8,17,7,7,0,3,5,171,336,0,1,1230
8,17,7,7,0,4,4,171,336,0,1,1144
8,17,7,7,0,5,3,171,336,0,1,1247
8,17,7,7,0,6,2,171,336,0,1,1281
8,17,7,7,0,7,1,171,336,0,1,1330
8,18,5,5,0,1,0,128,344,0,1,1297
8,18,5,5,0,2,4,128,344,0,1,1264.00000000003
8,18,5,5,0,3,3,128,344,0,1,1381
8,18,5,5,0,4,2,128,344,0,1,1664.00000000003
8,18,5,5,0,5,1,128,344,0,1,1148
8,19,5,5,0,1,0,106,307,0,1,1848
8,19,5,5,0,2,4,106,307,0,1,1199
8,19,5,5,0,3,3,106,307,0,1,1281
8,19,5,5,0,4,2,106,307,0,1,2082
8,19,5,5,0,5,1,106,307,0,1,1181.00000000003
8,20,5,4,-1,1,0,165,318,0,1,1365.99999999997
8,20,5,4,-1,2,4,165,318,0,1,1131
8,20,5,4,-1,3,3,165,318,0,1,1314
8,20,5,4,-1,4,2,165,318,0,1,1182
8,21,6,7,1,1,1,288,514,0,1,1730
8,21,6,7,1,2,5,288,514,0,1,1298
8,21,6,7,1,3,4,288,514,0,1,1264
8,21,6,7,1,4,3,288,514,0,1,1849
8,21,6,7,1,5,2,288,514,0,1,2898
8,21,6,7,1,6,1,288,514,0,1,1396.99999999997
8,21,6,7,1,7,0,288,514,0,1,1316
8,22,5,5,0,1,5,329,479,0,1,2699
8,22,5,5,0,2,4,329,479,0,1,1283
8,22,5,5,0,3,3,329,479,0,1,1317
8,22,5,5,0,4,2,329,479,0,1,1365.00000000003
8,22,5,5,0,5,1,329,479,0,1,1282
8,23,5,5,0,1,0,196,367,0,1,1266
8,23,5,5,0,2,4,196,367,0,1,1182
8,23,5,5,0,3,3,196,367,0,1,1217.00000000003
8,23,5,5,0,4,2,196,367,0,1,1149
8,23,5,5,0,5,1,196,367,0,1,1400.00000000003
8,24,7,8,1,1,0,158,383,0,1,1149
8,24,7,8,1,2,6,158,383,0,1,1282.99999999997
8,24,7,8,1,3,5,158,383,0,1,1199
8,24,7,8,1,4,4,158,383,0,1,1365
8,24,7,8,1,5,3,158,383,0,1,1750.99999999997
8,24,7,8,1,6,2,158,383,0,1,1231
8,24,7,8,1,7,1,158,383,0,1,1533
8,24,7,8,1,8,0,158,383,0,1,1151
8,25,7,3,-4,1,7,87,260,0,1,1532.00000000003
8,25,7,3,-4,2,6,87,260,0,1,1317.00000000003
8,25,7,3,-4,3,5,87,260,0,1,1384
8,26,6,2,-4,1,4,244,411,0,1,2216
8,26,6,2,-4,2,5,244,411,0,1,1267
8,27,6,6,0,1,4,346,529,0,1,1500
8,27,6,6,0,2,5,346,529,0,1,1200
8,27,6,6,0,3,4,346,529,0,1,1351
8,27,6,6,0,4,3,346,529,0,1,1600
8,27,6,6,0,5,2,346,529,0,1,1266
8,27,6,6,0,6,1,346,529,0,1,1167
8,28,7,7,0,1,0,208,384,0,1,1634
8,28,7,7,0,2,6,208,384,0,1,1068
8,28,7,7,0,3,5,208,384,0,1,1299
8,28,7,7,0,4,4,208,384,0,1,1334.99999999997
8,28,7,7,0,5,3,208,384,0,1,1217.00000000003
8,28,7,7,0,6,2,208,384,0,1,1567
8,28,7,7,0,7,1,208,384,0,1,1300.99999999997
8,29,5,9,4,1,0,286,518,0,1,1401.99999999997
8,29,5,9,4,2,4,286,518,0,1,1267
8,29,5,9,4,3,3,286,518,0,1,1236
8,29,5,9,4,4,2,286,518,0,1,1385
8,29,5,9,4,5,1,286,518,0,1,1135
8,29,5,9,4,6,0,286,518,0,1,1400.99999999994
8,29,5,9,4,7,0,286,518,0,1,1433.99999999994
8,29,5,9,4,8,0,286,518,0,1,1418
8,29,5,9,4,9,0,286,518,0,1,1384
8,30,6,3,-3,1,6,133,360,0,1,1485
8,30,6,3,-3,2,5,133,360,0,1,1301
8,30,6,3,-3,3,4,133,360,0,1,1185
8,31,6,2,-4,1,3,38,217,0,1,1951
8,31,6,2,-4,2,5,38,217,0,1,1652
8,32,7,11,4,1,4,35,244,0,1,1235
8,32,7,11,4,2,6,35,244,0,1,1336
8,32,7,11,4,3,5,35,244,0,1,1269
8,32,7,11,4,4,4,35,244,0,1,1050
8,32,7,11,4,5,3,35,244,0,1,1236
8,32,7,11,4,6,2,35,244,0,1,1185
8,32,7,11,4,7,1,35,244,0,1,1351.99999999994
8,32,7,11,4,8,0,35,244,0,1,1303
8,32,7,11,4,9,0,35,244,0,1,1736
8,32,7,11,4,10,0,35,244,0,1,1287
8,32,7,11,4,11,0,35,244,0,1,1619
8,33,7,10,3,1,7,105,281,0,1,1680.99999999994
8,33,7,10,3,2,6,105,281,0,1,1333
8,33,7,10,3,3,5,105,281,0,1,1321
8,33,7,10,3,4,4,105,281,0,1,1251.99999999994
8,33,7,10,3,5,3,105,281,0,1,1652
8,33,7,10,3,6,2,105,281,0,1,1320
8,33,7,10,3,7,1,105,281,0,1,1269
8,33,7,10,3,8,0,105,281,0,1,1269.99999999994
8,33,7,10,3,9,0,105,281,0,1,1653
8,33,7,10,3,10,0,105,281,0,1,1185.99999999994
8,34,6,6,0,1,6,260,493,0,1,1637
8,34,6,6,0,2,5,260,493,0,1,1354
8,34,6,6,0,3,4,260,493,0,1,1070.00000000006
8,34,6,6,0,4,3,260,493,0,1,1355
8,34,6,6,0,5,2,260,493,0,1,1253
8,34,6,6,0,6,1,260,493,0,1,1154
8,35,6,7,1,1,0,4,176,0,1,1821
8,35,6,7,1,2,5,4,176,0,1,1454
8,35,6,7,1,3,4,4,176,0,1,1238
8,35,6,7,1,4,3,4,176,0,1,1186.99999999994
8,35,6,7,1,5,2,4,176,0,1,1304
8,35,6,7,1,6,1,4,176,0,1,1520
8,35,6,7,1,7,0,4,176,0,1,1354.00000000006
8,36,6,6,0,1,6,36,244,0,1,1172
8,36,6,6,0,2,5,36,244,0,1,1187
8,36,6,6,0,3,4,36,244,0,1,1286
8,36,6,6,0,4,3,36,244,0,1,1307.00000000006
8,36,6,6,0,5,2,36,244,0,1,1388
8,36,6,6,0,6,1,36,244,0,1,1171.00000000006
8,37,6,6,0,1,0,322,493,0,1,1355
8,37,6,6,0,2,5,322,493,0,1,1289
8,37,6,6,0,3,4,322,493,0,1,1338
8,37,6,6,0,4,3,322,493,0,1,1489.00000000006
8,37,6,6,0,5,2,322,493,0,1,1321
8,37,6,6,0,6,1,322,493,0,1,1203.99999999994
8,38,5,7,2,1,0,163,336,0,1,2438.00000000006
8,38,5,7,2,2,4,163,336,0,1,1289
8,38,5,7,2,3,3,163,336,0,1,1505
8,38,5,7,2,4,2,163,336,0,1,1272
8,38,5,7,2,5,1,163,336,0,1,1271
8,38,5,7,2,6,0,163,336,0,1,1240
8,38,5,7,2,7,0,163,336,0,1,1989
8,39,7,11,4,1,7,35,239,0,1,1372.00000000006
8,39,7,11,4,2,6,35,239,0,1,1255
8,39,7,11,4,3,5,35,239,0,1,1555.00000000006
8,39,7,11,4,4,4,35,239,0,1,1390
8,39,7,11,4,5,3,35,239,0,1,1239
8,39,7,11,4,6,2,35,239,0,1,1255.99999999994
8,39,7,11,4,7,1,35,239,0,1,1273
8,39,7,11,4,8,0,35,239,0,1,1306
8,39,7,11,4,9,0,35,239,0,1,1823.00000000006
8,39,7,11,4,10,0,35,239,0,1,1288
8,39,7,11,4,11,0,35,239,0,1,1473
8,40,5,1,-4,1,5,327,526,0,1,1205.00000000006
8,41,5,6,1,1,4,248,479,0,1,1223
8,41,5,6,1,2,4,248,479,0,1,1222.99999999994
8,41,5,6,1,3,3,248,479,0,1,1323.99999999994
8,41,5,6,1,4,2,248,479,0,1,1372.99999999994
8,41,5,6,1,5,1,248,479,0,1,1291
8,41,5,6,1,6,0,248,479,0,1,1471.99999999994
8,42,5,8,3,1,5,29,218,0,1,1623
8,42,5,8,3,2,4,29,218,0,1,1306.00000000006
8,42,5,8,3,3,3,29,218,0,1,1274
8,42,5,8,3,4,2,29,218,0,1,1423
8,42,5,8,3,5,1,29,218,0,1,1224
8,42,5,8,3,6,0,29,218,0,1,1224.00000000006
8,42,5,8,3,7,0,29,218,0,1,1174
8,42,5,8,3,8,0,29,218,0,1,1123
8,43,5,4,-1,1,5,288,435,0,1,2274
8,43,5,4,-1,2,4,288,435,0,1,1591
8,43,5,4,-1,3,3,288,435,0,1,1258
8,43,5,4,-1,4,2,288,435,0,1,1308
8,44,5,9,4,1,1,126,324,0,1,1473
8,44,5,9,4,2,4,126,324,0,1,1208
8,44,5,9,4,3,3,126,324,0,1,1509
8,44,5,9,4,4,2,126,324,0,1,1541
8,44,5,9,4,5,1,126,324,0,1,1454
8,44,5,9,4,6,0,126,324,0,1,1402
8,44,5,9,4,7,0,126,324,0,1,1465
8,44,5,9,4,8,0,126,324,0,1,1295
8,44,5,9,4,9,0,126,324,0,1,1295
8,45,5,5,0,1,5,34,263,0,1,1274
8,45,5,5,0,2,4,34,263,0,1,1272
8,45,5,5,0,3,3,34,263,0,1,1236.99999999994
8,45,5,5,0,4,2,34,263,0,1,1086.00000000006
8,45,5,5,0,5,1,34,263,0,1,1034.00000000006
8,46,7,3,-4,1,0,65,270,0,1,1515
8,46,7,3,-4,2,6,65,270,0,1,1182
8,46,7,3,-4,3,5,65,270,0,1,1278
8,47,7,5,-2,1,4,329,563,0,1,1228
8,47,7,5,-2,2,6,329,563,0,1,1209
8,47,7,5,-2,3,5,329,563,0,1,1276
8,47,7,5,-2,4,4,329,563,0,1,1242.00000000006
8,47,7,5,-2,5,3,329,563,0,1,1273.00000000006
8,48,7,7,0,1,2,84,285,6,0,1555
8,,,,,,,,,,,
8,48,7,7,0,2,6,84,285,0,1,1466
8,48,7,7,0,3,5,84,285,0,1,2135
8,48,7,7,0,4,4,84,285,0,1,1232
8,48,7,7,0,5,3,84,285,0,1,1651
8,48,7,7,0,6,2,84,285,0,1,1249
8,48,7,7,0,7,1,84,285,0,1,1265
8,49,5,8,3,1,0,92,251,0,1,1621
8,49,5,8,3,2,4,92,251,0,1,1231.99999999994
8,49,5,8,3,3,3,92,251,0,1,1498
8,49,5,8,3,4,2,92,251,0,1,1363
8,49,5,8,3,5,1,92,251,0,1,1747.99999999994
8,49,5,8,3,6,0,92,251,0,1,1131
8,49,5,8,3,7,0,92,251,0,1,1281
8,49,5,8,3,8,0,92,251,0,1,1230.00000000006
8,50,7,7,0,1,7,159,388,0,1,1282
8,50,7,7,0,2,6,159,388,0,1,1212.99999999994
8,50,7,7,0,3,5,159,388,0,1,2047
8,50,7,7,0,4,4,159,388,0,1,1330.00000000006
8,50,7,7,0,5,3,159,388,0,1,1229
8,50,7,7,0,6,2,159,388,0,1,1231
8,50,7,7,0,7,1,159,388,0,1,1296
8,51,5,5,0,1,0,309,543,0,1,1396
8,51,5,5,0,2,4,309,543,0,1,1146.00000000006
8,51,5,5,0,3,3,309,543,0,1,1263.99999999994
8,51,5,5,0,4,2,309,543,0,1,1328
8,51,5,5,0,5,1,309,543,0,1,1394.99999999994
8,52,6,6,0,1,0,283,493,0,1,1196
8,52,6,6,0,2,5,283,493,0,1,1314
8,52,6,6,0,3,4,283,493,0,1,1163
8,52,6,6,0,4,3,283,493,0,1,1312
8,52,6,6,0,5,2,283,493,0,1,1778.00000000006
8,52,6,6,0,6,1,283,493,0,1,1462.99999999994
8,53,6,8,2,1,0,145,352,0,1,1396
8,53,6,8,2,2,5,145,352,0,1,1279
8,53,6,8,2,3,4,145,352,0,1,1296
8,53,6,8,2,4,3,145,352,0,1,1212
8,53,6,8,2,5,2,145,352,0,1,1313
8,53,6,8,2,6,1,145,352,0,1,1230
8,53,6,8,2,7,0,145,352,0,1,1480.00000000006
8,53,6,8,2,8,0,145,352,0,1,1178.99999999994
8,54,5,5,0,1,5,68,257,0,1,1146
8,54,5,5,0,2,4,68,257,0,1,1247.00000000006
8,54,5,5,0,3,3,68,257,0,1,1229.99999999994
8,54,5,5,0,4,2,68,257,0,1,1230
8,54,5,5,0,5,1,68,257,0,1,979
8,55,7,4,-3,1,0,197,359,0,1,1311.99999999994
8,55,7,4,-3,2,6,197,359,0,1,1296
8,55,7,4,-3,3,5,197,359,0,1,1246
8,55,7,4,-3,4,4,197,359,0,1,1346
8,56,6,10,4,1,3,243,428,0,1,1428.99999999994
8,56,6,10,4,2,5,243,428,0,1,1162
8,56,6,10,4,3,4,243,428,0,1,1627
8,56,6,10,4,4,3,243,428,0,1,1145
8,56,6,10,4,5,2,243,428,0,1,1296.99999999994
8,56,6,10,4,6,1,243,428,0,1,1363
8,56,6,10,4,7,0,243,428,0,1,1263.00000000006
8,56,6,10,4,8,0,243,428,0,1,1262.99999999994
8,56,6,10,4,9,0,243,428,0,1,1113
8,56,6,10,4,10,0,243,428,0,1,1130
8,57,5,5,0,1,5,274,454,0,1,1197.99999999994
8,57,5,5,0,2,4,274,454,0,1,1129.00000000006
8,57,5,5,0,3,3,274,454,0,1,1197
8,57,5,5,0,4,2,274,454,0,1,1298
8,57,5,5,0,5,1,274,454,0,1,1181.00000000006
8,58,5,5,0,1,0,192,367,0,1,1195.99999999994
8,58,5,5,0,2,4,192,367,0,1,1163
8,58,5,5,0,3,3,192,367,0,1,1329
8,58,5,5,0,4,2,192,367,0,1,1331
8,58,5,5,0,5,1,192,367,0,1,1245
8,59,6,6,0,1,0,272,480,0,1,2097
8,59,6,6,0,2,5,272,480,0,1,1096
8,59,6,6,0,3,4,272,480,0,1,1180.99999999994
8,59,6,6,0,4,3,272,480,0,1,1280.99999999994
8,59,6,6,0,5,2,272,480,0,1,1280.99999999994
8,59,6,6,0,6,1,272,480,0,1,1030
8,60,6,4,-2,1,0,170,338,0,1,1313.99999999994
8,60,6,4,-2,2,5,170,338,0,1,1231
8,60,6,4,-2,3,4,170,338,0,1,1597
8,60,6,4,-2,4,3,170,338,0,1,1364
8,61,6,8,2,1,2,73,294,0,1,1214
8,61,6,8,2,2,5,73,294,0,1,1113.99999999994
8,61,6,8,2,3,4,73,294,0,1,1097
8,61,6,8,2,4,3,73,294,0,1,1130.99999999994
8,61,6,8,2,5,2,73,294,0,1,1198.00000000012
8,61,6,8,2,6,1,73,294,0,1,1264
8,61,6,8,2,7,0,73,294,0,1,1281.00000000006
8,61,6,8,2,8,0,73,294,0,1,1212.99999999994
8,62,6,6,0,1,6,323,494,0,1,1630.99999999994
8,62,6,6,0,2,5,323,494,0,1,1346.99999999994
8,62,6,6,0,3,4,323,494,0,1,1780
8,62,6,6,0,4,3,323,494,0,1,1265
8,62,6,6,0,5,2,323,494,0,1,1180.99999999994
8,62,6,6,0,6,1,323,494,0,1,1296.99999999988
8,63,5,7,2,1,0,109,269,0,1,1565
8,63,5,7,2,2,4,109,269,0,1,1081
8,63,5,7,2,3,3,109,269,0,1,1564
8,63,5,7,2,4,2,109,269,0,1,1215
8,63,5,7,2,5,1,109,269,0,1,1131
8,63,5,7,2,6,0,109,269,0,1,1199
8,63,5,7,2,7,0,109,269,0,1,1180.99999999988
8,64,6,5,-1,1,6,219,437,0,1,1382
8,64,6,5,-1,2,5,219,437,0,1,1248
8,64,6,5,-1,3,4,219,437,0,1,1549
8,64,6,5,-1,4,3,219,437,0,1,1248.99999999988
8,64,6,5,-1,5,2,219,437,0,1,1265.00000000012
8,65,5,5,0,1,1,279,451,0,1,1558
8,65,5,5,0,2,4,279,451,0,1,1349
8,65,5,5,0,3,3,279,451,0,1,1315
8,65,5,5,0,4,2,279,451,0,1,1317
8,65,5,5,0,5,1,279,451,0,1,1382
8,66,7,5,-2,1,0,156,381,0,1,1266
8,66,7,5,-2,2,6,156,381,0,1,1166
8,66,7,5,-2,3,5,156,381,0,1,1299
8,66,7,5,-2,4,4,156,381,0,1,1549.00000000012
8,66,7,5,-2,5,3,156,381,0,1,1416
8,67,6,6,0,1,2,213,445,0,1,1816.00000000012
8,67,6,6,0,2,5,213,445,0,1,1265
8,67,6,6,0,3,4,213,445,0,1,1284
8,67,6,6,0,4,3,213,445,0,1,1133
8,67,6,6,0,5,2,213,445,0,1,1666
8,67,6,6,0,6,1,213,445,0,1,1515
8,68,6,9,3,1,0,78,290,0,1,1584.00000000012
8,68,6,9,3,2,5,78,290,0,1,1117
8,68,6,9,3,3,4,78,290,0,1,1183
8,68,6,9,3,4,3,78,290,0,1,1198.99999999988
8,68,6,9,3,5,2,78,290,0,1,1115
8,68,6,9,3,6,1,78,290,0,1,1149
8,68,6,9,3,7,0,78,290,0,1,1166
8,68,6,9,3,8,0,78,290,0,1,1233.00000000012
8,68,6,9,3,9,0,78,290,0,1,1316
8,69,5,5,0,1,5,104,281,0,1,1198
8,69,5,5,0,2,4,104,281,0,1,1017
8,69,5,5,0,3,3,104,281,0,1,1282
8,69,5,5,0,4,2,104,281,0,1,1182
8,69,5,5,0,5,1,104,281,0,1,1267
8,70,7,7,0,1,0,307,462,0,1,1783
8,70,7,7,0,2,6,307,462,0,1,1499
8,70,7,7,0,3,5,307,462,0,1,1148
8,70,7,7,0,4,4,307,462,0,1,1100
8,70,7,7,0,5,3,307,462,0,1,1248.99999999988
8,70,7,7,0,6,2,307,462,0,1,1283
8,70,7,7,0,7,1,307,462,0,1,1150
8,71,7,4,-3,1,0,39,252,0,1,1783
8,71,7,4,-3,2,6,39,252,0,1,1183
8,71,7,4,-3,3,5,39,252,0,1,1201
8,71,7,4,-3,4,4,39,252,0,1,1500
8,72,5,5,0,1,3,304,535,0,1,1301
8,72,5,5,0,2,4,304,535,0,1,1149
8,72,5,5,0,3,3,304,535,0,1,1184.00000000012
8,72,5,5,0,4,2,304,535,0,1,1283
8,72,5,5,0,5,1,304,535,0,1,1216
8,73,7,9,2,1,0,286,433,0,1,1350.00000000012
8,73,7,9,2,2,6,286,433,0,1,1151
8,73,7,9,2,3,5,286,433,0,1,1633
8,73,7,9,2,4,4,286,433,0,1,1735
8,73,7,9,2,5,3,286,433,0,1,1250
8,73,7,9,2,6,2,286,433,0,1,1601
8,73,7,9,2,7,1,286,433,0,1,1201
8,73,7,9,2,8,0,286,433,0,1,1200.99999999988
8,73,7,9,2,9,0,286,433,0,1,1118
8,74,7,6,-1,1,7,161,342,0,1,1335.00000000012
8,74,7,6,-1,2,6,161,342,0,1,1502
8,74,7,6,-1,3,5,161,342,0,1,1235.00000000012
8,74,7,6,-1,4,4,161,342,0,1,1148
8,74,7,6,-1,5,3,161,342,0,1,1216
8,74,7,6,-1,6,2,161,342,0,1,1534
8,75,6,3,-3,1,1,36,247,0,1,1586
8,75,6,3,-3,2,5,36,247,0,1,1217
8,75,6,3,-3,3,4,36,247,0,1,1368
8,76,7,7,0,1,3,2,194,0,1,1518
8,76,7,7,0,2,6,2,194,0,1,1151.99999999988
8,76,7,7,0,3,5,2,194,0,1,1200
8,76,7,7,0,4,4,2,194,0,1,1451
8,76,7,7,0,5,3,2,194,0,1,1167
8,76,7,7,0,6,2,2,194,0,1,1168.99999999988
8,76,7,7,0,7,1,2,194,0,1,1202
8,77,7,7,0,1,0,297,462,0,1,1318.00000000012
8,77,7,7,0,2,6,297,462,0,1,1032
8,77,7,7,0,3,5,297,462,0,1,1101
8,77,7,7,0,4,4,297,462,0,1,1702
8,77,7,7,0,5,3,297,462,0,1,1235
8,77,7,7,0,6,2,297,462,0,1,1585.99999999988
8,77,7,7,0,7,1,297,462,0,1,1186
8,78,6,6,0,1,0,54,279,0,1,1152
8,78,6,6,0,2,5,54,279,0,1,1552.00000000012
8,78,6,6,0,3,4,54,279,0,1,1085
8,78,6,6,0,4,3,54,279,0,1,1302
8,78,6,6,0,5,2,54,279,0,1,1152
8,78,6,6,0,6,1,54,279,0,1,1169
8,79,5,6,1,1,0,251,461,0,1,1502
8,79,5,6,1,2,4,251,461,0,1,1102
8,79,5,6,1,3,3,251,461,0,1,1135
8,79,5,6,1,4,2,251,461,0,1,1151
8,79,5,6,1,5,1,251,461,0,1,1202
8,79,5,6,1,6,0,251,461,0,1,1201
8,80,7,6,-1,1,7,248,401,0,1,1103
8,80,7,6,-1,2,6,248,401,0,1,1752
8,80,7,6,-1,3,5,248,401,0,1,1086
8,80,7,6,-1,4,4,248,401,0,1,1086
8,80,7,6,-1,5,3,248,401,0,1,1237
8,80,7,6,-1,6,2,248,401,0,1,1169
8,81,6,9,3,1,1,121,281,0,1,1633
8,81,6,9,3,2,5,121,281,0,1,1452
8,81,6,9,3,3,4,121,281,0,1,1599
8,81,6,9,3,4,3,121,281,0,1,1304
8,81,6,9,3,5,2,121,281,0,1,1336
8,81,6,9,3,6,1,121,281,0,1,1387
8,81,6,9,3,7,0,121,281,0,1,1386
8,81,6,9,3,8,0,121,281,0,1,1186
8,81,6,9,3,9,0,121,281,0,1,1486
8,82,5,3,-2,1,5,270,490,0,1,1467
8,82,5,3,-2,2,4,270,490,0,1,1403
8,82,5,3,-2,3,3,270,490,0,1,1669
8,83,5,5,0,1,2,349,521,0,1,1503
8,83,5,5,0,2,4,349,521,0,1,1237
8,83,5,5,0,3,3,349,521,0,1,1051.00000000012
8,83,5,5,0,4,2,349,521,0,1,1135
8,83,5,5,0,5,1,349,521,0,1,1287.00000000012
8,84,5,5,0,1,0,192,413,0,1,1238
8,84,5,5,0,2,4,192,413,0,1,1186
8,84,5,5,0,3,3,192,413,0,1,1304
8,84,5,5,0,4,2,192,413,0,1,1003.00000000012
8,84,5,5,0,5,1,192,413,0,1,1185.00000000012
8,85,6,5,-1,1,0,348,536,0,1,1456
8,85,6,5,-1,2,5,348,536,0,1,1271
8,85,6,5,-1,3,4,348,536,0,1,1154
8,85,6,5,-1,4,3,348,536,0,1,1204
8,85,6,5,-1,5,2,348,536,0,1,1237
8,86,6,6,0,1,1,263,436,0,1,1187.00000000012
8,86,6,6,0,2,5,263,436,0,1,1121.00000000012
8,86,6,6,0,3,4,263,436,0,1,1038
8,86,6,6,0,4,3,263,436,0,1,1288
8,86,6,6,0,5,2,263,436,0,1,1186
8,86,6,6,0,6,1,263,436,0,1,1204
8,87,6,6,0,1,0,22,231,0,1,1588
8,87,6,6,0,2,5,22,231,0,1,1137
8,87,6,6,0,3,4,22,231,0,1,1154
8,87,6,6,0,4,3,22,231,0,1,1221.00000000012
8,87,6,6,0,5,2,22,231,0,1,1304
8,87,6,6,0,6,1,22,231,0,1,1220
8,88,7,7,0,1,0,185,375,0,1,1453
8,88,7,7,0,2,6,185,375,0,1,1103
8,88,7,7,0,3,5,185,375,0,1,1055
8,88,7,7,0,4,4,185,375,0,1,1172
8,88,7,7,0,5,3,185,375,0,1,1172
8,88,7,7,0,6,2,185,375,0,1,1287
8,88,7,7,0,7,1,185,375,0,1,1219
8,89,7,7,0,1,0,36,204,0,1,1488
8,89,7,7,0,2,6,36,204,0,1,1388
8,89,7,7,0,3,5,36,204,0,1,1204
8,89,7,7,0,4,4,36,204,0,1,1455
8,89,7,7,0,5,3,36,204,0,1,1555
8,89,7,7,0,6,2,36,204,0,1,1253.99999999988
8,89,7,7,0,7,1,36,204,0,1,1055
8,90,6,10,4,1,0,224,455,0,1,1871
8,90,6,10,4,2,5,224,455,0,1,1339.00000000012
8,90,6,10,4,3,4,224,455,0,1,1155.00000000012
8,90,6,10,4,4,3,224,455,0,1,1220
8,90,6,10,4,5,2,224,455,0,1,1139
8,90,6,10,4,6,1,224,455,0,1,1270.99999999988
8,90,6,10,4,7,0,224,455,0,1,1155
8,90,6,10,4,8,0,224,455,0,1,1705
8,90,6,10,4,9,0,224,455,0,1,1555.00000000012
8,90,6,10,4,10,0,224,455,0,1,1405
8,91,7,9,2,1,7,86,320,0,1,1656
8,91,7,9,2,2,6,86,320,0,1,1206
8,91,7,9,2,3,5,86,320,0,1,1305
8,91,7,9,2,4,4,86,320,0,1,1389
8,91,7,9,2,5,3,86,320,0,1,1206
8,91,7,9,2,6,2,86,320,0,1,1189.00000000012
8,91,7,9,2,7,1,86,320,0,1,1457
8,91,7,9,2,8,0,86,320,0,1,1203
8,91,7,9,2,9,0,86,320,0,1,1155
8,92,5,1,-4,1,5,64,218,0,1,1286
8,93,7,7,0,1,4,229,461,0,1,1438
8,93,7,7,0,2,6,229,461,0,1,1571
8,93,7,7,0,3,5,229,461,0,1,1240
8,93,7,7,0,4,4,229,461,0,1,1223.00000000012
8,93,7,7,0,5,3,229,461,0,1,1306
8,93,7,7,0,6,2,229,461,0,1,1339
8,93,7,7,0,7,1,229,461,0,1,1139
8,94,7,7,0,1,0,289,518,0,1,1323
8,94,7,7,0,2,6,289,518,0,1,1207
8,94,7,7,0,3,5,289,518,0,1,1339.99999999988
8,94,7,7,0,4,4,289,518,0,1,1257
8,94,7,7,0,5,3,289,518,0,1,1238.99999999988
8,94,7,7,0,6,2,289,518,0,1,1172
8,94,7,7,0,7,1,289,518,0,1,1237.99999999988
8,95,5,5,0,1,0,135,363,0,1,1406
8,95,5,5,0,2,4,135,363,0,1,1388
8,95,5,5,0,3,3,135,363,0,1,1223
8,95,5,5,0,4,2,135,363,0,1,1323
8,95,5,5,0,5,1,135,363,0,1,1423
8,96,7,7,0,1,0,258,439,0,1,1390
8,96,7,7,0,2,6,258,439,0,1,1508
8,96,7,7,0,3,5,258,439,0,1,1157.00000000012
8,96,7,7,0,4,4,258,439,0,1,1123.00000000012
8,96,7,7,0,5,3,258,439,0,1,1272
8,96,7,7,0,6,2,258,439,0,1,1207
8,96,7,7,0,7,1,258,439,0,1,1139.99999999988
3,1,5,2,-3,1,5,308,537,0,1,1881.5
3,1,5,2,-3,2,4,308,537,0,1,1358.69999999926
3,2,6,3,-3,1,3,250,438,0,1,1562.89999999851
3,2,6,3,-3,2,5,250,438,0,1,1455.79999999702
3,2,6,3,-3,3,4,250,438,0,1,1465
3,3,7,7,0,1,3,64,215,0,1,1756.09999999777
3,3,7,7,0,2,6,64,215,0,1,1445.5
3,3,7,7,0,3,5,64,215,0,1,1372.60000000149
3,3,7,7,0,4,4,64,215,0,1,1315.5
3,3,7,7,0,5,3,64,215,0,1,1308.69999999926
3,3,7,7,0,6,2,64,215,0,1,2289.29999999702
3,3,7,7,0,7,1,64,215,0,1,1429.59999999777
3,4,7,7,0,1,0,357,560,0,1,1517.80000000075
3,4,7,7,0,2,6,357,560,0,1,1401.30000000075
3,4,7,7,0,3,5,357,560,0,1,1506.30000000075
3,4,7,7,0,4,4,357,560,0,1,1390.60000000149
3,4,7,7,0,5,3,357,560,0,1,1233.79999999702
3,4,7,7,0,6,2,357,560,0,1,1274.5
3,4,7,7,0,7,1,357,560,0,1,1197.60000000149
3,5,6,6,0,1,0,224,372,0,1,1207.5
3,5,6,6,0,2,5,224,372,0,1,1309.10000000149
3,5,6,6,0,3,4,224,372,0,1,1677.79999999702
3,5,6,6,0,4,3,224,372,0,1,1572.30000000075
3,5,6,6,0,5,2,224,372,0,1,1283.10000000149
3,5,6,6,0,6,1,224,372,0,1,1367.10000000149
3,6,6,9,3,1,0,153,328,0,1,1321.59999999776
3,6,6,9,3,2,5,153,328,0,1,2053
3,6,6,9,3,3,4,153,328,0,1,1447.59999999777
3,6,6,9,3,4,3,153,328,0,1,1365.5
3,6,6,9,3,5,2,153,328,0,1,1759.40000000224
3,6,6,9,3,6,1,153,328,0,1,1239.90000000224
3,6,6,9,3,7,0,153,328,0,1,1863.69999999926
3,6,6,9,3,8,0,153,328,0,1,1409.39999999851
3,6,6,9,3,9,0,153,328,0,1,1411.40000000224
3,7,7,4,-3,1,7,30,209,0,1,1675.70000000298
3,7,7,4,-3,2,6,30,209,0,1,1521.5
3,7,7,4,-3,3,5,30,209,0,1,1300.69999999926
3,7,7,4,-3,4,4,30,209,0,1,1285.79999999702
3,8,6,10,4,1,3,58,278,0,1,1972
3,8,6,10,4,2,5,58,278,0,1,1459.80000000075
3,8,6,10,4,3,4,58,278,0,1,1273
3,8,6,10,4,4,3,58,278,0,1,1223.39999999851
3,8,6,10,4,5,2,58,278,0,1,1375.60000000149
3,8,6,10,4,6,1,58,278,0,1,1364.39999999851
3,8,6,10,4,7,0,58,278,0,1,1270.80000000075
3,8,6,10,4,8,0,58,278,0,1,1175.5
3,8,6,10,4,9,0,58,278,0,1,1240.89999999851
3,8,6,10,4,10,0,58,278,0,1,1200.80000000075
3,9,7,5,-2,1,7,110,312,0,1,1502.19999999926
3,9,7,5,-2,2,6,110,312,0,1,1414.80000000075
3,9,7,5,-2,3,5,110,312,0,1,1335.19999999926
3,9,7,5,-2,4,4,110,312,0,1,1244.69999999926
3,9,7,5,-2,5,3,110,312,0,1,1282.89999999851
3,10,7,7,0,1,2,292,474,0,1,2787.5
3,10,7,7,0,2,6,292,474,0,1,1421
3,10,7,7,0,3,5,292,474,0,1,1308.29999999702
3,10,7,7,0,4,4,292,474,0,1,1309.60000000149
3,10,7,7,0,5,3,292,474,0,1,1267.39999999851
3,10,7,7,0,6,2,292,474,0,1,1800.5
3,10,7,7,0,7,1,292,474,0,1,1184.30000000075
3,11,5,5,0,1,0,321,499,0,1,2185.69999999926
3,11,5,5,0,2,4,321,499,0,1,1209.69999999926
3,11,5,5,0,3,3,321,499,0,1,1268.90000000224
3,11,5,5,0,4,2,321,499,0,1,1741
3,11,5,5,0,5,1,321,499,0,1,1534.69999999926
3,12,5,5,0,1,0,185,416,0,1,1306.5
3,12,5,5,0,2,4,185,416,0,1,1281.80000000075
3,12,5,5,0,3,3,185,416,0,1,1649
3,12,5,5,0,4,2,185,416,0,1,1625.59999999776
3,12,5,5,0,5,1,185,416,0,1,1686.59999999776
3,13,7,11,4,1,0,301,482,0,1,1699
3,13,7,11,4,2,6,301,482,0,1,1274.90000000224
3,13,7,11,4,3,5,301,482,0,1,1219.5
3,13,7,11,4,4,4,301,482,0,1,1226
3,13,7,11,4,5,3,301,482,0,1,1228.40000000224
3,13,7,11,4,6,2,301,482,0,1,1224.29999999702
3,13,7,11,4,7,1,301,482,0,1,1311.20000000298
3,13,7,11,4,8,0,301,482,0,1,1282
3,13,7,11,4,9,0,301,482,0,1,1573
3,13,7,11,4,10,0,301,482,0,1,1646.80000000075
3,13,7,11,4,11,0,301,482,0,1,1663.69999999926
3,14,6,6,0,1,6,250,460,0,1,1273.39999999851
3,14,6,6,0,2,5,250,460,0,1,1402.10000000149
3,14,6,6,0,3,4,250,460,0,1,1347.19999999926
3,14,6,6,0,4,3,250,460,0,1,1424.39999999851
3,14,6,6,0,5,2,250,460,0,1,1440.90000000224
3,14,6,6,0,6,1,250,460,0,1,1392.19999999926
3,15,6,4,-2,1,0,171,336,0,1,1225.90000000224
3,15,6,4,-2,2,5,171,336,0,1,1329.20000000298
3,15,6,4,-2,3,4,171,336,0,1,1361.60000000149
3,15,6,4,-2,4,3,171,336,0,1,1665.80000000075
3,16,5,5,0,1,2,14,206,0,1,1546.69999999926
3,16,5,5,0,2,4,14,206,0,1,1343.10000000149
3,16,5,5,0,3,3,14,206,0,1,1403.80000000075
3,16,5,5,0,4,2,14,206,0,1,1369.80000000075
3,16,5,5,0,5,1,14,206,0,1,1975.89999999851
3,17,5,4,-1,1,0,10,218,0,1,1282.89999999851
3,17,5,4,-1,2,4,10,218,0,1,1070
3,17,5,4,-1,3,3,10,218,0,1,1566.80000000075
3,17,5,4,-1,4,2,10,218,0,1,1612.09999999776
3,18,6,7,1,1,1,335,532,0,1,1765.39999999851
3,18,6,7,1,2,5,335,532,0,1,1293.69999999926
3,18,6,7,1,3,4,335,532,0,1,1237
3,18,6,7,1,4,3,335,532,0,1,1336.60000000149
3,18,6,7,1,5,2,335,532,0,1,1276.80000000075
3,18,6,7,1,6,1,335,532,0,1,1543.39999999851
3,18,6,7,1,7,0,335,532,0,1,1927.5
3,19,7,7,0,1,7,292,470,0,1,1571.39999999851
3,19,7,7,0,2,6,292,470,0,1,1315.90000000224
3,19,7,7,0,3,5,292,470,0,1,1238
3,19,7,7,0,4,4,292,470,0,1,1777.19999999926
3,19,7,7,0,5,3,292,470,0,1,1464.80000000075
3,19,7,7,0,6,2,292,470,0,1,1226
3,19,7,7,0,7,1,292,470,0,1,1375.5
3,20,6,6,0,1,0,273,450,0,1,1319
3,20,6,6,0,2,5,273,450,0,1,1220.10000000149
3,20,6,6,0,3,4,273,450,0,1,1209.90000000224
3,20,6,6,0,4,3,273,450,0,1,1284.39999999851
3,20,6,6,0,5,2,273,450,0,1,1454.5
3,20,6,6,0,6,1,273,450,0,1,1166.10000000149
3,21,7,8,1,1,0,351,566,0,1,1179.80000000075
3,21,7,8,1,2,6,351,566,0,1,1248.10000000149
3,21,7,8,1,3,5,351,566,0,1,1662.40000000224
3,21,7,8,1,4,4,351,566,0,1,1217.59999999777
3,21,7,8,1,5,3,351,566,0,1,1572.69999999926
3,21,7,8,1,6,2,351,566,0,1,1221.69999999926
3,21,7,8,1,7,1,351,566,0,1,1550.30000000075
3,21,7,8,1,8,0,351,566,0,1,1550.89999999851
3,22,6,10,4,1,6,263,451,0,1,1736.19999999926
3,22,6,10,4,2,5,263,451,0,1,1619.20000000298
3,22,6,10,4,3,4,263,451,0,1,1719.60000000149
3,22,6,10,4,4,3,263,451,0,1,1227.29999999702
3,22,6,10,4,5,2,263,451,0,1,1552.30000000075
3,22,6,10,4,6,1,263,451,0,1,1225.19999999926
3,22,6,10,4,7,0,263,451,0,1,1676.20000000298
3,22,6,10,4,8,0,263,451,0,1,1333.80000000075
3,22,6,10,4,9,0,263,451,0,1,1368.90000000224
3,22,6,10,4,10,0,263,451,0,1,1182.79999999702
3,23,5,5,0,1,5,176,351,0,1,1222.5
3,23,5,5,0,2,4,176,351,0,1,1287.69999999926
3,23,5,5,0,3,3,176,351,0,1,1538.69999999926
3,23,5,5,0,4,2,176,351,0,1,1258
3,23,5,5,0,5,1,176,351,0,1,1508.19999999926
3,24,7,10,3,1,0,324,539,0,1,2775.69999999926
3,24,7,10,3,2,6,324,539,0,1,1571.80000000075
3,24,7,10,3,3,5,324,539,0,1,2389.80000000075
3,24,7,10,3,4,4,324,539,0,1,1435.89999999851
3,24,7,10,3,5,3,324,539,0,1,1361
3,24,7,10,3,6,2,324,539,0,1,1361.89999999851
3,24,7,10,3,7,1,324,539,0,1,1539.60000000149
3,24,7,10,3,8,0,324,539,0,1,1743
3,24,7,10,3,9,0,324,539,0,1,1309.30000000075
3,24,7,10,3,10,0,324,539,0,1,1335.10000000149
3,25,7,9,2,1,7,101,249,0,1,1534.10000000149
3,25,7,9,2,2,6,101,249,0,1,1348.10000000149
3,25,7,9,2,3,5,101,249,0,1,1396.30000000075
3,25,7,9,2,4,4,101,249,0,1,1330.30000000075
3,25,7,9,2,5,3,101,249,0,1,1484.59999999776
3,25,7,9,2,6,2,101,249,0,1,1292.5
3,25,7,9,2,7,1,101,249,0,1,1719.69999999926
3,25,7,9,2,8,0,101,249,0,1,1342.60000000149
3,25,7,9,2,9,0,101,249,0,1,1169.79999999702
3,26,5,5,0,1,5,1,212,0,1,1395.19999999926
3,26,5,5,0,2,4,1,212,0,1,1239.19999999926
3,26,5,5,0,3,3,1,212,0,1,1338.60000000149
3,26,5,5,0,4,2,1,212,0,1,1191.39999999851
3,26,5,5,0,5,1,1,212,0,1,1423.79999999702
3,27,6,6,0,1,0,142,343,0,1,1266.20000000298
3,27,6,6,0,2,5,142,343,0,1,1847.60000000149
3,27,6,6,0,3,4,142,343,0,1,1285.19999999926
3,27,6,6,0,4,3,142,343,0,1,1872.5
3,27,6,6,0,5,2,142,343,0,1,1727.30000000075
3,27,6,6,0,6,1,142,343,0,1,1380.5
3,28,5,7,2,1,0,313,466,0,1,1644.69999999925
3,28,5,7,2,2,4,313,466,0,1,1291.89999999851
3,28,5,7,2,3,3,313,466,0,1,1294.10000000149
3,28,5,7,2,4,2,313,466,0,1,1312.80000000075
3,28,5,7,2,5,1,313,466,0,1,1282.19999999926
3,28,5,7,2,6,0,313,466,0,1,1312.40000000224
3,28,5,7,2,7,0,313,466,0,1,1212.19999999926
3,29,6,8,2,1,6,357,545,0,1,1276
3,29,6,8,2,2,5,357,545,0,1,1425.19999999926
3,29,6,8,2,3,4,357,545,0,1,1306.69999999926
3,29,6,8,2,4,3,357,545,0,1,1394.5
3,29,6,8,2,5,2,357,545,0,1,1326.90000000224
3,29,6,8,2,6,1,357,545,0,1,1822.60000000149
3,29,6,8,2,7,0,357,545,0,1,1279.40000000224
3,29,6,8,2,8,0,357,545,0,1,1211.39999999851
3,30,6,8,2,1,6,198,358,0,1,2077.39999999851
3,30,6,8,2,2,5,198,358,0,1,1240
3,30,6,8,2,3,4,198,358,0,1,1484.20000000298
3,30,6,8,2,4,3,198,358,0,1,1376.19999999926
3,30,6,8,2,5,2,198,358,0,1,1532.89999999851
3,30,6,8,2,6,1,198,358,0,1,1165.5
3,30,6,8,2,7,0,198,358,0,1,1067.60000000149
3,30,6,8,2,8,0,198,358,0,1,1507
3,31,6,6,0,1,6,228,408,0,1,1400.59999999776
3,31,6,6,0,2,5,228,408,0,1,1693.80000000075
3,31,6,6,0,3,4,228,408,0,1,1271.39999999851
3,31,6,6,0,4,3,228,408,0,1,1140.89999999851
3,31,6,6,0,5,2,228,408,0,1,1103.60000000149
3,31,6,6,0,6,1,228,408,0,1,1627.19999999926
3,32,7,7,0,1,0,119,345,0,1,1743.09999999776
3,32,7,7,0,2,6,119,345,0,1,1259
3,32,7,7,0,3,5,119,345,0,1,1579.60000000149
3,32,7,7,0,4,4,119,345,0,1,1185.69999999926
3,32,7,7,0,5,3,119,345,0,1,1376.5
3,32,7,7,0,6,2,119,345,0,1,1677.10000000149
3,32,7,7,0,7,1,119,345,0,1,1284.59999999776
3,33,6,6,0,1,0,124,282,0,1,1656.30000000075
3,33,6,6,0,2,5,124,282,0,1,1231.79999999702
3,33,6,6,0,3,4,124,282,0,1,1180.19999999926
3,33,6,6,0,4,3,124,282,0,1,1405
3,33,6,6,0,5,2,124,282,0,1,1600.80000000075
3,33,6,6,0,6,1,124,282,0,1,1155.19999999926
3,34,7,10,3,1,0,186,341,0,1,1388.59999999777
3,34,7,10,3,2,6,186,341,0,1,1607.90000000224
3,34,7,10,3,3,5,186,341,0,1,1543.5
3,34,7,10,3,4,4,186,341,0,1,1349.89999999851
3,34,7,10,3,5,3,186,341,0,1,1455
3,34,7,10,3,6,2,186,341,0,1,1528.90000000224
3,34,7,10,3,7,1,186,341,0,1,1336.5
3,34,7,10,3,8,0,186,341,0,1,1437.09999999777
3,34,7,10,3,9,0,186,341,0,1,1821.10000000149
3,34,7,10,3,10,0,186,341,0,1,1405.39999999851
3,35,7,4,-3,1,7,235,468,0,1,1313.89999999851
3,35,7,4,-3,2,6,235,468,0,1,1473
3,35,7,4,-3,3,5,235,468,0,1,1223.20000000298
3,35,7,4,-3,4,4,235,468,0,1,1774.10000000149
3,36,6,6,0,1,3,348,554,0,1,1685.69999999926
3,36,6,6,0,2,5,348,554,0,1,1557.59999999776
3,36,6,6,0,3,4,348,554,0,1,1224
3,36,6,6,0,4,3,348,554,0,1,1365.5
3,36,6,6,0,5,2,348,554,0,1,1707.09999999777
3,36,6,6,0,6,1,348,554,0,1,1269
3,37,7,5,-2,1,0,102,336,0,1,1514.29999999702
3,37,7,5,-2,2,6,102,336,0,1,1394.70000000298
3,37,7,5,-2,3,5,102,336,0,1,1183.89999999851
3,37,7,5,-2,4,4,102,336,0,1,1121.40000000224
3,37,7,5,-2,5,3,102,336,0,1,1545.5
3,38,7,7,0,1,2,193,344,0,1,1275.69999999925
3,38,7,7,0,2,6,193,344,0,1,2104.19999999926
3,38,7,7,0,3,5,193,344,0,1,1361.40000000224
3,38,7,7,0,4,4,193,344,0,1,1440.90000000224
3,38,7,7,0,5,3,193,344,0,1,1344.10000000149
3,38,7,7,0,6,2,193,344,0,1,1107.5
3,38,7,7,0,7,1,193,344,0,1,1263.5
3,39,6,2,-4,1,0,203,435,0,1,1269.90000000224
3,39,6,2,-4,2,5,203,435,0,1,1674.69999999926
3,40,6,6,0,1,4,26,222,0,1,1203.80000000075
3,40,6,6,0,2,5,26,222,0,1,1250.80000000075
3,40,6,6,0,3,4,26,222,0,1,1379.29999999702
3,40,6,6,0,4,3,26,222,0,1,1219
3,40,6,6,0,5,2,26,222,0,1,1263.79999999702
3,40,6,6,0,6,1,26,222,0,1,1325.59999999776
3,41,5,6,1,1,0,307,454,0,1,1389.5
3,41,5,6,1,2,4,307,454,0,1,1857.59999999776
3,41,5,6,1,3,3,307,454,0,1,1148.89999999851
3,41,5,6,1,4,2,307,454,0,1,1819.19999999926
3,41,5,6,1,5,1,307,454,0,1,1183.59999999777
3,41,5,6,1,6,0,307,454,0,1,1247.30000000075
3,42,7,3,-4,1,7,108,320,0,1,1369.59999999776
3,42,7,3,-4,2,6,108,320,0,1,1313.39999999851
3,42,7,3,-4,3,5,108,320,0,1,1837.19999999926
3,43,7,7,0,1,4,295,462,0,1,1113.89999999851
3,43,7,7,0,2,6,295,462,0,1,1112.70000000298
3,43,7,7,0,3,5,295,462,0,1,1518.5
3,43,7,7,0,4,4,295,462,0,1,1191.80000000075
3,43,7,7,0,5,3,295,462,0,1,1593.89999999851
3,43,7,7,0,6,2,295,462,0,1,1236.19999999926
3,43,7,7,0,7,1,295,462,0,1,1175
3,44,6,3,-3,1,0,154,365,0,1,1338
3,44,6,3,-3,2,5,154,365,0,1,1149.5
3,44,6,3,-3,3,4,154,365,0,1,1540.70000000298
3,45,7,6,-1,1,3,30,177,0,1,1293.90000000224
3,45,7,6,-1,2,6,30,177,11,0,236.400000002235
3,,,,,,,,,,,
3,45,7,6,-1,3,5,30,177,0,1,1773.5
3,45,7,6,-1,4,4,30,177,0,1,1439.39999999851
3,45,7,6,-1,5,3,30,177,0,1,1227.39999999851
3,45,7,6,-1,6,2,30,177,0,1,1385.60000000149
3,46,7,7,0,1,1,167,373,0,1,1279.10000000149
3,46,7,7,0,2,6,167,373,0,1,1453.59999999777
3,46,7,7,0,3,5,167,373,0,1,1565.30000000075
3,46,7,7,0,4,4,167,373,0,1,1553.79999999702
3,46,7,7,0,5,3,167,373,0,1,1254.60000000149
3,46,7,7,0,6,2,167,373,0,1,1605.39999999851
3,46,7,7,0,7,1,167,373,0,1,1421.19999999926
3,47,5,5,0,1,0,250,401,0,1,1542.5
3,47,5,5,0,2,4,250,401,0,1,1455.80000000075
3,47,5,5,0,3,3,250,401,0,1,1351.60000000149
3,47,5,5,0,4,2,250,401,0,1,1341.5
3,47,5,5,0,5,1,250,401,0,1,1410.70000000298
3,48,5,9,4,1,0,52,204,0,1,1302.60000000149
3,48,5,9,4,2,4,52,204,0,1,1222
3,48,5,9,4,3,3,52,204,0,1,1130.60000000149
3,48,5,9,4,4,2,52,204,0,1,1388.39999999851
3,48,5,9,4,5,1,52,204,0,1,1194.10000000149
3,48,5,9,4,6,0,52,204,0,1,1342
3,48,5,9,4,7,0,52,204,0,1,1310.39999999851
3,48,5,9,4,8,0,52,204,0,1,1417
3,48,5,9,4,9,0,52,204,0,1,1246.69999999926
3,49,5,1,-4,1,5,201,375,0,1,1255.19999999926
3,50,5,4,-1,1,4,282,466,0,1,1572.19999999926
3,50,5,4,-1,2,4,282,466,0,1,1197.19999999925
3,50,5,4,-1,3,3,282,466,0,1,1238.60000000149
3,50,5,4,-1,4,2,282,466,0,1,1292.19999999926
3,51,6,6,0,1,1,296,444,0,1,1391.5
3,51,6,6,0,2,5,296,444,0,1,1244.80000000075
3,51,6,6,0,3,4,296,444,0,1,1308.80000000075
3,51,6,6,0,4,3,296,444,0,1,1216.60000000149
3,51,6,6,0,5,2,296,444,0,1,1226.89999999851
3,51,6,6,0,6,1,296,444,0,1,1360
3,52,7,9,2,1,0,74,304,0,1,1549.40000000224
3,52,7,9,2,2,6,74,304,0,1,1355
3,52,7,9,2,3,5,74,304,0,1,1417.80000000075
3,52,7,9,2,4,4,74,304,0,1,1257.59999999777
3,52,7,9,2,5,3,74,304,0,1,1127.5
3,52,7,9,2,6,2,74,304,0,1,1235.60000000149
3,52,7,9,2,7,1,74,304,0,1,1315.69999999926
3,52,7,9,2,8,0,74,304,0,1,1438.69999999926
3,52,7,9,2,9,0,74,304,0,1,1275.5
3,53,6,6,0,1,6,204,402,0,1,1607.69999999926
3,53,6,6,0,2,5,204,402,0,1,1318.19999999926
3,53,6,6,0,3,4,204,402,0,1,1124.19999999925
3,53,6,6,0,4,3,204,402,0,1,1314.10000000149
3,53,6,6,0,5,2,204,402,0,1,1151.89999999851
3,53,6,6,0,6,1,204,402,0,1,1167.30000000075
3,54,7,7,0,1,0,149,337,0,1,1261.19999999926
3,54,7,7,0,2,6,149,337,0,1,1399.5
3,54,7,7,0,3,5,149,337,0,1,1293.89999999851
3,54,7,7,0,4,4,149,337,0,1,1229.69999999926
3,54,7,7,0,5,3,149,337,0,1,1228.10000000149
3,54,7,7,0,6,2,149,337,0,1,1190.40000000224
3,54,7,7,0,7,1,149,337,0,1,1837.60000000149
3,55,5,5,0,1,0,261,465,0,1,1319.60000000149
3,55,5,5,0,2,4,261,465,0,1,1166.69999999926
3,55,5,5,0,3,3,261,465,0,1,1091.30000000075
3,55,5,5,0,4,2,261,465,0,1,1165
3,55,5,5,0,5,1,261,465,0,1,1117.09999999776
3,56,6,2,-4,1,0,166,326,0,1,1143.30000000075
3,56,6,2,-4,2,5,166,326,0,1,1297.80000000075
3,57,5,3,-2,1,4,117,311,0,1,1426
