participant,block_i,expected_length,real_length,lengthDiff,trial_i_within_block,next_wave_in,targetMeanColor,distractorMeanColor,clicked_monster_id,correct,rt
10,1,6,6,0,1,6,123,336,0,1,2711.69999998808
10,1,6,6,0,2,5,123,336,0,1,1859.40000003576
10,1,6,6,0,3,4,123,336,0,1,1661.29999995232
10,1,6,6,0,4,3,123,336,0,1,1493.10000002384
10,1,6,6,0,5,2,123,336,0,1,1562.90000003576
10,1,6,6,0,6,1,123,336,0,1,1343.39999997616
10,2,7,11,4,1,0,23,173,0,1,2211
10,2,7,11,4,2,6,23,173,0,1,2192
10,2,7,11,4,3,5,23,173,0,1,1493.89999997616
10,2,7,11,4,4,4,23,173,0,1,2161.10000002384
10,2,7,11,4,5,3,23,173,0,1,1679.69999998808
10,2,7,11,4,6,2,23,173,0,1,1458.59999996424
10,2,7,11,4,7,1,23,173,0,1,1626.90000003576
10,2,7,11,4,8,0,23,173,0,1,1579.19999998808
10,2,7,11,4,9,0,23,173,0,1,1658.5
10,2,7,11,4,10,0,23,173,0,1,1810.69999998808
10,2,7,11,4,11,0,23,173,0,1,1561.60000002384
10,3,5,1,-4,1,5,110,335,0,1,1662.60000002384
10,4,7,9,2,1,4,93,323,0,1,1562.29999995232
10,4,7,9,2,2,6,93,323,0,1,1544.90000003576
10,4,7,9,2,3,5,93,323,0,1,1682.69999998808
10,4,7,9,2,4,4,93,323,0,1,1194.59999996424
10,4,7,9,2,5,3,93,323,0,1,1291.59999996424
10,4,7,9,2,6,2,93,323,0,1,1378.79999995232
10,4,7,9,2,7,1,93,323,0,1,1862.80000001192
10,4,7,9,2,8,0,93,323,0,1,1145.39999997616
10,4,7,9,2,9,0,93,323,0,1,1576.39999997616
10,5,7,7,0,1,7,115,343,0,1,2045.5
10,5,7,7,0,2,6,115,343,0,1,1278.19999998808
10,5,7,7,0,3,5,115,343,0,1,1345.19999998808
10,5,7,7,0,4,4,115,343,0,1,1343.10000002384
10,5,7,7,0,5,3,115,343,0,1,1562.5
10,5,7,7,0,6,2,115,343,0,1,1213.60000002384
10,5,7,7,0,7,1,115,343,0,1,1519.39999997616
10,6,7,7,0,1,0,282,445,0,1,2095.90000003576
10,6,7,7,0,2,6,282,445,0,1,1496.30000001192
10,6,7,7,0,3,5,282,445,0,1,1391.80000001192
10,6,7,7,0,4,4,282,445,0,1,1295.89999997616
10,6,7,7,0,5,3,282,445,0,1,1278.40000003576
10,6,7,7,0,6,2,282,445,0,1,1220.19999998808
10,6,7,7,0,7,1,282,445,0,1,1397.90000003576
10,7,6,5,-1,1,0,97,289,0,1,1495.89999997616
10,7,6,5,-1,2,5,97,289,0,1,1243.39999997616
10,7,6,5,-1,3,4,97,289,0,1,1257.90000003576
10,7,6,5,-1,4,3,97,289,0,1,1282.70000004768
10,7,6,5,-1,5,2,97,289,0,1,1492.59999996424
10,8,5,5,0,1,1,102,310,0,1,1338
10,8,5,5,0,2,4,102,310,0,1,1461.39999997616
10,8,5,5,0,3,3,102,310,0,1,1411.5
10,8,5,5,0,4,2,102,310,0,1,1511.40000003576
10,8,5,5,0,5,1,102,310,0,1,1562.60000002384
10,9,5,2,-3,1,0,209,362,0,1,1694.5
10,9,5,2,-3,2,4,209,362,0,1,2179.29999995232
10,10,5,8,3,1,3,340,540,0,1,1429.09999996424
10,10,5,8,3,2,4,340,540,0,1,1278.19999998808
10,10,5,8,3,3,3,340,540,0,1,1361.5
10,10,5,8,3,4,2,340,540,0,1,1340.5
10,10,5,8,3,5,1,340,540,0,1,1361.40000003576
10,10,5,8,3,6,0,340,540,0,1,1246.5
10,10,5,8,3,7,0,340,540,0,1,1292.39999997616
10,10,5,8,3,8,0,340,540,0,1,1443.60000002384
10,11,6,7,1,1,6,130,342,0,1,3613.09999996424
10,11,6,7,1,2,5,130,342,0,1,1509.80000001192
10,11,6,7,1,3,4,130,342,0,1,1278.39999997616
10,11,6,7,1,4,3,130,342,0,1,1362.29999995232
10,11,6,7,1,5,2,130,342,0,1,1430.90000003576
10,11,6,7,1,6,1,130,342,0,1,1558.19999998808
10,11,6,7,1,7,0,130,342,0,1,1928.69999998808
10,12,5,5,0,1,5,140,310,0,1,1378.59999996424
10,12,5,5,0,2,4,140,310,0,1,1294.40000003576
10,12,5,5,0,3,3,140,310,0,1,1163.40000003576
10,12,5,5,0,4,2,140,310,0,1,1227.89999997616
10,12,5,5,0,5,1,140,310,0,1,1404.89999997616
10,13,7,6,-1,1,0,55,225,0,1,1397.60000002384
10,13,7,6,-1,2,6,55,225,0,1,1344
10,13,7,6,-1,3,5,55,225,0,1,1410.90000003576
10,13,7,6,-1,4,4,55,225,0,1,1813.30000001192
10,13,7,6,-1,5,3,55,225,0,1,2191.90000003576
10,13,7,6,-1,6,2,55,225,0,1,1311.10000002384
10,14,7,4,-3,1,1,244,454,0,1,1328.89999997616
10,14,7,4,-3,2,6,244,454,0,1,1207.79999995232
10,14,7,4,-3,3,5,244,454,0,1,1277.5
10,14,7,4,-3,4,4,244,454,0,1,1377
10,15,6,6,0,1,3,2,233,0,1,1776.89999997616
10,15,6,6,0,2,5,2,233,0,1,1312.89999997616
10,15,6,6,0,3,4,2,233,0,1,1128
10,15,6,6,0,4,3,2,233,0,1,2397
10,15,6,6,0,5,2,2,233,0,1,1682.39999997616
10,15,6,6,0,6,1,2,233,0,1,1125.89999997616
10,16,5,5,0,1,0,153,315,0,1,3344.80000001192
10,16,5,5,0,2,4,153,315,0,1,1245
10,16,5,5,0,3,3,153,315,0,1,1212.40000003576
10,16,5,5,0,4,2,153,315,0,1,1460.60000002384
10,16,5,5,0,5,1,153,315,0,1,1360.70000004768
10,17,7,7,0,1,0,252,433,0,1,1924.10000002384
10,17,7,7,0,2,6,252,433,0,1,1296.80000001192
10,17,7,7,0,3,5,252,433,0,1,1313.29999995232
10,17,7,7,0,4,4,252,433,0,1,1343.60000002384
10,17,7,7,0,5,3,252,433,0,1,1223.10000002384
10,17,7,7,0,6,2,252,433,0,1,1182.30000001192
10,17,7,7,0,7,1,252,433,0,1,1175.90000003576
10,18,5,1,-4,1,0,225,376,0,1,1482.90000003576
10,19,6,6,0,1,6,297,483,0,1,1258.69999998808
10,19,6,6,0,2,5,297,483,0,1,1207.89999997616
10,19,6,6,0,3,4,297,483,0,1,1713.40000003576
10,19,6,6,0,4,3,297,483,0,1,1112.19999998808
10,19,6,6,0,5,2,297,483,0,1,1212.19999998808
10,19,6,6,0,6,1,297,483,0,1,1212.29999995232
10,20,6,2,-4,1,0,99,289,0,1,1605
10,20,6,2,-4,2,5,99,289,0,1,1194.80000001192
10,21,6,6,0,1,4,320,489,0,1,1362
10,21,6,6,0,2,5,320,489,0,1,1763.40000003576
10,21,6,6,0,3,4,320,489,0,1,1129.30000001192
10,21,6,6,0,4,3,320,489,0,1,1343.40000003576
10,21,6,6,0,5,2,320,489,0,1,1180
10,21,6,6,0,6,1,320,489,0,1,1222.69999998808
10,22,5,5,0,1,0,5,201,0,1,1362.19999998808
10,22,5,5,0,2,4,5,201,0,1,1112.10000002384
10,22,5,5,0,3,3,5,201,0,1,1361.19999998808
10,22,5,5,0,4,2,5,201,0,1,1064.80000001192
10,22,5,5,0,5,1,5,201,0,1,1021.20000004768
10,23,6,9,3,1,0,96,286,0,1,1327.90000003576
10,23,6,9,3,2,5,96,286,0,1,2212.39999997616
10,23,6,9,3,3,4,96,286,0,1,1178.69999998808
10,23,6,9,3,4,3,96,286,0,1,1746.59999996424
10,23,6,9,3,5,2,96,286,0,1,1263.70000004768
10,23,6,9,3,6,1,96,286,0,1,1276.40000003576
10,23,6,9,3,7,0,96,286,0,1,1229.60000002384
10,23,6,9,3,8,0,96,286,0,1,1415.39999997616
10,23,6,9,3,9,0,96,286,0,1,970.400000035763
10,24,7,4,-3,1,7,54,279,0,1,1128.5
10,24,7,4,-3,2,6,54,279,0,1,1064.19999998808
10,24,7,4,-3,3,5,54,279,0,1,1323.59999996424
10,24,7,4,-3,4,4,54,279,0,1,1027.80000001192
10,25,5,7,2,1,3,46,196,0,1,1245.39999997616
10,25,5,7,2,2,4,46,196,0,1,1080.79999995232
10,25,5,7,2,3,3,46,196,0,1,1062.39999997616
10,25,5,7,2,4,2,46,196,0,1,940.699999988079
10,25,5,7,2,5,1,46,196,0,1,1179.39999997616
10,25,5,7,2,6,0,46,196,0,1,995.199999988079
10,25,5,7,2,7,0,46,196,0,1,1273.90000003576
10,26,7,9,2,1,7,169,333,0,1,1394.19999998808
10,26,7,9,2,2,6,169,333,0,1,1178.89999997616
10,26,7,9,2,3,5,169,333,0,1,1211.79999995232
10,26,7,9,2,4,4,169,333,0,1,1379.5
10,26,7,9,2,5,3,169,333,0,1,1173.5
10,26,7,9,2,6,2,169,333,0,1,1095
10,26,7,9,2,7,1,169,333,0,1,1211.30000001192
10,26,7,9,2,8,0,169,333,0,1,1624.69999998808
10,26,7,9,2,9,0,169,333,0,1,995.200000047684
10,27,6,7,1,1,6,135,355,0,1,1129.79999995232
10,27,6,7,1,2,5,135,355,0,1,1262.5
10,27,6,7,1,3,4,135,355,0,1,1061.59999996424
10,27,6,7,1,4,3,135,355,0,1,1606.5
10,27,6,7,1,5,2,135,355,0,1,1277.39999997616
10,27,6,7,1,6,1,135,355,0,1,2946.30000001192
10,27,6,7,1,7,0,135,355,0,1,1178.5
10,28,7,7,0,1,7,117,299,0,1,1378.40000003576
10,28,7,7,0,2,6,117,299,0,1,1245.59999996424
10,28,7,7,0,3,5,117,299,0,1,1279.19999998808
10,28,7,7,0,4,4,117,299,0,1,1562.79999995232
10,28,7,7,0,5,3,117,299,0,1,1074.09999996424
10,28,7,7,0,6,2,117,299,0,1,1412.5
10,28,7,7,0,7,1,117,299,0,1,1179.19999998808
10,29,5,4,-1,1,0,58,265,0,1,1145
10,29,5,4,-1,2,4,58,265,0,1,1162.5
10,29,5,4,-1,3,3,58,265,0,1,1341.30000001192
10,29,5,4,-1,4,2,58,265,0,1,1645.89999997616
10,30,7,7,0,1,1,330,512,0,1,1394.30000001192
10,30,7,7,0,2,6,330,512,0,1,1095.10000002384
10,30,7,7,0,3,5,330,512,0,1,1044.80000001192
10,30,7,7,0,4,4,330,512,0,1,973
10,30,7,7,0,5,3,330,512,0,1,1211.79999995232
10,30,7,7,0,6,2,330,512,0,1,1279
10,30,7,7,0,7,1,330,512,0,1,1290.30000001192
10,31,7,3,-4,1,0,1,203,0,1,1329.40000003576
10,31,7,3,-4,2,6,1,203,0,1,1144.70000004768
10,31,7,3,-4,3,5,1,203,0,1,1229.19999998808
10,32,7,7,0,1,4,290,509,0,1,1814.5
10,32,7,7,0,2,6,290,509,0,1,1110.89999997616
10,32,7,7,0,3,5,290,509,0,1,1262.80000001192
10,32,7,7,0,4,4,290,509,0,1,1257.80000001192
10,32,7,7,0,5,3,290,509,0,1,1112.80000001192
10,32,7,7,0,6,2,290,509,0,1,1112.30000001192
10,32,7,7,0,7,1,290,509,0,1,1289.80000001192
10,33,5,5,0,1,0,314,518,0,1,1390.89999997616
10,33,5,5,0,2,4,314,518,0,1,1129.19999998808
10,33,5,5,0,3,3,314,518,0,1,1062.5
10,33,5,5,0,4,2,314,518,0,1,1178.10000002384
10,33,5,5,0,5,1,314,518,0,1,1189.90000003576
10,34,7,10,3,1,0,333,525,0,1,1213.89999997616
10,34,7,10,3,2,6,333,525,0,1,1161.39999997616
10,34,7,10,3,3,5,333,525,0,1,1296.79999995232
10,34,7,10,3,4,4,333,525,0,1,1112.40000003576
10,34,7,10,3,5,3,333,525,0,1,1041.60000002384
10,34,7,10,3,6,2,333,525,0,1,2644.60000002384
10,34,7,10,3,7,1,333,525,0,1,1345.40000003576
10,34,7,10,3,8,0,333,525,0,1,1412.19999998808
10,34,7,10,3,9,0,333,525,0,1,1345.19999998808
10,34,7,10,3,10,0,333,525,0,1,3130.09999996424
10,35,6,6,0,1,6,21,219,0,1,1461.19999998808
10,35,6,6,0,2,5,21,219,0,1,1178.80000001192
10,35,6,6,0,3,4,21,219,0,1,1279.19999998808
10,35,6,6,0,4,3,21,219,0,1,1441.79999995232
10,35,6,6,0,5,2,21,219,0,1,1428.80000001192
10,35,6,6,0,6,1,21,219,0,1,1462.60000002384
10,36,5,8,3,1,0,151,317,0,1,1261.10000002384
10,36,5,8,3,2,4,151,317,0,1,1811.59999996424
10,36,5,8,3,3,3,151,317,0,1,1478.89999997616
10,36,5,8,3,4,2,151,317,0,1,1465.79999995232
10,36,5,8,3,5,1,151,317,0,1,1244.19999998808
10,36,5,8,3,6,0,151,317,0,1,1344.19999998808
10,36,5,8,3,7,0,151,317,0,1,1378.20000004768
10,36,5,8,3,8,0,151,317,0,1,1379.30000001192
10,37,6,6,0,1,6,346,513,0,1,2523.90000003576
10,37,6,6,0,2,5,346,513,0,1,1612.39999997616
10,37,6,6,0,3,4,346,513,0,1,1595
10,37,6,6,0,4,3,346,513,0,1,1478.5
10,37,6,6,0,5,2,346,513,0,1,1145.69999998808
10,37,6,6,0,6,1,346,513,0,1,1206.39999997616
10,38,5,5,0,1,0,106,280,0,1,2147.80000001192
10,38,5,5,0,2,4,106,280,0,1,1144
10,38,5,5,0,3,3,106,280,0,1,1646.19999998808
10,38,5,5,0,4,2,106,280,0,1,1356.5
10,38,5,5,0,5,1,106,280,0,1,1295.80000001192
10,39,7,6,-1,1,0,139,358,0,1,1177.40000003576
10,39,7,6,-1,2,6,139,358,0,1,1129.40000003576
10,39,7,6,-1,3,5,139,358,0,1,1295
10,39,7,6,-1,4,4,139,358,0,1,2613.5
10,39,7,6,-1,5,3,139,358,0,1,1246
10,39,7,6,-1,6,2,139,358,0,1,1548.69999998808
10,40,5,3,-2,1,1,213,431,0,1,1525.60000002384
10,40,5,3,-2,2,4,213,431,0,1,1411.09999996424
10,40,5,3,-2,3,3,213,431,0,1,1228.89999997616
10,41,5,5,0,1,2,32,228,0,1,1344.20000004768
10,41,5,5,0,2,4,32,228,0,1,2029.10000002384
10,41,5,5,0,3,3,32,228,0,1,1273.60000002384
10,41,5,5,0,4,2,32,228,0,1,1364.10000002384
10,41,5,5,0,5,1,32,228,0,1,1694.60000002384
10,42,6,6,0,1,0,25,225,0,1,1044.90000003576
10,42,6,6,0,2,5,25,225,0,1,1128.69999998808
10,42,6,6,0,3,4,25,225,0,1,2242.10000002384
10,42,6,6,0,4,3,25,225,0,1,1460.59999996424
10,42,6,6,0,5,2,25,225,0,1,2476.5
10,42,6,6,0,6,1,25,225,0,1,1779.5
10,43,7,7,0,1,0,59,224,0,1,1279.39999997616
10,43,7,7,0,2,6,59,224,0,1,1511.39999997616
10,43,7,7,0,3,5,59,224,0,1,2166.19999998808
10,43,7,7,0,4,4,59,224,0,1,1192.40000003576
10,43,7,7,0,5,3,59,224,0,1,1162.5
10,43,7,7,0,6,2,59,224,0,1,1324.19999998808
10,43,7,7,0,7,1,59,224,0,1,1164.5
10,44,5,7,2,1,0,77,238,0,1,1078.29999995232
10,44,5,7,2,2,4,77,238,0,1,1306.30000001192
10,44,5,7,2,3,3,77,238,0,1,1178.69999998808
10,44,5,7,2,4,2,77,238,0,1,1529.70000004768
10,44,5,7,2,5,1,77,238,0,1,1312
10,44,5,7,2,6,0,77,238,0,1,1393.5
10,44,5,7,2,7,0,77,238,0,1,2140.5
10,45,5,4,-1,1,5,336,510,0,1,1312.89999997616
10,45,5,4,-1,2,4,336,510,0,1,1478.40000003576
10,45,5,4,-1,3,3,336,510,0,1,1128.59999996424
10,45,5,4,-1,4,2,336,510,0,1,1441.29999995232
10,46,5,5,0,1,1,178,378,0,1,1346.69999998808
10,46,5,5,0,2,4,178,378,0,1,1081.80000001192
10,46,5,5,0,3,3,178,378,0,1,1374.80000001192
10,46,5,5,0,4,2,178,378,0,1,1362.20000004768
10,46,5,5,0,5,1,178,378,0,1,1107.39999997616
10,47,6,6,0,1,0,39,235,0,1,1280.20000004768
10,47,6,6,0,2,5,39,235,0,1,1160.40000003576
10,47,6,6,0,3,4,39,235,0,1,1123.80000001192
10,47,6,6,0,4,3,39,235,0,1,1097
10,47,6,6,0,5,2,39,235,0,1,1062.5
10,47,6,6,0,6,1,39,235,0,1,1206.89999997616
10,48,7,8,1,1,0,224,382,0,1,1177.90000003576
10,48,7,8,1,2,6,224,382,0,1,1096.10000002384
10,48,7,8,1,3,5,224,382,0,1,1290.79999995232
10,48,7,8,1,4,4,224,382,0,1,1178.39999997616
10,48,7,8,1,5,3,224,382,0,1,1232.20000004768
10,48,7,8,1,6,2,224,382,0,1,1245.30000001192
10,48,7,8,1,7,1,224,382,0,1,1263.89999997616
10,48,7,8,1,8,0,224,382,0,1,1108.40000003576
10,49,6,9,3,1,6,157,391,0,1,1404.5
10,49,6,9,3,2,5,157,391,0,1,1398.89999997616
10,49,6,9,3,3,4,157,391,0,1,1103.90000003576
10,49,6,9,3,4,3,157,391,0,1,1196.5
10,49,6,9,3,5,2,157,391,0,1,1161.39999997616
10,49,6,9,3,6,1,157,391,0,1,1214.60000002384
10,49,6,9,3,7,0,157,391,0,1,1276.69999998808
10,49,6,9,3,8,0,157,391,0,1,1591.39999997616
10,49,6,9,3,9,0,157,391,0,1,1128.19999998808
10,50,7,7,0,1,7,162,368,0,1,1146.10000002384
10,50,7,7,0,2,6,162,368,0,1,1280.19999998808
10,50,7,7,0,3,5,162,368,0,1,1064.09999996424
10,50,7,7,0,4,4,162,368,0,1,1589.69999998808
10,50,7,7,0,5,3,162,368,0,1,1645.30000001192
10,50,7,7,0,6,2,162,368,0,1,1279.5
10,50,7,7,0,7,1,162,368,0,1,1329.19999998808
10,51,6,6,0,1,0,210,412,0,1,1172.90000003576
10,51,6,6,0,2,5,210,412,0,1,1261.89999997616
10,51,6,6,0,3,4,210,412,0,1,1144.39999997616
10,51,6,6,0,4,3,210,412,0,1,1174.69999998808
10,51,6,6,0,5,2,210,412,0,1,1212.30000001192
10,51,6,6,0,6,1,210,412,0,1,1144.69999998808
10,52,6,3,-3,1,0,131,328,0,1,1256.39999997616
10,52,6,3,-3,2,5,131,328,0,1,1280.19999998808
10,52,6,3,-3,3,4,131,328,0,1,1096.19999998808
10,53,6,6,0,1,3,192,408,0,1,1141.19999998808
10,53,6,6,0,2,5,192,408,0,1,1329
10,53,6,6,0,3,4,192,408,0,1,1081
10,53,6,6,0,4,3,192,408,0,1,1139.09999996424
10,53,6,6,0,5,2,192,408,0,1,1379
10,53,6,6,0,6,1,192,408,0,1,1096.10000002384
10,54,5,6,1,1,0,208,443,0,1,1250.39999997616
10,54,5,6,1,2,4,208,443,0,1,992.600000023842
10,54,5,6,1,3,3,208,443,0,1,1141.5
10,54,5,6,1,4,2,208,443,0,1,1394.90000003576
10,54,5,6,1,5,1,208,443,0,1,1278.89999997616
10,54,5,6,1,6,0,208,443,0,1,1115.80000001192
10,55,7,5,-2,1,7,191,354,0,1,1308.19999998808
10,55,7,5,-2,2,6,191,354,0,1,3224.80000001192
10,55,7,5,-2,3,5,191,354,0,1,1196.5
10,55,7,5,-2,4,4,191,354,0,1,1245.80000001192
10,55,7,5,-2,5,3,191,354,0,1,1340
10,56,6,10,4,1,2,340,517,0,1,1779.5
10,56,6,10,4,2,5,340,517,0,1,1362.69999998808
10,56,6,10,4,3,4,340,517,0,1,1312.39999997616
10,56,6,10,4,4,3,340,517,0,1,1211.69999998808
10,56,6,10,4,5,2,340,517,0,1,1679.39999997616
10,56,6,10,4,6,1,340,517,0,1,1245.60000002384
10,56,6,10,4,7,0,340,517,0,1,1412.19999998808
10,56,6,10,4,8,0,340,517,0,1,1129.80000001192
10,56,6,10,4,9,0,340,517,0,1,1340.59999996424
10,56,6,10,4,10,0,340,517,0,1,1297.40000003576
10,57,5,5,0,1,5,200,419,0,1,1198.30000001192
10,57,5,5,0,2,4,200,419,0,1,1142.80000001192
10,57,5,5,0,3,3,200,419,0,1,1212.69999998808
10,57,5,5,0,4,2,200,419,0,1,1157.70000004768
10,57,5,5,0,5,1,200,419,0,1,1112.19999998808
10,58,5,5,0,1,0,48,236,0,1,1280.90000003576
10,58,5,5,0,2,4,48,236,0,1,1373.89999997616
10,58,5,5,0,3,3,48,236,0,1,1378.10000002384
10,58,5,5,0,4,2,48,236,0,1,1180.89999997616
10,58,5,5,0,5,1,48,236,0,1,1245.10000002384
10,59,7,8,1,1,0,307,508,0,1,1412.79999995232
10,59,7,8,1,2,6,307,508,0,1,1606.80000001192
10,59,7,8,1,3,5,307,508,0,1,1612.29999995232
10,59,7,8,1,4,4,307,508,0,1,1262.20000004768
10,59,7,8,1,5,3,307,508,0,1,1212.10000002384
10,59,7,8,1,6,2,307,508,0,1,1125
10,59,7,8,1,7,1,307,508,0,1,1244.89999997616
10,59,7,8,1,8,0,307,508,0,1,1129.59999996424
10,60,6,4,-2,1,6,6,234,0,1,1057
10,60,6,4,-2,2,5,6,234,0,1,1481.29999995232
10,60,6,4,-2,3,4,6,234,0,1,2109.70000004768
10,60,6,4,-2,4,3,6,234,0,1,1378.39999997616
10,61,7,11,4,1,2,123,308,0,1,1578.80000001192
10,61,7,11,4,2,6,123,308,0,1,1079.30000001192
10,61,7,11,4,3,5,123,308,0,1,1129
10,61,7,11,4,4,4,123,308,0,1,1224.69999998808
10,61,7,11,4,5,3,123,308,0,1,1245.80000001192
10,61,7,11,4,6,2,123,308,0,1,1078.69999998808
10,61,7,11,4,7,1,123,308,0,1,2056.70000004768
10,61,7,11,4,8,0,123,308,0,1,2311.89999997616
10,61,7,11,4,9,0,123,308,0,1,1596.80000001192
10,61,7,11,4,10,0,123,308,0,1,1112.09999996424
10,61,7,11,4,11,0,123,308,0,1,1346.40000003576
10,62,5,5,0,1,5,220,402,0,1,1090
10,62,5,5,0,2,4,220,402,0,1,1977.40000003576
10,62,5,5,0,3,3,220,402,0,1,1813.10000002384
10,62,5,5,0,4,2,220,402,0,1,1711.89999997616
10,62,5,5,0,5,1,220,402,0,1,1415
10,63,6,10,4,1,0,55,248,0,1,1658.80000001192
10,63,6,10,4,2,5,55,248,0,1,2362.80000001192
10,63,6,10,4,3,4,55,248,0,1,1346
10,63,6,10,4,4,3,55,248,0,1,1129.59999996424
10,63,6,10,4,5,2,55,248,0,1,1213.69999998808
10,63,6,10,4,6,1,55,248,0,1,1206.70000004768
10,63,6,10,4,7,0,55,248,0,1,1396.19999998808
10,63,6,10,4,8,0,55,248,0,1,1279.19999998808
10,63,6,10,4,9,0,55,248,0,1,1129
10,63,6,10,4,10,0,55,248,0,1,1712.39999997616
10,64,6,2,-4,1,6,359,557,0,1,1608.39999997616
10,64,6,2,-4,2,5,359,557,0,1,1797.10000002384
10,65,6,8,2,1,4,273,459,0,1,1229
10,65,6,8,2,2,5,273,459,0,1,1061.30000001192
10,65,6,8,2,3,4,273,459,0,1,1039.59999996424
10,65,6,8,2,4,3,273,459,0,1,1261.80000001192
10,65,6,8,2,5,2,273,459,0,1,1194.90000003576
10,65,6,8,2,6,1,273,459,0,1,1224
10,65,6,8,2,7,0,273,459,0,1,1263
10,65,6,8,2,8,0,273,459,0,1,1644.69999998808
10,66,5,3,-2,1,5,169,383,0,1,1277.69999998808
10,66,5,3,-2,2,4,169,383,0,1,1147.60000002384
10,66,5,3,-2,3,3,169,383,0,1,1223
10,67,7,7,0,1,2,78,273,0,1,1377.30000001192
10,67,7,7,0,2,6,78,273,0,1,1363.29999995232
10,67,7,7,0,3,5,78,273,0,1,1262.59999996424
10,67,7,7,0,4,4,78,273,0,1,1395.80000001192
10,67,7,7,0,5,3,78,273,0,1,1891.29999995232
10,67,7,7,0,6,2,78,273,0,1,1127.80000001192
10,67,7,7,0,7,1,78,273,0,1,1312.30000001192
10,68,6,3,-3,1,0,209,416,0,1,1543.69999998808
10,68,6,3,-3,2,5,209,416,0,1,1211.39999997616
10,68,6,3,-3,3,4,209,416,0,1,1427.59999996424
10,69,6,6,0,1,3,106,331,0,1,1448.5
10,69,6,6,0,2,5,106,331,0,1,1225.80000001192
10,69,6,6,0,3,4,106,331,0,1,1145.30000001192
10,69,6,6,0,4,3,106,331,0,1,1323
10,69,6,6,0,5,2,106,331,0,1,1464.19999998808
10,69,6,6,0,6,1,106,331,0,1,1275.89999997616
10,70,7,10,3,1,0,275,477,0,1,1462.19999998808
10,70,7,10,3,2,6,275,477,0,1,1262.79999995232
10,70,7,10,3,3,5,275,477,0,1,945.599999964237
10,70,7,10,3,4,4,275,477,0,1,1228.79999995232
10,70,7,10,3,5,3,275,477,0,1,1271.60000002384
10,70,7,10,3,6,2,275,477,0,1,1345.30000001192
10,70,7,10,3,7,1,275,477,0,1,1462.5
10,70,7,10,3,8,0,275,477,0,1,1177.89999997616
10,70,7,10,3,9,0,275,477,0,1,1197.40000003576
10,70,7,10,3,10,0,275,477,0,1,1188.80000001192
10,71,7,7,0,1,7,246,400,0,1,1311.89999997616
10,71,7,7,0,2,6,246,400,0,1,1044.89999997616
10,71,7,7,0,3,5,246,400,0,1,1956.30000001192
10,71,7,7,0,4,4,246,400,0,1,1944.80000001192
10,71,7,7,0,5,3,246,400,0,1,1346.09999996424
10,71,7,7,0,6,2,246,400,0,1,1178.80000001192
10,71,7,7,0,7,1,246,400,0,1,1496.30000001192
10,72,6,6,0,1,0,267,456,0,1,1515.19999998808
10,72,6,6,0,2,5,267,456,0,1,1394.5
10,72,6,6,0,3,4,267,456,0,1,1111.69999998808
10,72,6,6,0,4,3,267,456,0,1,1005.80000001192
10,72,6,6,0,5,2,267,456,0,1,1361.79999995232
10,72,6,6,0,6,1,267,456,0,1,1110.80000001192
10,73,6,6,0,1,0,303,522,0,1,1423.59999996424
10,73,6,6,0,2,5,303,522,0,1,1194.10000002384
10,73,6,6,0,3,4,303,522,0,1,1397.60000002384
10,73,6,6,0,4,3,303,522,0,1,1159.89999997616
10,73,6,6,0,5,2,303,522,0,1,1395.60000002384
10,73,6,6,0,6,1,303,522,0,1,1223.40000003576
10,74,7,7,0,1,0,228,420,0,1,1229.39999997616
10,74,7,7,0,2,6,228,420,0,1,1646
10,74,7,7,0,3,5,228,420,0,1,1392.30000001192
10,74,7,7,0,4,4,228,420,0,1,1361.19999998808
10,74,7,7,0,5,3,228,420,0,1,1179
10,74,7,7,0,6,2,228,420,0,1,1112.5
10,74,7,7,0,7,1,228,420,0,1,1940.30000001192
10,75,5,5,0,1,0,152,313,0,1,1229.60000002384
10,75,5,5,0,2,4,152,313,0,1,1263.5
10,75,5,5,0,3,3,152,313,0,1,1178.60000002384
10,75,5,5,0,4,2,152,313,0,1,1524.70000004768
10,75,5,5,0,5,1,152,313,0,1,1295.60000002384
10,76,7,7,0,1,0,236,407,0,1,1194.90000003576
10,76,7,7,0,2,6,236,407,0,1,1428.39999997616
10,76,7,7,0,3,5,236,407,0,1,1211.80000001192
10,76,7,7,0,4,4,236,407,0,1,1138.30000001192
10,76,7,7,0,5,3,236,407,0,1,2344.79999995232
10,76,7,7,0,6,2,236,407,0,1,1193.10000002384
10,76,7,7,0,7,1,236,407,0,1,1429.09999996424
10,77,5,5,0,1,0,254,439,0,1,1440
10,77,5,5,0,2,4,254,439,0,1,1127.10000002384
10,77,5,5,0,3,3,254,439,0,1,1412
10,77,5,5,0,4,2,254,439,0,1,1662.10000002384
10,77,5,5,0,5,1,254,439,0,1,1113.10000002384
10,78,5,6,1,1,0,163,350,0,1,1264.60000002384
10,78,5,6,1,2,4,163,350,0,1,1560.19999998808
10,78,5,6,1,3,3,163,350,0,1,1239
10,78,5,6,1,4,2,163,350,0,1,1211.69999998808
10,78,5,6,1,5,1,163,350,0,1,1411.59999996424
10,78,5,6,1,6,0,163,350,0,1,1712.80000001192
10,79,5,9,4,1,5,176,390,0,1,1144.69999998808
10,79,5,9,4,2,4,176,390,0,1,1521.80000001192
10,79,5,9,4,3,3,176,390,0,1,1445.39999997616
10,79,5,9,4,4,2,176,390,0,1,1262.69999998808
10,79,5,9,4,5,1,176,390,0,1,1394.19999998808
10,79,5,9,4,6,0,176,390,0,1,1128.89999997616
10,79,5,9,4,7,0,176,390,0,1,1495.19999998808
10,79,5,9,4,8,0,176,390,0,1,1312.69999998808
10,79,5,9,4,9,0,176,390,0,1,1206.10000002384
10,80,7,7,0,1,7,156,380,0,1,1064.19999998808
10,80,7,7,0,2,6,156,380,0,1,1424.69999998808
10,80,7,7,0,3,5,156,380,0,1,1346.70000004768
10,80,7,7,0,4,4,156,380,0,1,1161
10,80,7,7,0,5,3,156,380,0,1,1289.40000003576
10,80,7,7,0,6,2,156,380,0,1,1210.80000001192
10,80,7,7,0,7,1,156,380,0,1,1128.39999997616
10,81,6,5,-1,1,0,177,369,0,1,1766.59999996424
10,81,6,5,-1,2,5,177,369,0,1,1211.19999998808
10,81,6,5,-1,3,4,177,369,0,1,1290.5
10,81,6,5,-1,4,3,177,369,0,1,1162.30000001192
10,81,6,5,-1,5,2,177,369,0,1,1195
10,82,6,6,0,1,1,59,267,0,1,1779.80000001192
10,82,6,6,0,2,5,59,267,0,1,1295.29999995232
10,82,6,6,0,3,4,59,267,0,1,1274.40000003576
10,82,6,6,0,4,3,59,267,0,1,1094.5
10,82,6,6,0,5,2,59,267,0,1,1128.19999998808
10,82,6,6,0,6,1,59,267,0,1,1073.59999996424
10,83,7,5,-2,1,0,109,329,0,1,1377
10,83,7,5,-2,2,6,109,329,0,1,1396.09999996424
10,83,7,5,-2,3,5,109,329,0,1,1262.39999997616
10,83,7,5,-2,4,4,109,329,0,1,1261.89999997616
10,83,7,5,-2,5,3,109,329,0,1,1107.79999995232
10,84,6,6,0,1,2,130,339,0,1,1262.80000001192
10,84,6,6,0,2,5,130,339,0,1,1429.30000001192
10,84,6,6,0,3,4,130,339,0,1,1143.70000004768
10,84,6,6,0,4,3,130,339,0,1,2063.69999998808
10,84,6,6,0,5,2,130,339,0,1,1129.5
10,84,6,6,0,6,1,130,339,0,1,1346.89999997616
10,85,7,7,0,1,0,116,317,0,1,1258.79999995232
10,85,7,7,0,2,6,116,317,0,1,1976
10,85,7,7,0,3,5,116,317,0,1,1180.80000001192
10,85,7,7,0,4,4,116,317,0,1,978.100000023842
10,85,7,7,0,5,3,116,317,0,1,1373.69999998808
10,85,7,7,0,6,2,116,317,0,1,1562.10000002384
10,85,7,7,0,7,1,116,317,0,1,1230.30000001192
10,86,7,7,0,1,0,277,498,0,1,1228.10000002384
10,86,7,7,0,2,6,277,498,0,1,1261.90000003576
10,86,7,7,0,3,5,277,498,0,1,1106.20000004768
10,86,7,7,0,4,4,277,498,0,1,1229
10,86,7,7,0,5,3,277,498,0,1,1579
10,86,7,7,0,6,2,277,498,0,1,1144.59999996424
10,86,7,7,0,7,1,277,498,0,1,1312.90000003576
10,87,5,5,0,1,0,160,308,0,1,1104.59999996424
10,87,5,5,0,2,4,160,308,0,1,1479.09999996424
10,87,5,5,0,3,3,160,308,0,1,1064.10000002384
10,87,5,5,0,4,2,160,308,0,1,1294.30000001192
10,87,5,5,0,5,1,160,308,0,1,1197.39999997616
10,88,5,5,0,1,0,117,323,0,1,1138.69999998808
10,88,5,5,0,2,4,117,323,0,1,1197.30000001192
10,88,5,5,0,3,3,117,323,0,1,1277.89999997616
10,88,5,5,0,4,2,117,323,0,1,2474.39999997616
10,88,5,5,0,5,1,117,323,0,1,1313.10000002384
10,89,5,9,4,1,0,250,467,0,1,1346.19999998808
10,89,5,9,4,2,4,250,467,0,1,1229.09999996424
10,89,5,9,4,3,3,250,467,0,1,1344.89999997616
10,89,5,9,4,4,2,250,467,0,1,2546.59999996424
10,89,5,9,4,5,1,250,467,0,1,1378.5
10,89,5,9,4,6,0,250,467,0,1,1213.69999998808
10,89,5,9,4,7,0,250,467,0,1,1111.10000002384
10,89,5,9,4,8,0,250,467,0,1,1096.59999996424
10,89,5,9,4,9,0,250,467,0,1,1572.69999998808
10,90,5,5,0,1,5,41,198,0,1,1230.09999996424
10,90,5,5,0,2,4,41,198,0,1,978.700000047684
10,90,5,5,0,3,3,41,198,0,1,1099
10,90,5,5,0,4,2,41,198,0,1,1141
10,90,5,5,0,5,1,41,198,0,1,1023.40000003576
10,91,5,2,-3,1,0,240,431,0,1,1362.30000001192
10,91,5,2,-3,2,4,240,431,0,1,1046.69999998808
10,92,7,3,-4,1,3,226,389,0,1,1139.60000002384
10,92,7,3,-4,2,6,226,389,0,1,1077.80000001192
10,92,7,3,-4,3,5,226,389,0,1,1378.60000002384
10,93,6,4,-2,1,4,27,192,0,1,1896.59999996424
10,93,6,4,-2,2,5,27,192,0,1,1044
10,93,6,4,-2,3,4,27,192,0,1,1074.19999998808
10,93,6,4,-2,4,3,27,192,0,1,1845.69999998808
10,94,7,7,0,1,2,236,436,0,1,1227.89999997616
10,94,7,7,0,2,6,236,436,0,1,1062.30000001192
10,94,7,7,0,3,5,236,436,0,1,2329
10,94,7,7,0,4,4,236,436,0,1,1145.19999998808
10,94,7,7,0,5,3,236,436,0,1,1346
10,94,7,7,0,6,2,236,436,0,1,1295.69999998808
10,94,7,7,0,7,1,236,436,0,1,1278.89999997616
10,95,6,6,0,1,0,298,514,0,1,1189.29999995232
10,95,6,6,0,2,5,298,514,0,1,1044.89999997616
10,95,6,6,0,3,4,298,514,0,1,1346.39999997616
10,95,6,6,0,4,3,298,514,0,1,1274.20000004768
10,95,6,6,0,5,2,298,514,0,1,1377.39999997616
10,95,6,6,0,6,1,298,514,0,1,1180.5
10,96,6,8,2,1,0,114,330,0,1,1430.59999996424
10,96,6,8,2,2,5,114,330,0,1,1225.5
10,96,6,8,2,3,4,114,330,0,1,1072.89999997616
10,96,6,8,2,4,3,114,330,0,1,1363.19999998808
10,96,6,8,2,5,2,114,330,0,1,1312.69999998808
10,96,6,8,2,6,1,114,330,0,1,1149.19999998808
10,96,6,8,2,7,0,114,330,0,1,1158.30000001192
10,96,6,8,2,8,0,114,330,0,1,1524.89999997616
76,1,7,9,2,1,7,324,553,0,1,1920.99999999999
76,1,7,9,2,2,6,324,553,0,1,1348
76,1,7,9,2,3,5,324,553,0,1,1411
76,1,7,9,2,4,4,324,553,0,1,2050
76,1,7,9,2,5,3,324,553,0,1,1448
76,1,7,9,2,6,2,324,553,0,1,1356
76,1,7,9,2,7,1,324,553,0,1,1270
76,1,7,9,2,8,0,324,553,0,1,1222
76,1,7,9,2,9,0,324,553,0,1,1338
76,2,5,5,0,1,5,206,410,0,1,1274
76,2,5,5,0,2,4,206,410,0,1,1195
76,2,5,5,0,3,3,206,410,0,1,1158
76,2,5,5,0,4,2,206,410,0,1,1132
76,2,5,5,0,5,1,206,410,0,1,1133
76,3,6,6,0,1,0,328,485,0,1,1291.99999999999
76,3,6,6,0,2,5,328,485,0,1,1250
76,3,6,6,0,3,4,328,485,0,1,1213
76,3,6,6,0,4,3,328,485,0,1,1252.00000000001
76,3,6,6,0,5,2,328,485,0,1,1227.00000000001
76,3,6,6,0,6,1,328,485,0,1,1123.00000000001
76,4,7,4,-3,1,0,125,334,0,1,1471.00000000001
76,4,7,4,-3,2,6,125,334,0,1,1164.99999999999
76,4,7,4,-3,3,5,125,334,0,1,1053
76,4,7,4,-3,4,4,125,334,0,1,1163
76,5,7,5,-2,1,3,104,333,0,1,1090.99999999999
76,5,7,5,-2,2,6,104,333,0,1,1632
76,5,7,5,-2,3,5,104,333,0,1,1640
76,5,7,5,-2,4,4,104,333,0,1,1302
76,5,7,5,-2,5,3,104,333,0,1,1193.99999999999
76,6,6,5,-1,1,2,126,292,0,1,1357
76,6,6,5,-1,2,5,126,292,0,1,1641.00000000001
76,6,6,5,-1,3,4,126,292,0,1,1035
76,6,6,5,-1,4,3,126,292,0,1,1977.00000000001
76,6,6,5,-1,5,2,126,292,0,1,1200.00000000003
76,7,6,6,0,1,1,124,300,0,1,1128
76,7,6,6,0,2,5,124,300,0,1,1100
76,7,6,6,0,3,4,124,300,0,1,1149.99999999997
76,7,6,6,0,4,3,124,300,0,1,1232
76,7,6,6,0,5,2,124,300,0,1,1133
76,7,6,6,0,6,1,124,300,0,1,1166
76,8,5,9,4,1,0,75,273,0,1,1365
76,8,5,9,4,2,4,75,273,0,1,1163
76,8,5,9,4,3,3,75,273,0,1,1049
76,8,5,9,4,4,2,75,273,0,1,1020
76,8,5,9,4,5,1,75,273,0,1,1071.99999999997
76,8,5,9,4,6,0,75,273,0,1,1031
76,8,5,9,4,7,0,75,273,0,1,1028
76,8,5,9,4,8,0,75,273,0,1,1051.99999999997
76,8,5,9,4,9,0,75,273,0,1,2412
76,9,7,3,-4,1,7,181,415,0,1,1198
76,9,7,3,-4,2,6,181,415,0,1,1351
76,9,7,3,-4,3,5,181,415,0,1,1703
76,10,6,6,0,1,4,347,578,0,1,1518.99999999997
76,10,6,6,0,2,5,347,578,0,1,1240
76,10,6,6,0,3,4,347,578,0,1,1110
76,10,6,6,0,4,3,347,578,0,1,1139.99999999997
76,10,6,6,0,5,2,347,578,0,1,1486
76,10,6,6,0,6,1,347,578,0,1,1194.99999999997
76,11,5,4,-1,1,0,162,372,0,1,1081
76,11,5,4,-1,2,4,162,372,0,1,1163
76,11,5,4,-1,3,3,162,372,0,1,1064
76,11,5,4,-1,4,2,162,372,0,1,1009
76,12,6,8,2,1,1,281,489,0,1,1981
76,12,6,8,2,2,5,281,489,0,1,1222
76,12,6,8,2,3,4,281,489,0,1,1034
76,12,6,8,2,4,3,281,489,0,1,1390
76,12,6,8,2,5,2,281,489,0,1,2230
76,12,6,8,2,6,1,281,489,0,1,1259.99999999997
76,12,6,8,2,7,0,281,489,0,1,1574.99999999997
76,12,6,8,2,8,0,281,489,0,1,1194
76,13,7,10,3,1,7,317,469,0,1,1090.00000000003
76,13,7,10,3,2,6,317,469,0,1,1794
76,13,7,10,3,3,5,317,469,0,1,1818
76,13,7,10,3,4,4,317,469,0,1,1138.00000000003
76,13,7,10,3,5,3,317,469,0,1,1414
76,13,7,10,3,6,2,317,469,0,1,1105
76,13,7,10,3,7,1,317,469,0,1,1268
76,13,7,10,3,8,0,317,469,0,1,1083
76,13,7,10,3,9,0,317,469,0,1,1148
76,13,7,10,3,10,0,317,469,0,1,1082.00000000003
76,14,5,4,-1,1,5,74,271,0,1,2077
76,14,5,4,-1,2,4,74,271,0,1,1146
76,14,5,4,-1,3,3,74,271,0,1,1316
76,14,5,4,-1,4,2,74,271,0,1,1107.99999999997
76,15,5,9,4,1,1,278,428,0,1,1227
76,15,5,9,4,2,4,278,428,0,1,1423
76,15,5,9,4,3,3,278,428,0,1,1141.00000000003
76,15,5,9,4,4,2,278,428,0,1,1145
76,15,5,9,4,5,1,278,428,0,1,1327
76,15,5,9,4,6,0,278,428,0,1,1318
76,15,5,9,4,7,0,278,428,0,1,1184
76,15,5,9,4,8,0,278,428,0,1,1286
76,15,5,9,4,9,0,278,428,0,1,1064.99999999997
76,16,6,8,2,1,6,140,311,0,1,1108.00000000003
76,16,6,8,2,2,5,140,311,0,1,1495
76,16,6,8,2,3,4,140,311,0,1,1153
76,16,6,8,2,4,3,140,311,0,1,1165
76,16,6,8,2,5,2,140,311,0,1,1754
76,16,6,8,2,6,1,140,311,0,1,1107
76,16,6,8,2,7,0,140,311,0,1,1102
76,16,6,8,2,8,0,140,311,0,1,1334.99999999997
76,17,7,4,-3,1,7,91,323,0,1,1663
76,17,7,4,-3,2,6,91,323,0,1,1015.99999999997
76,17,7,4,-3,3,5,91,323,0,1,1041
76,17,7,4,-3,4,4,91,323,0,1,1195
76,18,5,5,0,1,3,43,237,0,1,961
76,18,5,5,0,2,4,43,237,0,1,1519
76,18,5,5,0,3,3,43,237,0,1,1033.99999999997
76,18,5,5,0,4,2,43,237,0,1,1247
76,18,5,5,0,5,1,43,237,0,1,1186.00000000003
76,19,7,7,0,1,0,300,488,0,1,1017
76,19,7,7,0,2,6,300,488,0,1,1042
76,19,7,7,0,3,5,300,488,0,1,1041
76,19,7,7,0,4,4,300,488,0,1,972.999999999971
76,19,7,7,0,5,3,300,488,0,1,1130
76,19,7,7,0,6,2,300,488,0,1,1276
76,19,7,7,0,7,1,300,488,0,1,1076.00000000003
76,20,6,7,1,1,0,85,241,0,1,1431
76,20,6,7,1,2,5,85,241,0,1,1036
76,20,6,7,1,3,4,85,241,0,1,1017.99999999997
76,20,6,7,1,4,3,85,241,0,1,1066
76,20,6,7,1,5,2,85,241,0,1,1006
76,20,6,7,1,6,1,85,241,0,1,1211
76,20,6,7,1,7,0,85,241,0,1,1124
76,21,5,5,0,1,5,293,502,0,1,1259
76,21,5,5,0,2,4,293,502,0,1,1204
76,21,5,5,0,3,3,293,502,0,1,1145.00000000006
76,21,5,5,0,4,2,293,502,0,1,1600
76,21,5,5,0,5,1,293,502,0,1,1237
76,22,5,6,1,1,0,218,439,0,1,1172
76,22,5,6,1,2,4,218,439,0,1,1277
76,22,5,6,1,3,3,218,439,0,1,1292.99999999994
76,22,5,6,1,4,2,218,439,0,1,1113
76,22,5,6,1,5,1,218,439,0,1,1665.00000000006
76,22,5,6,1,6,0,218,439,0,1,1276
76,23,5,5,0,1,5,47,248,0,1,1077
76,23,5,5,0,2,4,47,248,0,1,1173
76,23,5,5,0,3,3,47,248,0,1,1098.00000000006
76,23,5,5,0,4,2,47,248,0,1,1041
76,23,5,5,0,5,1,47,248,0,1,1002
76,24,7,7,0,1,0,52,284,0,1,1082
76,24,7,7,0,2,6,52,284,0,1,1002
76,24,7,7,0,3,5,52,284,0,1,1113
76,24,7,7,0,4,4,52,284,0,1,1406
76,24,7,7,0,5,3,52,284,0,1,1310
76,24,7,7,0,6,2,52,284,0,1,1106
76,24,7,7,0,7,1,52,284,0,1,1175
76,25,7,7,0,1,0,57,256,0,1,985
76,25,7,7,0,2,6,57,256,0,1,1083
76,25,7,7,0,3,5,57,256,0,1,1241
76,25,7,7,0,4,4,57,256,0,1,1008.00000000006
76,25,7,7,0,5,3,57,256,0,1,1158
76,25,7,7,0,6,2,57,256,0,1,1276
76,25,7,7,0,7,1,57,256,0,1,1140
76,26,7,11,4,1,0,29,183,0,1,1146.00000000006
76,26,7,11,4,2,6,29,183,0,1,1229
76,26,7,11,4,3,5,29,183,0,1,1073
76,26,7,11,4,4,4,29,183,0,1,1003
76,26,7,11,4,5,3,29,183,0,1,1202
76,26,7,11,4,6,2,29,183,0,1,1129
76,26,7,11,4,7,1,29,183,0,1,3467
76,26,7,11,4,8,0,29,183,0,1,1234.00000000006
76,26,7,11,4,9,0,29,183,0,1,1105
76,26,7,11,4,10,0,29,183,0,1,1756
76,26,7,11,4,11,0,29,183,0,1,1199.99999999994
76,27,6,6,0,1,6,272,453,0,1,1291
76,27,6,6,0,2,5,272,453,0,1,1075
76,27,6,6,0,3,4,272,453,0,1,1016
76,27,6,6,0,4,3,272,453,0,1,1270
76,27,6,6,0,5,2,272,453,0,1,1195
76,27,6,6,0,6,1,272,453,0,1,1272
76,28,5,1,-4,1,0,341,519,0,1,1252
76,29,6,4,-2,1,6,234,400,0,1,1238
76,29,6,4,-2,2,5,234,400,0,1,1102.00000000006
76,29,6,4,-2,3,4,234,400,0,1,1182
76,29,6,4,-2,4,3,234,400,0,1,1234
76,30,5,7,2,1,2,120,267,0,1,1138
76,30,5,7,2,2,4,120,267,0,1,1632
76,30,5,7,2,3,3,120,267,0,1,1168
76,30,5,7,2,4,2,120,267,0,1,1306.00000000006
76,30,5,7,2,5,1,120,267,0,1,1318
76,30,5,7,2,6,0,120,267,0,1,1096
76,30,5,7,2,7,0,120,267,0,1,1608
76,31,5,8,3,1,5,236,438,0,1,1124
76,31,5,8,3,2,4,236,438,0,1,1931
76,31,5,8,3,3,3,236,438,0,1,1067.99999999994
76,31,5,8,3,4,2,236,438,0,1,1167
76,31,5,8,3,5,1,236,438,0,1,1027
76,31,5,8,3,6,0,236,438,0,1,1287
76,31,5,8,3,7,0,236,438,0,1,1249
76,31,5,8,3,8,0,236,438,0,1,1156
76,32,7,7,0,1,7,192,352,0,1,1177.99999999994
76,32,7,7,0,2,6,192,352,0,1,1017
76,32,7,7,0,3,5,192,352,0,1,1034
76,32,7,7,0,4,4,192,352,0,1,1210
76,32,7,7,0,5,3,192,352,0,1,1105.99999999994
76,32,7,7,0,6,2,192,352,0,1,1165
76,32,7,7,0,7,1,192,352,0,1,1113
76,33,7,7,0,1,0,307,519,0,1,1370
76,33,7,7,0,2,6,307,519,0,1,962
76,33,7,7,0,3,5,307,519,0,1,1089
76,33,7,7,0,4,4,307,519,0,1,1146
76,33,7,7,0,5,3,307,519,0,1,1001.00000000006
76,33,7,7,0,6,2,307,519,0,1,928
76,33,7,7,0,7,1,307,519,0,1,2085
76,34,6,7,1,1,0,293,449,0,1,1178
76,34,6,7,1,2,5,293,449,0,1,1209
76,34,6,7,1,3,4,293,449,0,1,1165
76,34,6,7,1,4,3,293,449,0,1,1117
76,34,6,7,1,5,2,293,449,0,1,1073
76,34,6,7,1,6,1,293,449,0,1,1128.00000000006
76,34,6,7,1,7,0,293,449,0,1,1108
76,35,7,7,0,1,7,71,263,0,1,1057
76,35,7,7,0,2,6,71,263,0,1,1051
76,35,7,7,0,3,5,71,263,0,1,977
76,35,7,7,0,4,4,71,263,0,1,1106
76,35,7,7,0,5,3,71,263,0,1,1268.99999999994
76,35,7,7,0,6,2,71,263,0,1,1140
76,35,7,7,0,7,1,71,263,0,1,1199.99999999994
76,36,5,5,0,1,0,187,406,0,1,1471
76,36,5,5,0,2,4,187,406,0,1,1278
76,36,5,5,0,3,3,187,406,0,1,1129.00000000006
76,36,5,5,0,4,2,187,406,0,1,969
76,36,5,5,0,5,1,187,406,0,1,1123.00000000006
76,37,6,10,4,1,0,136,327,0,1,1738
76,37,6,10,4,2,5,136,327,0,1,1258
76,37,6,10,4,3,4,136,327,0,1,1304
76,37,6,10,4,4,3,136,327,0,1,1069
76,37,6,10,4,5,2,136,327,0,1,1251
76,37,6,10,4,6,1,136,327,0,1,1112.00000000006
76,37,6,10,4,7,0,136,327,0,1,1656
76,37,6,10,4,8,0,136,327,0,1,1339.99999999994
76,37,6,10,4,9,0,136,327,0,1,1422
76,37,6,10,4,10,0,136,327,0,1,1208
76,38,7,6,-1,1,7,15,205,0,1,1665
76,38,7,6,-1,2,6,15,205,0,1,968
76,38,7,6,-1,3,5,15,205,0,1,1042
76,38,7,6,-1,4,4,15,205,0,1,1307
76,38,7,6,-1,5,3,15,205,0,1,953.000000000058
76,38,7,6,-1,6,2,15,205,0,1,1083
76,39,6,3,-3,1,1,75,259,0,1,1220
76,39,6,3,-3,2,5,75,259,0,1,1043
76,39,6,3,-3,3,4,75,259,0,1,1187
76,40,7,5,-2,1,3,299,510,0,1,1212
76,40,7,5,-2,2,6,299,510,0,1,1189
76,40,7,5,-2,3,5,299,510,0,1,1404
76,40,7,5,-2,4,4,299,510,0,1,1216
76,40,7,5,-2,5,3,299,510,0,1,1628
76,41,6,6,0,1,2,180,404,0,1,1180
76,41,6,6,0,2,5,180,404,0,1,1217
76,41,6,6,0,3,4,180,404,0,1,1334.99999999994
76,41,6,6,0,4,3,180,404,0,1,1048
76,41,6,6,0,5,2,180,404,0,1,1114
76,41,6,6,0,6,1,180,404,0,1,1170.99999999994
76,42,5,7,2,1,0,221,445,0,1,1211
76,42,5,7,2,2,4,221,445,0,1,1574
76,42,5,7,2,3,3,221,445,0,1,1117
76,42,5,7,2,4,2,221,445,0,1,1176
76,42,5,7,2,5,1,221,445,0,1,1115
76,42,5,7,2,6,0,221,445,0,1,1073
76,42,5,7,2,7,0,221,445,0,1,1088
76,43,5,6,1,1,5,356,529,0,1,1669
76,43,5,6,1,2,4,356,529,0,1,1356
76,43,5,6,1,3,3,356,529,0,1,1041
76,43,5,6,1,4,2,356,529,0,1,1017
76,43,5,6,1,5,1,356,529,0,1,960.999999999942
76,43,5,6,1,6,0,356,529,0,1,1167
76,44,7,7,0,1,7,216,366,0,1,1169.99999999994
76,44,7,7,0,2,6,216,366,0,1,2715.00000000006
76,44,7,7,0,3,5,216,366,0,1,1072
76,44,7,7,0,4,4,216,366,0,1,1051.99999999994
76,44,7,7,0,5,3,216,366,0,1,1113.99999999994
76,44,7,7,0,6,2,216,366,0,1,1056
76,44,7,7,0,7,1,216,366,0,1,1116
76,45,5,5,0,1,0,182,387,0,1,1272
76,45,5,5,0,2,4,182,387,0,1,1029
76,45,5,5,0,3,3,182,387,0,1,1090.99999999994
76,45,5,5,0,4,2,182,387,0,1,1043
76,45,5,5,0,5,1,182,387,0,1,993.999999999942
76,46,6,6,0,1,0,204,385,0,1,1107
76,46,6,6,0,2,5,204,385,0,1,1019
76,46,6,6,0,3,4,204,385,0,1,1125
76,46,6,6,0,4,3,204,385,0,1,1261.00000000006
76,46,6,6,0,5,2,204,385,0,1,1180.99999999994
76,46,6,6,0,6,1,204,385,0,1,1072.99999999994
76,47,7,3,-4,1,0,345,531,0,1,1321
76,47,7,3,-4,2,6,345,531,0,1,982
76,47,7,3,-4,3,5,345,531,0,1,1003
76,48,7,7,0,1,4,209,400,0,1,1127
76,48,7,7,0,2,6,209,400,0,1,1024.99999999994
76,48,7,7,0,3,5,209,400,0,1,1036
76,48,7,7,0,4,4,209,400,0,1,1025.99999999994
76,48,7,7,0,5,3,209,400,0,1,949.000000000058
76,48,7,7,0,6,2,209,400,0,1,953.999999999942
76,48,7,7,0,7,1,209,400,0,1,950.999999999942
76,49,7,7,0,1,0,55,212,0,1,1096.00000000006
76,49,7,7,0,2,6,55,212,0,1,1527.99999999994
76,49,7,7,0,3,5,55,212,0,1,1179
76,49,7,7,0,4,4,55,212,0,1,1107
76,49,7,7,0,5,3,55,212,0,1,1024.99999999994
76,49,7,7,0,6,2,55,212,0,1,1054.99999999994
76,49,7,7,0,7,1,55,212,0,1,1010
76,50,5,3,-2,1,0,11,196,0,1,1036
76,50,5,3,-2,2,4,11,196,0,1,1233
76,50,5,3,-2,3,3,11,196,0,1,1236
76,51,7,9,2,1,2,236,459,0,1,2288
76,51,7,9,2,2,6,236,459,0,1,1103
76,51,7,9,2,3,5,236,459,0,1,1037.99999999994
76,51,7,9,2,4,4,236,459,0,1,1025.99999999994
76,51,7,9,2,5,3,236,459,0,1,1041
76,51,7,9,2,6,2,236,459,0,1,1226
76,51,7,9,2,7,1,236,459,0,1,1194
76,51,7,9,2,8,0,236,459,0,1,1099
76,51,7,9,2,9,0,236,459,0,1,1097.99999999994
76,52,5,5,0,1,5,133,285,0,1,1510.99999999994
76,52,5,5,0,2,4,133,285,0,1,1131
76,52,5,5,0,3,3,133,285,0,1,1052
76,52,5,5,0,4,2,133,285,0,1,1187.99999999994
76,52,5,5,0,5,1,133,285,0,1,1082.99999999994
76,53,7,7,0,1,0,237,412,0,1,1040.99999999994
76,53,7,7,0,2,6,237,412,0,1,1026.99999999994
76,53,7,7,0,3,5,237,412,0,1,1666.00000000012
76,53,7,7,0,4,4,237,412,0,1,1013.00000000012
76,53,7,7,0,5,3,237,412,0,1,1251
76,53,7,7,0,6,2,237,412,0,1,1163
76,53,7,7,0,7,1,237,412,0,1,1001
76,54,6,3,-3,1,0,219,400,0,1,1146
76,54,6,3,-3,2,5,219,400,0,1,1201
76,54,6,3,-3,3,4,219,400,0,1,855
76,55,7,8,1,1,3,45,275,0,1,1148
76,55,7,8,1,2,6,45,275,0,1,1040
76,55,7,8,1,3,5,45,275,0,1,1226
76,55,7,8,1,4,4,45,275,0,1,1024
76,55,7,8,1,5,3,45,275,0,1,1227
76,55,7,8,1,6,2,45,275,0,1,2878.99999999988
76,55,7,8,1,7,1,45,275,0,1,985
76,55,7,8,1,8,0,45,275,0,1,1089.00000000012
76,56,7,7,0,1,7,113,313,0,1,1374
76,56,7,7,0,2,6,113,313,0,1,1080
76,56,7,7,0,3,5,113,313,0,1,886
76,56,7,7,0,4,4,113,313,0,1,1189
76,56,7,7,0,5,3,113,313,0,1,1025
76,56,7,7,0,6,2,113,313,0,1,1089.00000000012
76,56,7,7,0,7,1,113,313,0,1,1192.99999999988
76,57,5,5,0,1,0,278,445,0,1,1392
76,57,5,5,0,2,4,278,445,0,1,1034.00000000012
76,57,5,5,0,3,3,278,445,0,1,1128
76,57,5,5,0,4,2,278,445,0,1,1051
76,57,5,5,0,5,1,278,445,0,1,1225
76,58,7,7,0,1,0,51,253,0,1,1096
76,58,7,7,0,2,6,51,253,0,1,1056
76,58,7,7,0,3,5,51,253,0,1,1167
76,58,7,7,0,4,4,51,253,0,1,1153
76,58,7,7,0,5,3,51,253,0,1,1237
76,58,7,7,0,6,2,51,253,0,1,1097
76,58,7,7,0,7,1,51,253,0,1,1302
76,59,6,2,-4,1,0,87,300,0,1,1322
76,59,6,2,-4,2,5,87,300,0,1,1192
76,60,6,10,4,1,4,63,257,0,1,957
76,60,6,10,4,2,5,63,257,0,1,1147.00000000012
76,60,6,10,4,3,4,63,257,0,1,904
76,60,6,10,4,4,3,63,257,0,1,1107
76,60,6,10,4,5,2,63,257,0,1,1048
76,60,6,10,4,6,1,63,257,0,1,1632.00000000012
76,60,6,10,4,7,0,63,257,0,1,1232
76,60,6,10,4,8,0,63,257,0,1,1219.00000000012
76,60,6,10,4,9,0,63,257,0,1,1123
76,60,6,10,4,10,0,63,257,0,1,1243
76,61,5,5,0,1,5,207,434,0,1,1147
76,61,5,5,0,2,4,207,434,0,1,1211
76,61,5,5,0,3,3,207,434,0,1,1200
76,61,5,5,0,4,2,207,434,0,1,1025
76,61,5,5,0,5,1,207,434,0,1,1039.00000000012
76,62,5,5,0,1,0,86,247,0,1,1160
76,62,5,5,0,2,4,86,247,0,1,1226
76,62,5,5,0,3,3,86,247,0,1,1015
76,62,5,5,0,4,2,86,247,0,1,1154
76,62,5,5,0,5,1,86,247,0,1,1113.99999999988
76,63,6,5,-1,1,0,287,490,0,1,2231
76,63,6,5,-1,2,5,287,490,0,1,1012
76,63,6,5,-1,3,4,287,490,0,1,880
76,63,6,5,-1,4,3,287,490,0,1,1168
76,63,6,5,-1,5,2,287,490,0,1,1161
76,64,5,3,-2,1,1,322,481,0,1,1040
76,64,5,3,-2,2,4,322,481,0,1,1105
76,64,5,3,-2,3,3,322,481,0,1,1061
76,65,5,5,0,1,2,35,189,0,1,1538
76,65,5,5,0,2,4,35,189,0,1,958
76,65,5,5,0,3,3,35,189,0,1,1088
76,65,5,5,0,4,2,35,189,0,1,991
76,65,5,5,0,5,1,35,189,0,1,970
76,66,5,1,-4,1,0,20,172,0,1,1023
76,67,5,5,0,1,5,84,296,0,1,1119
76,67,5,5,0,2,4,84,296,0,1,1000
76,67,5,5,0,3,3,84,296,0,1,1025
76,67,5,5,0,4,2,84,296,0,1,1002
76,67,5,5,0,5,1,84,296,0,1,1112
76,68,5,2,-3,1,0,2,221,0,1,1406.99999999988
76,68,5,2,-3,2,4,2,221,0,1,1082
76,69,6,6,0,1,3,350,522,0,1,991
76,69,6,6,0,2,5,350,522,0,1,1107
76,69,6,6,0,3,4,350,522,0,1,1225
76,69,6,6,0,4,3,350,522,0,1,1030
76,69,6,6,0,5,2,350,522,0,1,1057.99999999988
76,69,6,6,0,6,1,350,522,0,1,1065
76,70,7,11,4,1,0,117,342,0,1,1087.00000000012
76,70,7,11,4,2,6,117,342,0,1,1793
76,70,7,11,4,3,5,117,342,0,1,1163
76,70,7,11,4,4,4,117,342,0,1,1094
76,70,7,11,4,5,3,117,342,0,1,1196
76,70,7,11,4,6,2,117,342,0,1,983.999999999884
76,70,7,11,4,7,1,117,342,0,1,1066
76,70,7,11,4,8,0,117,342,0,1,1550
76,70,7,11,4,9,0,117,342,0,1,894
76,70,7,11,4,10,0,117,342,0,1,1134
76,70,7,11,4,11,0,117,342,0,1,897
76,71,6,6,0,1,6,154,340,0,1,975
76,71,6,6,0,2,5,154,340,0,1,1210
76,71,6,6,0,3,4,154,340,0,1,1211
76,71,6,6,0,4,3,154,340,0,1,1007
76,71,6,6,0,5,2,154,340,0,1,1304.99999999988
76,71,6,6,0,6,1,154,340,0,1,1106
76,72,6,6,0,1,0,8,171,0,1,1275.99999999988
76,72,6,6,0,2,5,8,171,0,1,1152
76,72,6,6,0,3,4,8,171,0,1,1041.99999999988
76,72,6,6,0,4,3,8,171,0,1,1056
76,72,6,6,0,5,2,8,171,0,1,977
76,72,6,6,0,6,1,8,171,0,1,1122
76,73,5,5,0,1,0,225,399,0,1,1155
76,73,5,5,0,2,4,225,399,0,1,1041
76,73,5,5,0,3,3,225,399,0,1,1151.00000000012
76,73,5,5,0,4,2,225,399,0,1,1004
76,73,5,5,0,5,1,225,399,0,1,1159
76,74,6,6,0,1,0,316,533,0,1,1187.99999999988
76,74,6,6,0,2,5,316,533,0,1,1045.00000000012
76,74,6,6,0,3,4,316,533,0,1,1115
76,74,6,6,0,4,3,316,533,0,1,1603.99999999988
76,74,6,6,0,5,2,316,533,0,1,1097
76,74,6,6,0,6,1,316,533,0,1,1081
76,75,5,2,-3,1,0,274,436,0,1,1679
76,75,5,2,-3,2,4,274,436,0,1,976
76,76,7,7,0,1,3,314,513,0,1,1048
76,76,7,7,0,2,6,314,513,0,1,1323.00000000012
76,76,7,7,0,3,5,314,513,0,1,1072
76,76,7,7,0,4,4,314,513,0,1,1228
76,76,7,7,0,5,3,314,513,0,1,1168
76,76,7,7,0,6,2,314,513,0,1,1000
76,76,7,7,0,7,1,314,513,0,1,1725
76,77,6,6,0,1,0,347,573,0,1,1362.99999999988
76,77,6,6,0,2,5,347,573,4,0,886
76,77,6,6,0,3,4,347,573,0,1,1292
76,77,6,6,0,4,3,347,573,0,1,1129
76,77,6,6,0,5,2,347,573,0,1,1061
76,77,6,6,0,6,1,347,573,0,1,1254
76,78,6,6,0,1,0,195,389,0,1,1281
76,78,6,6,0,2,5,195,389,0,1,1008
76,78,6,6,0,3,4,195,389,0,1,1413
76,78,6,6,0,4,3,195,389,0,1,1432
76,78,6,6,0,5,2,195,389,0,1,1160
76,78,6,6,0,6,1,195,389,0,1,1096
76,79,6,6,0,1,0,358,541,0,1,1380
76,79,6,6,0,2,5,358,541,0,1,958.000000000116
76,79,6,6,0,3,4,358,541,0,1,1078
76,79,6,6,0,4,3,358,541,0,1,1208
76,79,6,6,0,5,2,358,541,0,1,1080
76,79,6,6,0,6,1,358,541,0,1,1295
76,80,5,8,3,1,0,177,376,0,1,1376.99999999988
76,80,5,8,3,2,4,177,376,0,1,1088
76,80,5,8,3,3,3,177,376,0,1,1056
76,80,5,8,3,4,2,177,376,0,1,1005
76,80,5,8,3,5,1,177,376,0,1,991
76,80,5,8,3,6,0,177,376,0,1,1107.00000000012
76,80,5,8,3,7,0,177,376,0,1,1043
76,80,5,8,3,8,0,177,376,0,1,884
76,81,7,7,0,1,7,154,327,0,1,1352
76,81,7,7,0,2,6,154,327,0,1,1696
76,81,7,7,0,3,5,154,327,0,1,1380
76,81,7,7,0,4,4,154,327,0,1,879
76,81,7,7,0,5,3,154,327,0,1,1198.00000000012
76,81,7,7,0,6,2,154,327,0,1,1063
76,81,7,7,0,7,1,154,327,0,1,1021
76,82,7,7,0,1,0,62,219,0,1,1956
76,82,7,7,0,2,6,62,219,0,1,1821
76,82,7,7,0,3,5,62,219,0,1,1167
76,82,7,7,0,4,4,62,219,0,1,1196
76,82,7,7,0,5,3,62,219,0,1,1204.00000000012
76,82,7,7,0,6,2,62,219,0,1,1019
76,82,7,7,0,7,1,62,219,0,1,1204
76,83,5,5,0,1,0,236,406,0,1,1140
76,83,5,5,0,2,4,236,406,0,1,1083.99999999988
76,83,5,5,0,3,3,236,406,0,1,1046
76,83,5,5,0,4,2,236,406,0,1,1018
76,83,5,5,0,5,1,236,406,0,1,1145
76,84,5,5,0,1,0,53,226,0,1,2314
76,84,5,5,0,2,4,53,226,0,1,1222.99999999988
76,84,5,5,0,3,3,53,226,0,1,1190
76,84,5,5,0,4,2,53,226,0,1,1037
76,84,5,5,0,5,1,53,226,0,1,1206
76,85,7,6,-1,1,0,284,460,0,1,1347
76,85,7,6,-1,2,6,284,460,0,1,1061
76,85,7,6,-1,3,5,284,460,0,1,1123.00000000012
76,85,7,6,-1,4,4,284,460,0,1,1146
76,85,7,6,-1,5,3,284,460,0,1,1254
76,85,7,6,-1,6,2,284,460,0,1,1142
76,86,7,10,3,1,1,20,246,0,1,1075.00000000012
76,86,7,10,3,2,6,20,246,0,1,1108
76,86,7,10,3,3,5,20,246,0,1,1238
76,86,7,10,3,4,4,20,246,0,1,1163.00000000012
76,86,7,10,3,5,3,20,246,0,1,981
76,86,7,10,3,6,2,20,246,0,1,1026
76,86,7,10,3,7,1,20,246,0,1,1013
76,86,7,10,3,8,0,20,246,0,1,1156
76,86,7,10,3,9,0,20,246,0,1,1167.00000000012
76,86,7,10,3,10,0,20,246,0,1,1050
76,87,6,6,0,1,6,2,181,0,1,1115
76,87,6,6,0,2,5,2,181,0,1,1096
76,87,6,6,0,3,4,2,181,0,1,1073.99999999988
76,87,6,6,0,4,3,2,181,0,1,1018
76,87,6,6,0,5,2,2,181,0,1,964
76,87,6,6,0,6,1,2,181,0,1,986
76,88,7,8,1,1,0,47,205,0,1,952.999999999884
76,88,7,8,1,2,6,47,205,0,1,930
76,88,7,8,1,3,5,47,205,0,1,1325
76,88,7,8,1,4,4,47,205,0,1,1134
76,88,7,8,1,5,3,47,205,0,1,1026
76,88,7,8,1,6,2,47,205,0,1,1005
76,88,7,8,1,7,1,47,205,0,1,982
76,88,7,8,1,8,0,47,205,0,1,1141
76,89,6,4,-2,1,6,165,325,0,1,1141
76,89,6,4,-2,2,5,165,325,0,1,1159
76,89,6,4,-2,3,4,165,325,0,1,904.999999999884
76,89,6,4,-2,4,3,165,325,0,1,970
76,90,7,7,0,1,2,130,287,0,1,1056
76,90,7,7,0,2,6,130,287,0,1,1178
76,90,7,7,0,3,5,130,287,0,1,1255
76,90,7,7,0,4,4,130,287,0,1,979
76,90,7,7,0,5,3,130,287,0,1,1727
76,90,7,7,0,6,2,130,287,0,1,1069
76,90,7,7,0,7,1,130,287,0,1,1008.00000000012
76,91,6,9,3,1,0,129,296,0,1,1585.00000000012
76,91,6,9,3,2,5,129,296,0,1,1180
76,91,6,9,3,3,4,129,296,0,1,1107
76,91,6,9,3,4,3,129,296,0,1,1286
76,91,6,9,3,5,2,129,296,0,1,1141.99999999988
76,91,6,9,3,6,1,129,296,0,1,1045
76,91,6,9,3,7,0,129,296,0,1,1139
76,91,6,9,3,8,0,129,296,0,1,1043
76,91,6,9,3,9,0,129,296,0,1,1123.00000000012
76,92,6,6,0,1,6,134,343,0,1,1044
76,92,6,6,0,2,5,134,343,0,1,1414.99999999988
76,92,6,6,0,3,4,134,343,0,1,954
76,92,6,6,0,4,3,134,343,0,1,1029
76,92,6,6,0,5,2,134,343,0,1,1453
76,92,6,6,0,6,1,134,343,0,1,1049
76,93,6,2,-4,1,0,284,469,0,1,1223
76,93,6,2,-4,2,5,284,469,0,1,1109
76,94,6,9,3,1,4,336,521,0,1,1066
76,94,6,9,3,2,5,336,521,0,1,1045
76,94,6,9,3,3,4,336,521,0,1,995
76,94,6,9,3,4,3,336,521,0,1,1124
76,94,6,9,3,5,2,336,521,0,1,1026
76,94,6,9,3,6,1,336,521,0,1,1065
76,94,6,9,3,7,0,336,521,0,1,976
76,94,6,9,3,8,0,336,521,0,1,1197
76,94,6,9,3,9,0,336,521,0,1,1211
76,95,5,5,0,1,5,105,285,0,1,1461
76,95,5,5,0,2,4,105,285,0,1,1126
76,95,5,5,0,3,3,105,285,0,1,1050.99999999988
76,95,5,5,0,4,2,105,285,0,1,1090
76,95,5,5,0,5,1,105,285,0,1,1146
76,96,6,6,0,1,0,174,375,0,1,1043
76,96,6,6,0,2,5,174,375,0,1,1211
76,96,6,6,0,3,4,174,375,0,1,1383
76,96,6,6,0,4,3,174,375,0,1,1045
76,96,6,6,0,5,2,174,375,0,1,1001
76,96,6,6,0,6,1,174,375,0,1,1094
30,1,7,3,-4,1,7,172,357,0,1,1831.5
30,1,7,3,-4,2,6,172,357,0,1,1623.69999998808
30,1,7,3,-4,3,5,172,357,0,1,1373.30000001192
30,2,5,2,-3,1,4,225,446,0,1,1426.5
30,2,5,2,-3,2,4,225,446,0,1,1326.70000001788
30,3,7,7,0,1,3,189,346,0,1,1560.69999998808
30,3,7,7,0,2,6,189,346,0,1,1447.30000001192
30,3,7,7,0,3,5,189,346,0,1,1552.5
30,3,7,7,0,4,4,189,346,0,1,1422.5
30,3,7,7,0,5,3,189,346,0,1,1282
30,3,7,7,0,6,2,189,346,0,1,1283.90000000596
30,3,7,7,0,7,1,189,346,0,1,1416.5
30,4,5,8,3,1,0,175,333,0,1,1615.80000001192
30,4,5,8,3,2,4,175,333,0,1,1356.90000000596
30,4,5,8,3,3,3,175,333,0,1,1477.80000001192
30,4,5,8,3,4,2,175,333,0,1,1674.70000001788
30,4,5,8,3,5,1,175,333,0,1,1406.90000000596
30,4,5,8,3,6,0,175,333,0,1,1463.70000001788
30,4,5,8,3,7,0,175,333,0,1,1455.5
30,4,5,8,3,8,0,175,333,0,1,1372.10000002384
30,5,7,7,0,1,7,280,490,0,1,1467.5
30,5,7,7,0,2,6,280,490,0,1,1593.90000000596
30,5,7,7,0,3,5,280,490,0,1,1708
30,5,7,7,0,4,4,280,490,0,1,1938.40000000596
30,5,7,7,0,5,3,280,490,0,1,1151.40000000596
30,5,7,7,0,6,2,280,490,0,1,1301.90000000596
30,5,7,7,0,7,1,280,490,0,1,1425
30,6,5,9,4,1,0,334,497,0,1,1392.19999998808
30,6,5,9,4,2,4,334,497,0,1,1154.80000001192
30,6,5,9,4,3,3,334,497,0,1,1062.59999999404
30,6,5,9,4,4,2,334,497,0,1,1566.19999998808
30,6,5,9,4,5,1,334,497,0,1,1300.29999998212
30,6,5,9,4,6,0,334,497,0,1,1251.79999998212
30,6,5,9,4,7,0,334,497,0,1,1351.80000001192
30,6,5,9,4,8,0,334,497,0,1,1197.10000002384
30,6,5,9,4,9,0,334,497,0,1,1241
30,7,5,5,0,1,5,360,588,0,1,1397.79999998212
30,7,5,5,0,2,4,360,588,0,1,1616.19999998808
30,7,5,5,0,3,3,360,588,0,1,1557.69999998808
30,7,5,5,0,4,2,360,588,0,1,1318.80000001192
30,7,5,5,0,5,1,360,588,0,1,1899.40000000596
30,8,7,6,-1,1,0,342,547,0,1,1251.80000001192
30,8,7,6,-1,2,6,342,547,0,1,1238.80000001192
30,8,7,6,-1,3,5,342,547,0,1,1370.5
30,8,7,6,-1,4,4,342,547,0,1,1175.5
30,8,7,6,-1,5,3,342,547,0,1,1538.5
30,8,7,6,-1,6,2,342,547,0,1,1295.09999999404
30,9,7,10,3,1,1,300,488,0,1,1289.5
30,9,7,10,3,2,6,300,488,0,1,1257
30,9,7,10,3,3,5,300,488,0,1,2757.5
30,9,7,10,3,4,4,300,488,0,1,2279.69999998808
30,9,7,10,3,5,3,300,488,0,1,1160.89999997616
30,9,7,10,3,6,2,300,488,0,1,1534.5
30,9,7,10,3,7,1,300,488,0,1,1689.59999999404
30,9,7,10,3,8,0,300,488,0,1,1609.90000000596
30,9,7,10,3,9,0,300,488,0,1,1914.89999997616
30,9,7,10,3,10,0,300,488,0,1,1712.5
30,10,7,11,4,1,7,64,224,,,
30,10,7,11,4,2,6,64,224,0,1,2117.69999998808
30,10,7,11,4,3,5,64,224,0,1,1229.69999998808
30,10,7,11,4,4,4,64,224,0,1,1593
30,10,7,11,4,5,3,64,224,0,1,1641.59999999404
30,10,7,11,4,6,2,64,224,0,1,1424.80000001192
30,10,7,11,4,7,1,64,224,0,1,2091.90000000596
30,10,7,11,4,8,0,64,224,0,1,1335.09999999404
30,10,7,11,4,9,0,64,224,0,1,1368.20000001788
30,10,7,11,4,10,0,64,224,0,1,1440.69999998808
30,10,7,11,4,11,0,64,224,0,1,1598.40000000596
30,11,5,5,0,1,5,296,527,0,1,1485.70000001788
30,11,5,5,0,2,4,296,527,0,1,1666.80000001192
30,11,5,5,0,3,3,296,527,0,1,1155.69999998808
30,11,5,5,0,4,2,296,527,0,1,1663.19999998808
30,11,5,5,0,5,1,296,527,0,1,1182.59999999404
30,12,6,3,-3,1,0,171,393,0,1,1392.5
30,12,6,3,-3,2,5,171,393,0,1,1171
30,12,6,3,-3,3,4,171,393,0,1,1496.40000000596
30,13,6,6,0,1,3,110,342,0,1,2134.5
30,13,6,6,0,2,5,110,342,0,1,1552
30,13,6,6,0,3,4,110,342,0,1,1488.90000000596
30,13,6,6,0,4,3,110,342,0,1,2071
30,13,6,6,0,5,2,110,342,0,1,1591.59999999404
30,13,6,6,0,6,1,110,342,0,1,1219.90000000596
30,14,5,5,0,1,0,199,355,0,1,1480.89999997616
30,14,5,5,0,2,4,199,355,0,1,1437.80000001192
30,14,5,5,0,3,3,199,355,0,1,1480.70000001788
30,14,5,5,0,4,2,199,355,0,1,1211.69999998808
30,14,5,5,0,5,1,199,355,0,1,2030.19999998808
30,15,7,11,4,1,0,17,218,0,1,1753.10000002384
30,15,7,11,4,2,6,17,218,0,1,1133.59999999404
30,15,7,11,4,3,5,17,218,0,1,1277.59999999404
30,15,7,11,4,4,4,17,218,0,1,1247.40000000596
30,15,7,11,4,5,3,17,218,0,1,1413
30,15,7,11,4,6,2,17,218,0,1,1271.40000000596
30,15,7,11,4,7,1,17,218,0,1,2235.5
30,15,7,11,4,8,0,17,218,0,1,1109.20000001788
30,15,7,11,4,9,0,17,218,0,1,1075.5
30,15,7,11,4,10,0,17,218,0,1,1261
30,15,7,11,4,11,0,17,218,0,1,1843.39999997616
30,16,5,4,-1,1,5,32,188,0,1,1983.5
30,16,5,4,-1,2,4,32,188,0,1,1293.5
30,16,5,4,-1,3,3,32,188,0,1,1599.80000001192
30,16,5,4,-1,4,2,32,188,0,1,1530.10000002384
30,17,6,3,-3,1,1,77,243,0,1,1686.5
30,17,6,3,-3,2,5,77,243,0,1,1433.10000002384
30,17,6,3,-3,3,4,77,243,0,1,1508.09999999404
30,18,6,6,0,1,3,13,225,0,1,1578.79999998212
30,18,6,6,0,2,5,13,225,0,1,1232.59999999404
30,18,6,6,0,3,4,13,225,0,1,1641.80000001192
30,18,6,6,0,4,3,13,225,0,1,1297.89999997616
30,18,6,6,0,5,2,13,225,0,1,1287.59999999404
30,18,6,6,0,6,1,13,225,0,1,2628
30,19,5,5,0,1,0,194,378,0,1,2093.59999999404
30,19,5,5,0,2,4,194,378,0,1,1461.59999999404
30,19,5,5,0,3,3,194,378,0,1,1175.40000000596
30,19,5,5,0,4,2,194,378,0,1,1212.09999999404
30,19,5,5,0,5,1,194,378,0,1,1273
30,20,5,4,-1,1,0,7,190,0,1,1558
30,20,5,4,-1,2,4,7,190,0,1,1497
30,20,5,4,-1,3,3,7,190,0,1,1277.79999998212
30,20,5,4,-1,4,2,7,190,0,1,1352.89999997616
30,21,6,2,-4,1,1,159,361,0,1,3293.69999998808
30,21,6,2,-4,2,5,159,361,0,1,2767
30,22,5,5,0,1,4,352,507,0,1,1930.5
30,22,5,5,0,2,4,352,507,0,1,1480.90000000596
30,22,5,5,0,3,3,352,507,0,1,2344.40000000596
30,22,5,5,0,4,2,352,507,0,1,1285.30000001192
30,22,5,5,0,5,1,352,507,0,1,1636.10000002384
30,23,7,8,1,1,0,167,395,0,1,1586.59999999404
30,23,7,8,1,2,6,167,395,0,1,2039.09999999404
30,23,7,8,1,3,5,167,395,0,1,1499.09999999404
30,23,7,8,1,4,4,167,395,0,1,1255.09999999404
30,23,7,8,1,5,3,167,395,0,1,1228.20000001788
30,23,7,8,1,6,2,167,395,0,1,1947.79999998212
30,23,7,8,1,7,1,167,395,0,1,1466.5
30,23,7,8,1,8,0,167,395,0,1,2416.60000002384
30,24,7,8,1,1,7,126,320,0,1,2498.40000000596
30,24,7,8,1,2,6,126,320,0,1,1462.90000000596
30,24,7,8,1,3,5,126,320,0,1,1585.09999999404
30,24,7,8,1,4,4,126,320,0,1,1239.09999999404
30,24,7,8,1,5,3,126,320,0,1,1848.40000000596
30,24,7,8,1,6,2,126,320,0,1,3434.30000001192
30,24,7,8,1,7,1,126,320,0,1,1329.79999998212
30,24,7,8,1,8,0,126,320,0,1,1445.90000000596
30,25,6,6,0,1,6,91,295,0,1,2438.20000001788
30,25,6,6,0,2,5,91,295,0,1,1497.90000000596
30,25,6,6,0,3,4,91,295,0,1,1437.89999997616
30,25,6,6,0,4,3,91,295,0,1,1209
30,25,6,6,0,5,2,91,295,0,1,2142.19999998808
30,25,6,6,0,6,1,91,295,0,1,1221.5
30,26,6,6,0,1,0,211,377,0,1,1660.5
30,26,6,6,0,2,5,211,377,0,1,1506
30,26,6,6,0,3,4,211,377,0,1,1258.29999998212
30,26,6,6,0,4,3,211,377,0,1,1481.59999999404
30,26,6,6,0,5,2,211,377,0,1,1304.69999998808
30,26,6,6,0,6,1,211,377,0,1,1577.30000001192
30,27,7,7,0,1,0,189,398,0,1,1185.10000002384
30,27,7,7,0,2,6,189,398,0,1,1432.29999998212
30,27,7,7,0,3,5,189,398,0,1,1210.80000001192
30,27,7,7,0,4,4,189,398,0,1,1505.09999999404
30,27,7,7,0,5,3,189,398,0,1,1229.30000001192
30,27,7,7,0,6,2,189,398,0,1,1238.20000001788
30,27,7,7,0,7,1,189,398,0,1,1654.40000000596
30,28,7,9,2,1,0,7,190,0,1,1560.90000000596
30,28,7,9,2,2,6,7,190,0,1,2000.90000000596
30,28,7,9,2,3,5,7,190,0,1,1302.10000002384
30,28,7,9,2,4,4,7,190,0,1,1229.69999998808
30,28,7,9,2,5,3,7,190,0,1,1229.80000001192
30,28,7,9,2,6,2,7,190,0,1,1284.40000000596
30,28,7,9,2,7,1,7,190,0,1,1300.90000000596
30,28,7,9,2,8,0,7,190,0,1,1197.90000000596
30,28,7,9,2,9,0,7,190,0,1,1168.60000002384
30,29,6,2,-4,1,6,216,447,0,1,1425.40000000596
30,29,6,2,-4,2,5,216,447,0,1,1344
30,30,5,5,0,1,4,25,172,0,1,1325.20000001788
30,30,5,5,0,2,4,25,172,0,1,1745.59999999404
30,30,5,5,0,3,3,25,172,0,1,1200.09999999404
30,30,5,5,0,4,2,25,172,0,1,1264
30,30,5,5,0,5,1,25,172,0,1,1578.29999998212
30,31,6,4,-2,1,0,264,445,0,1,2017.90000000596
30,31,6,4,-2,2,5,264,445,0,1,1865.5
30,31,6,4,-2,3,4,264,445,0,1,2287.90000000596
30,31,6,4,-2,4,3,264,445,0,1,1310.09999999404
30,32,7,7,0,1,2,132,279,0,1,1433.10000002384
30,32,7,7,0,2,6,132,279,0,1,1503.79999998212
30,32,7,7,0,3,5,132,279,0,1,1593.69999998808
30,32,7,7,0,4,4,132,279,0,1,2969.90000000596
30,32,7,7,0,5,3,132,279,0,1,1205.59999999404
30,32,7,7,0,6,2,132,279,0,1,1322.5
30,32,7,7,0,7,1,132,279,0,1,1574.19999998808
30,33,6,6,0,1,0,63,223,0,1,1346.10000002384
30,33,6,6,0,2,5,63,223,0,1,2464.60000002384
30,33,6,6,0,3,4,63,223,0,1,1453.09999999404
30,33,6,6,0,4,3,63,223,0,1,1238.09999999404
30,33,6,6,0,5,2,63,223,0,1,1144
30,33,6,6,0,6,1,63,223,0,1,1504.79999998212
30,34,5,5,0,1,0,303,535,0,1,2524.60000002384
30,34,5,5,0,2,4,303,535,0,1,1923.19999998808
30,34,5,5,0,3,3,303,535,0,1,1631.79999998212
30,34,5,5,0,4,2,303,535,0,1,1219.09999999404
30,34,5,5,0,5,1,303,535,0,1,1465.19999998808
30,35,6,5,-1,1,0,185,335,0,1,2229.59999999404
30,35,6,5,-1,2,5,185,335,0,1,1360.19999998808
30,35,6,5,-1,3,4,185,335,0,1,1416.60000002384
30,35,6,5,-1,4,3,185,335,0,1,1351
30,35,6,5,-1,5,2,185,335,0,1,2019.80000001192
30,36,5,5,0,1,1,270,428,0,1,1598.19999998808
30,36,5,5,0,2,4,270,428,0,1,1234.40000000596
30,36,5,5,0,3,3,270,428,0,1,1309.09999999404
30,36,5,5,0,4,2,270,428,0,1,1219.5
30,36,5,5,0,5,1,270,428,0,1,1400.79999998212
30,37,7,4,-3,1,0,204,392,0,1,1794.20000001788
30,37,7,4,-3,2,6,204,392,0,1,1198.69999998808
30,37,7,4,-3,3,5,204,392,0,1,1988.09999999404
30,37,7,4,-3,4,4,204,392,0,1,1214.80000001192
30,38,5,1,-4,1,3,151,353,0,1,1518.5
30,39,7,4,-3,1,2,264,477,0,1,1399.90000000596
30,39,7,4,-3,2,6,264,477,0,1,1274.90000000596
30,39,7,4,-3,3,5,264,477,0,1,1499.90000000596
30,39,7,4,-3,4,4,264,477,0,1,1409.80000001192
30,40,6,6,0,1,3,208,435,0,1,2724
30,40,6,6,0,2,5,208,435,0,1,1433.19999998808
30,40,6,6,0,3,4,208,435,0,1,1378.79999998212
30,40,6,6,0,4,3,208,435,0,1,1523.59999999404
30,40,6,6,0,5,2,208,435,0,1,1248.89999997616
30,40,6,6,0,6,1,208,435,0,1,1401.39999997616
30,41,6,4,-2,1,0,64,217,0,1,1513.40000000596
30,41,6,4,-2,2,5,64,217,0,1,1302.20000001788
30,41,6,4,-2,3,4,64,217,0,1,1222
30,41,6,4,-2,4,3,64,217,0,1,1643.09999999404
30,42,6,8,2,1,2,81,284,0,1,1259.40000000596
30,42,6,8,2,2,5,81,284,0,1,1629
30,42,6,8,2,3,4,81,284,0,1,1453.20000001788
30,42,6,8,2,4,3,81,284,0,1,1485.80000001192
30,42,6,8,2,5,2,81,284,0,1,1267.79999998212
30,42,6,8,2,6,1,81,284,0,1,2590.30000001192
30,42,6,8,2,7,0,81,284,0,1,1211.09999999404
30,42,6,8,2,8,0,81,284,0,1,1374.40000000596
30,43,5,6,1,1,5,263,472,0,1,1310
30,43,5,6,1,2,4,263,472,0,1,1397.69999998808
30,43,5,6,1,3,3,263,472,0,1,1326.20000001788
30,43,5,6,1,4,2,263,472,0,1,2714.59999999404
30,43,5,6,1,5,1,263,472,0,1,1720
30,43,5,6,1,6,0,263,472,0,1,1285.30000001192
30,44,7,6,-1,1,7,153,379,0,1,1245.29999998212
30,44,7,6,-1,2,6,153,379,0,1,1203.19999998808
30,44,7,6,-1,3,5,153,379,0,1,1587
30,44,7,6,-1,4,4,153,379,0,1,1149.59999999404
30,44,7,6,-1,5,3,153,379,0,1,1245.90000000596
30,44,7,6,-1,6,2,153,379,0,1,1259.70000001788
30,45,5,6,1,1,1,196,393,0,1,1533.69999998808
30,45,5,6,1,2,4,196,393,0,1,1228.30000001192
30,45,5,6,1,3,3,196,393,0,1,2331
30,45,5,6,1,4,2,196,393,0,1,2076.20000001788
30,45,5,6,1,5,1,196,393,0,1,1216.5
30,45,5,6,1,6,0,196,393,0,1,2588.5
30,46,5,5,0,1,5,325,514,0,1,1711
30,46,5,5,0,2,4,325,514,0,1,1504.69999998808
30,46,5,5,0,3,3,325,514,0,1,1333.29999998212
30,46,5,5,0,4,2,325,514,0,1,1306.19999998808
30,46,5,5,0,5,1,325,514,0,1,1201
30,47,6,6,0,1,0,186,402,0,1,1556.5
30,47,6,6,0,2,5,186,402,0,1,2177.5
30,47,6,6,0,3,4,186,402,0,1,1223
30,47,6,6,0,4,3,186,402,0,1,1872.30000001192
30,47,6,6,0,5,2,186,402,0,1,1242.5
30,47,6,6,0,6,1,186,402,0,1,1899.79999998212
30,48,6,10,4,1,0,331,500,0,1,1533.70000001788
30,48,6,10,4,2,5,331,500,0,1,1418.59999999404
30,48,6,10,4,3,4,331,500,0,1,2352.5
30,48,6,10,4,4,3,331,500,0,1,1859.40000000596
30,48,6,10,4,5,2,331,500,0,1,2029.59999999404
30,48,6,10,4,6,1,331,500,0,1,1298.09999999404
30,48,6,10,4,7,0,331,500,0,1,1236.59999999404
30,48,6,10,4,8,0,331,500,0,1,1623.5
30,48,6,10,4,9,0,331,500,0,1,1493.79999998212
30,48,6,10,4,10,0,331,500,0,1,1472.59999999404
30,49,6,9,3,1,6,151,359,0,1,1748
30,49,6,9,3,2,5,151,359,0,1,1169.79999998212
30,49,6,9,3,3,4,151,359,0,1,2057.5
30,49,6,9,3,4,3,151,359,0,1,1918
30,49,6,9,3,5,2,151,359,0,1,1197.80000001192
30,49,6,9,3,6,1,151,359,0,1,1194.5
30,49,6,9,3,7,0,151,359,0,1,1851.29999998212
30,49,6,9,3,8,0,151,359,0,1,2191.90000000596
30,49,6,9,3,9,0,151,359,0,1,1465.5
30,50,5,3,-2,1,5,295,451,0,1,1460.60000002384
30,50,5,3,-2,2,4,295,451,0,1,1295.5
30,50,5,3,-2,3,3,295,451,0,1,2522.70000001788
30,51,7,7,0,1,2,122,308,0,1,1339.89999997616
30,51,7,7,0,2,6,122,308,0,1,1235.10000002384
30,51,7,7,0,3,5,122,308,0,1,1287.59999999404
30,51,7,7,0,4,4,122,308,0,1,2224.19999998808
30,51,7,7,0,5,3,122,308,0,1,2229.59999999404
30,51,7,7,0,6,2,122,308,0,1,1291.59999999404
30,51,7,7,0,7,1,122,308,0,1,1875.80000001192
30,52,6,8,2,1,0,281,495,0,1,1324.69999998808
30,52,6,8,2,2,5,281,495,0,1,1267
30,52,6,8,2,3,4,281,495,0,1,1496.69999998808
30,52,6,8,2,4,3,281,495,0,1,1419
30,52,6,8,2,5,2,281,495,0,1,1189.59999999404
30,52,6,8,2,6,1,281,495,0,1,1279.59999999404
30,52,6,8,2,7,0,281,495,0,1,1233.80000001192
30,52,6,8,2,8,0,281,495,0,1,2304.30000001192
30,53,5,5,0,1,5,124,290,0,1,1786.40000000596
30,53,5,5,0,2,4,124,290,0,1,1578.09999999404
30,53,5,5,0,3,3,124,290,0,1,1317.59999999404
30,53,5,5,0,4,2,124,290,0,1,1287.09999999404
30,53,5,5,0,5,1,124,290,0,1,1473.90000000596
30,54,7,7,0,1,0,281,465,0,1,1698.10000002384
30,54,7,7,0,2,6,281,465,0,1,1691.09999999404
30,54,7,7,0,3,5,281,465,0,1,1697.79999998212
30,54,7,7,0,4,4,281,465,0,1,1294.5
30,54,7,7,0,5,3,281,465,0,1,1265.90000000596
30,54,7,7,0,6,2,281,465,0,1,2153.10000002384
30,54,7,7,0,7,1,281,465,0,1,1416.5
30,55,7,9,2,1,0,321,520,0,1,2408
30,55,7,9,2,2,6,321,520,0,1,1460.90000000596
30,55,7,9,2,3,5,321,520,0,1,1328.40000000596
30,55,7,9,2,4,4,321,520,0,1,1576.80000001192
30,55,7,9,2,5,3,321,520,0,1,3876.30000001192
30,55,7,9,2,6,2,321,520,0,1,1182.90000000596
30,55,7,9,2,7,1,321,520,0,1,1822.19999998808
30,55,7,9,2,8,0,321,520,0,1,1588.69999998808
30,55,7,9,2,9,0,321,520,0,1,1205.09999999404
30,56,6,5,-1,1,6,278,488,0,1,1523.90000000596
30,56,6,5,-1,2,5,278,488,0,1,1576.69999998808
30,56,6,5,-1,3,4,278,488,0,1,1591.60000002384
30,56,6,5,-1,4,3,278,488,0,1,1172.19999998808
30,56,6,5,-1,5,2,278,488,0,1,1187.30000001192
30,57,7,5,-2,1,1,37,209,0,1,1665.80000001192
30,57,7,5,-2,2,6,37,209,0,1,2188.69999998808
30,57,7,5,-2,3,5,37,209,0,1,1438.09999999404
30,57,7,5,-2,4,4,37,209,0,1,1499.19999998808
30,57,7,5,-2,5,3,37,209,0,1,2075.19999998808
30,58,6,6,0,1,2,75,235,0,1,1555.40000000596
30,58,6,6,0,2,5,75,235,0,1,1278.59999999404
30,58,6,6,0,3,4,75,235,0,1,1446.09999999404
30,58,6,6,0,4,3,75,235,0,1,1828.09999999404
30,58,6,6,0,5,2,75,235,0,1,1271.5
30,58,6,6,0,6,1,75,235,0,1,1344.59999999404
30,59,5,8,3,1,0,36,238,0,1,1772.60000002384
30,59,5,8,3,2,4,36,238,0,1,1536.80000001192
30,59,5,8,3,3,3,36,238,0,1,1281.29999998212
30,59,5,8,3,4,2,36,238,0,1,1230.70000001788
30,59,5,8,3,5,1,36,238,0,1,1576.59999999404
30,59,5,8,3,6,0,36,238,0,1,1211.79999998212
30,59,5,8,3,7,0,36,238,0,1,2007.40000000596
30,59,5,8,3,8,0,36,238,0,1,1440.5
30,60,5,5,0,1,5,157,307,0,1,1620
30,60,5,5,0,2,4,157,307,0,1,2847.80000001192
30,60,5,5,0,3,3,157,307,0,1,1607.5
30,60,5,5,0,4,2,157,307,0,1,2205.79999998212
30,60,5,5,0,5,1,157,307,0,1,2534.59999999404
30,61,5,2,-3,1,0,10,175,0,1,1402.30000001192
30,61,5,2,-3,2,4,10,175,0,1,1162.79999998212
30,62,5,7,2,1,3,163,365,0,1,1430.5
30,62,5,7,2,2,4,163,365,0,1,1351.90000000596
30,62,5,7,2,3,3,163,365,0,1,1272.40000000596
30,62,5,7,2,4,2,163,365,0,1,1512
30,62,5,7,2,5,1,163,365,0,1,1948
30,62,5,7,2,6,0,163,365,0,1,1224.29999998212
30,62,5,7,2,7,0,163,365,0,1,1502.60000002384
30,63,6,7,1,1,6,143,292,0,1,1541.09999999404
30,63,6,7,1,2,5,143,292,0,1,2202
30,63,6,7,1,3,4,143,292,0,1,1255
30,63,6,7,1,4,3,143,292,0,1,1903.19999998808
30,63,6,7,1,5,2,143,292,0,1,1256.80000001192
30,63,6,7,1,6,1,143,292,0,1,1602.20000001788
30,63,6,7,1,7,0,143,292,0,1,1896.20000001788
30,64,6,6,0,1,6,218,402,0,1,1893.5
30,64,6,6,0,2,5,218,402,0,1,2751.20000001788
30,64,6,6,0,3,4,218,402,0,1,1256.30000001192
30,64,6,6,0,4,3,218,402,0,1,1294.89999997616
30,64,6,6,0,5,2,218,402,0,1,1256.89999997616
30,64,6,6,0,6,1,218,402,0,1,1259.79999998212
30,65,6,6,0,1,0,171,376,0,1,1672
30,65,6,6,0,2,5,171,376,0,1,1602.5
30,65,6,6,0,3,4,171,376,0,1,1189.90000000596
30,65,6,6,0,4,3,171,376,0,1,1460.59999999404
30,65,6,6,0,5,2,171,376,0,1,1463.59999999404
30,65,6,6,0,6,1,171,376,0,1,1436
30,66,5,5,0,1,0,32,234,0,1,1741.59999999404
30,66,5,5,0,2,4,32,234,0,1,1459.5
30,66,5,5,0,3,3,32,234,0,1,1536.10000002384
30,66,5,5,0,4,2,32,234,0,1,1273.90000000596
30,66,5,5,0,5,1,32,234,0,1,1536.90000000596
30,67,7,7,0,1,0,226,457,0,1,1635
30,67,7,7,0,2,6,226,457,0,1,1603
30,67,7,7,0,3,5,226,457,0,1,1648.80000001192
30,67,7,7,0,4,4,226,457,0,1,1639.79999998212
30,67,7,7,0,5,3,226,457,0,1,1252.39999997616
30,67,7,7,0,6,2,226,457,0,1,1527.80000001192
30,67,7,7,0,7,1,226,457,0,1,2483.60000002384
30,68,7,7,0,1,0,253,445,0,1,1454.40000000596
30,68,7,7,0,2,6,253,445,0,1,1313.09999999404
30,68,7,7,0,3,5,253,445,0,1,1444.90000000596
30,68,7,7,0,4,4,253,445,0,1,1730.69999998808
30,68,7,7,0,5,3,253,445,0,1,1486.19999998808
30,68,7,7,0,6,2,253,445,0,1,1852.09999999404
30,68,7,7,0,7,1,253,445,0,1,1513.30000001192
30,69,6,6,0,1,0,288,466,0,1,1535.19999998808
30,69,6,6,0,2,5,288,466,0,1,2131.29999998212
30,69,6,6,0,3,4,288,466,0,1,2108.90000000596
30,69,6,6,0,4,3,288,466,0,1,1255.29999998212
30,69,6,6,0,5,2,288,466,0,1,1234.69999998808
30,69,6,6,0,6,1,288,466,0,1,2018.59999999404
30,70,7,7,0,1,0,90,245,0,1,1513.40000000596
30,70,7,7,0,2,6,90,245,0,1,1322.09999999404
30,70,7,7,0,3,5,90,245,0,1,1289.20000001788
30,70,7,7,0,4,4,90,245,0,1,1549.5
30,70,7,7,0,5,3,90,245,0,1,1720.60000002384
30,70,7,7,0,6,2,90,245,0,1,1795.59999999404
30,70,7,7,0,7,1,90,245,0,1,1261
30,71,6,6,0,1,0,344,522,0,1,1517.80000001192
30,71,6,6,0,2,5,344,522,0,1,1962.09999999404
30,71,6,6,0,3,4,344,522,0,1,1446
30,71,6,6,0,4,3,344,522,0,1,1614.59999999404
30,71,6,6,0,5,2,344,522,0,1,1500.30000001192
30,71,6,6,0,6,1,344,522,0,1,1269.79999998212
30,72,5,7,2,1,0,176,334,0,1,1326.09999999404
30,72,5,7,2,2,4,176,334,0,1,1311.5
30,72,5,7,2,3,3,176,334,0,1,1476.90000000596
30,72,5,7,2,4,2,176,334,0,1,1348.80000001192
30,72,5,7,2,5,1,176,334,0,1,1535
30,72,5,7,2,6,0,176,334,0,1,1854.5
30,72,5,7,2,7,0,176,334,0,1,2259.5
30,73,7,7,0,1,7,177,380,0,1,1727.09999999404
30,73,7,7,0,2,6,177,380,0,1,1392.80000001192
30,73,7,7,0,3,5,177,380,0,1,1778.90000000596
30,73,7,7,0,4,4,177,380,0,1,1577.80000001192
30,73,7,7,0,5,3,177,380,0,1,1582
30,73,7,7,0,6,2,177,380,0,1,1341.19999998808
30,73,7,7,0,7,1,177,380,0,1,1312.5
30,74,7,7,0,1,0,210,393,0,1,1589.90000000596
30,74,7,7,0,2,6,210,393,0,1,1260.69999998808
30,74,7,7,0,3,5,210,393,0,1,1497.90000000596
30,74,7,7,0,4,4,210,393,0,1,1271.40000000596
30,74,7,7,0,5,3,210,393,0,1,1241.09999999404
30,74,7,7,0,6,2,210,393,0,1,2983.29999998212
30,74,7,7,0,7,1,210,393,0,1,1276.20000001788
30,75,5,3,-2,1,0,75,226,0,1,1455
30,75,5,3,-2,2,4,75,226,0,1,1592.29999998212
30,75,5,3,-2,3,3,75,226,0,1,1554.59999999404
30,76,7,7,0,1,2,358,559,0,1,2277.30000001192
30,76,7,7,0,2,6,358,559,0,1,3298.69999998808
30,76,7,7,0,3,5,358,559,0,1,1503.30000001192
30,76,7,7,0,4,4,358,559,0,1,1536.79999998212
30,76,7,7,0,5,3,358,559,0,1,1719
30,76,7,7,0,6,2,358,559,0,1,1799.30000001192
30,76,7,7,0,7,1,358,559,0,1,1255.30000001192
30,77,6,7,1,1,0,290,465,0,1,2576
30,77,6,7,1,2,5,290,465,0,1,1195.39999997616
30,77,6,7,1,3,4,290,465,0,1,1354.69999998808
30,77,6,7,1,4,3,290,465,0,1,2599.29999998212
30,77,6,7,1,5,2,290,465,0,1,1915.30000001192
30,77,6,7,1,6,1,290,465,0,1,1169.40000000596
30,77,6,7,1,7,0,290,465,0,1,1827.20000001788
30,78,5,5,0,1,5,187,420,0,1,1921
30,78,5,5,0,2,4,187,420,0,1,1319.80000001192
30,78,5,5,0,3,3,187,420,0,1,1515.5
30,78,5,5,0,4,2,187,420,0,1,1229
30,78,5,5,0,5,1,187,420,0,1,1230.29999998212
30,79,7,10,3,1,0,65,221,0,1,1581.69999998808
30,79,7,10,3,2,6,65,221,0,1,1257.09999999404
30,79,7,10,3,3,5,65,221,0,1,1623.09999999404
30,79,7,10,3,4,4,65,221,0,1,1261.70000001788
30,79,7,10,3,5,3,65,221,0,1,1287.90000000596
30,79,7,10,3,6,2,65,221,0,1,1336.19999998808
30,79,7,10,3,7,1,65,221,0,1,1319.90000000596
30,79,7,10,3,8,0,65,221,0,1,1359.5
30,79,7,10,3,9,0,65,221,0,1,1757.30000001192
30,79,7,10,3,10,0,65,221,0,1,1203.80000001192
30,80,5,5,0,1,5,194,416,0,1,1652.20000001788
30,80,5,5,0,2,4,194,416,0,1,1520.59999999404
30,80,5,5,0,3,3,194,416,0,1,1988.80000001192
30,80,5,5,0,4,2,194,416,0,1,2468.30000001192
30,80,5,5,0,5,1,194,416,0,1,1471
30,81,7,7,0,1,0,32,181,0,1,1381.20000001788
30,81,7,7,0,2,6,32,181,0,1,1201.59999999404
30,81,7,7,0,3,5,32,181,0,1,1101.09999999404
30,81,7,7,0,4,4,32,181,0,1,1187.69999998808
30,81,7,7,0,5,3,32,181,0,1,1644.80000001192
30,81,7,7,0,6,2,32,181,0,1,1207.29999998212
30,81,7,7,0,7,1,32,181,0,1,1841.70000001788
30,82,6,6,0,1,0,210,401,0,1,1695.79999998212
30,82,6,6,0,2,5,210,401,0,1,1505.10000002384
30,82,6,6,0,3,4,210,401,0,1,1219.60000002384
30,82,6,6,0,4,3,210,401,0,1,2012.59999999404
30,82,6,6,0,5,2,210,401,0,1,1195.10000002384
30,82,6,6,0,6,1,210,401,0,1,1295.09999999404
30,83,6,10,4,1,0,292,481,0,1,1494.40000000596
30,83,6,10,4,2,5,292,481,0,1,1268.69999998808
30,83,6,10,4,3,4,292,481,0,1,1766.5
30,83,6,10,4,4,3,292,481,0,1,2841.09999999404
30,83,6,10,4,5,2,292,481,0,1,1407.20000001788
30,83,6,10,4,6,1,292,481,0,1,1250.5
30,83,6,10,4,7,0,292,481,0,1,1284.59999999404
30,83,6,10,4,8,0,292,481,0,1,1652
30,83,6,10,4,9,0,292,481,0,1,1211.29999998212
30,83,6,10,4,10,0,292,481,0,1,1269
30,84,5,5,0,1,5,12,183,0,1,1171.90000000596
30,84,5,5,0,2,4,12,183,0,1,1287.29999998212
30,84,5,5,0,3,3,12,183,0,1,1757.09999999404
30,84,5,5,0,4,2,12,183,0,1,1516.80000001192
30,84,5,5,0,5,1,12,183,0,1,1465.59999999404
30,85,7,7,0,1,0,327,512,0,1,1268
30,85,7,7,0,2,6,327,512,0,1,1537.69999998808
30,85,7,7,0,3,5,327,512,0,1,1329.09999999404
30,85,7,7,0,4,4,327,512,0,1,2124.90000000596
30,85,7,7,0,5,3,327,512,0,1,1219.09999999404
30,85,7,7,0,6,2,327,512,0,1,1204.30000001192
30,85,7,7,0,7,1,327,512,0,1,1295.20000001788
30,86,7,7,0,1,0,129,361,0,1,1744.19999998808
30,86,7,7,0,2,6,129,361,0,1,1221.79999998212
30,86,7,7,0,3,5,129,361,0,1,1252.5
30,86,7,7,0,4,4,129,361,0,1,1550.69999998808
30,86,7,7,0,5,3,129,361,0,1,1247.09999999404
30,86,7,7,0,6,2,129,361,0,1,1417.5
30,86,7,7,0,7,1,129,361,0,1,1584.79999998212
30,87,6,6,0,1,0,121,304,0,1,1448.59999999404
30,87,6,6,0,2,5,121,304,0,1,1940.40000000596
30,87,6,6,0,3,4,121,304,0,1,1550.60000002384
30,87,6,6,0,4,3,121,304,0,1,1309.39999997616
30,87,6,6,0,5,2,121,304,0,1,1179.69999998808
30,87,6,6,0,6,1,121,304,0,1,1507.69999998808
30,88,6,9,3,1,0,71,296,0,1,1219.5
30,88,6,9,3,2,5,71,296,0,1,1241.40000000596
30,88,6,9,3,3,4,71,296,0,1,1544.5
30,88,6,9,3,4,3,71,296,0,1,1211.69999998808
30,88,6,9,3,5,2,71,296,0,1,1249.09999999404
30,88,6,9,3,6,1,71,296,0,1,1283.40000000596
30,88,6,9,3,7,0,71,296,0,1,1204.40000000596
30,88,6,9,3,8,0,71,296,0,1,1214.30000001192
30,88,6,9,3,9,0,71,296,0,1,1177.39999997616
30,89,5,5,0,1,5,151,325,0,1,1897.19999998808
30,89,5,5,0,2,4,151,325,0,1,1485.69999998808
30,89,5,5,0,3,3,151,325,0,1,1206.5
30,89,5,5,0,4,2,151,325,0,1,2906.5
30,89,5,5,0,5,1,151,325,0,1,1551.40000000596
30,90,7,3,-4,1,0,249,460,0,1,2767.10000002384
30,90,7,3,-4,2,6,249,460,0,1,1635.70000001788
30,90,7,3,-4,3,5,249,460,0,1,1384.40000000596
30,91,7,5,-2,1,4,178,409,0,1,1265.59999999404
30,91,7,5,-2,2,6,178,409,0,1,2008.19999998808
30,91,7,5,-2,3,5,178,409,0,1,1238.69999998808
30,91,7,5,-2,4,4,178,409,0,1,1975.89999997616
30,91,7,5,-2,5,3,178,409,0,1,1514.69999998808
30,92,5,9,4,1,2,121,304,0,1,1770.59999999404
30,92,5,9,4,2,4,121,304,0,1,1288.5
30,92,5,9,4,3,3,121,304,0,1,1212.30000001192
30,92,5,9,4,4,2,121,304,0,1,1533.69999998808
30,92,5,9,4,5,1,121,304,0,1,2545
30,92,5,9,4,6,0,121,304,0,1,1544.70000001788
30,92,5,9,4,7,0,121,304,0,1,1245
30,92,5,9,4,8,0,121,304,0,1,1911.69999998808
30,92,5,9,4,9,0,121,304,0,1,1495
30,93,6,6,0,1,6,272,437,0,1,1515.39999997616
30,93,6,6,0,2,5,272,437,0,1,1503.19999998808
30,93,6,6,0,3,4,272,437,0,1,1231.59999999404
30,93,6,6,0,4,3,272,437,0,1,2526
30,93,6,6,0,5,2,272,437,0,1,1644.29999998212
30,93,6,6,0,6,1,272,437,0,1,1252.19999998808
30,94,7,7,0,1,0,71,271,0,1,1618.20000001788
30,94,7,7,0,2,6,71,271,0,1,1577.5
30,94,7,7,0,3,5,71,271,0,1,1254.20000001788
30,94,7,7,0,4,4,71,271,0,1,1289.70000001788
30,94,7,7,0,5,3,71,271,0,1,1411.70000001788
30,94,7,7,0,6,2,71,271,0,1,1239.80000001192
30,94,7,7,0,7,1,71,271,0,1,1145.40000000596
30,95,6,6,0,1,0,174,329,0,1,1935.59999999404
30,95,6,6,0,2,5,174,329,0,1,1176
30,95,6,6,0,3,4,174,329,0,1,1292.39999997616
30,95,6,6,0,4,3,174,329,0,1,1246.40000000596
30,95,6,6,0,5,2,174,329,0,1,1496.90000000596
30,95,6,6,0,6,1,174,329,0,1,2341.90000000596
30,96,5,1,-4,1,0,344,521,0,1,2190.30000001192
2,1,7,7,0,1,7,331,534,0,1,2457.80000001192
2,1,7,7,0,2,6,331,534,0,1,1699.39999997616
2,1,7,7,0,3,5,331,534,0,1,1577.80000001192
2,1,7,7,0,4,4,331,534,0,1,1491.70000001788
2,1,7,7,0,5,3,331,534,0,1,1421.60000002384
2,1,7,7,0,6,2,331,534,0,1,1622.09999999404
2,1,7,7,0,7,1,331,534,0,1,2387
2,2,5,6,1,1,0,177,368,0,1,1289
2,2,5,6,1,2,4,177,368,0,1,1280.30000001192
2,2,5,6,1,3,3,177,368,0,1,1179.69999998808
2,2,5,6,1,4,2,177,368,0,1,1275.10000002384
2,2,5,6,1,5,1,177,368,0,1,1358.30000001192
2,2,5,6,1,6,0,177,368,0,1,1530.69999998808
2,3,6,3,-3,1,6,112,303,0,1,2519.69999998808
2,3,6,3,-3,2,5,112,303,0,1,1390.29999998212
2,3,6,3,-3,3,4,112,303,0,1,1379.20000001788
2,4,5,5,0,1,3,282,483,0,1,1629.69999998808
2,4,5,5,0,2,4,282,483,0,1,1796.59999999404
2,4,5,5,0,3,3,282,483,0,1,1216.5
2,4,5,5,0,4,2,282,483,0,1,1153
2,4,5,5,0,5,1,282,483,0,1,1215.5
2,5,7,7,0,1,0,116,350,0,1,1821.10000002384
2,5,7,7,0,2,6,116,350,0,1,1257.40000000596
2,5,7,7,0,3,5,116,350,0,1,1260.09999999404
2,5,7,7,0,4,4,116,350,0,1,1339.59999999404
2,5,7,7,0,5,3,116,350,0,1,3208.39999997616
2,5,7,7,0,6,2,116,350,0,1,1212
2,5,7,7,0,7,1,116,350,0,1,1231.70000001788
2,6,6,8,2,1,0,343,564,0,1,2146.69999998808
2,6,6,8,2,2,5,343,564,0,1,1189.90000000596
2,6,6,8,2,3,4,343,564,0,1,1210.5
2,6,6,8,2,4,3,343,564,0,1,1294.59999999404
2,6,6,8,2,5,2,343,564,0,1,1520.90000000596
2,6,6,8,2,6,1,343,564,0,1,1452.89999997616
2,6,6,8,2,7,0,343,564,0,1,1251.5
2,6,6,8,2,8,0,343,564,0,1,1777.19999998808
2,7,7,7,0,1,7,195,374,0,1,1037.09999999404
2,7,7,7,0,2,6,195,374,0,1,2261
2,7,7,7,0,3,5,195,374,0,1,2606.5
2,7,7,7,0,4,4,195,374,0,1,1140.70000001788
2,7,7,7,0,5,3,195,374,0,1,3290.30000001192
2,7,7,7,0,6,2,195,374,0,1,1173.59999999404
2,7,7,7,0,7,1,195,374,0,1,1188.19999998808
2,8,7,7,0,1,0,226,429,0,1,1281.09999999404
2,8,7,7,0,2,6,226,429,0,1,1465.09999999404
2,8,7,7,0,3,5,226,429,0,1,1275
2,8,7,7,0,4,4,226,429,0,1,1280.30000001192
2,8,7,7,0,5,3,226,429,0,1,1096.29999998212
2,8,7,7,0,6,2,226,429,0,1,1259.90000000596
2,8,7,7,0,7,1,226,429,0,1,1791.80000001192
2,9,7,3,-4,1,0,132,323,0,1,1467.80000001192
2,9,7,3,-4,2,6,132,323,0,1,1934.59999999404
2,9,7,3,-4,3,5,132,323,0,1,1108.59999999404
2,10,6,6,0,1,4,234,409,0,1,2287.09999999404
2,10,6,6,0,2,5,234,409,0,1,1039.09999999404
2,10,6,6,0,3,4,234,409,0,1,2336.20000001788
2,10,6,6,0,4,3,234,409,0,1,1261
2,10,6,6,0,5,2,234,409,0,1,1140
2,10,6,6,0,6,1,234,409,0,1,1150.59999999404
2,11,5,5,0,1,0,195,392,0,1,1170.19999998808
2,11,5,5,0,2,4,195,392,0,1,2991.10000002384
2,11,5,5,0,3,3,195,392,0,1,1192.80000001192
2,11,5,5,0,4,2,195,392,0,1,1694.90000000596
2,11,5,5,0,5,1,195,392,0,1,1166.59999999404
2,12,5,5,0,1,0,23,169,0,1,1438.19999998808
2,12,5,5,0,2,4,23,169,0,1,1365.30000001192
2,12,5,5,0,3,3,23,169,0,1,1401.09999999404
2,12,5,5,0,4,2,23,169,0,1,1259.89999997616
2,12,5,5,0,5,1,23,169,0,1,1464.90000000596
2,13,7,10,3,1,0,147,319,0,1,1572.5
2,13,7,10,3,2,6,147,319,0,1,1466
2,13,7,10,3,3,5,147,319,0,1,1209.5
2,13,7,10,3,4,4,147,319,0,1,1748.69999998808
2,13,7,10,3,5,3,147,319,0,1,1409.40000000596
2,13,7,10,3,6,2,147,319,0,1,1485.29999998212
2,13,7,10,3,7,1,147,319,0,1,1706.80000001192
2,13,7,10,3,8,0,147,319,0,1,1414.90000000596
2,13,7,10,3,9,0,147,319,0,1,1430.5
2,13,7,10,3,10,0,147,319,0,1,2110.39999997616
2,14,6,10,4,1,6,247,465,0,1,1115.30000001192
2,14,6,10,4,2,5,247,465,0,1,1210
2,14,6,10,4,3,4,247,465,0,1,1437.90000000596
2,14,6,10,4,4,3,247,465,0,1,1286.10000002384
2,14,6,10,4,5,2,247,465,0,1,1494.19999998808
2,14,6,10,4,6,1,247,465,0,1,1260.30000001192
2,14,6,10,4,7,0,247,465,0,1,1266.59999999404
2,14,6,10,4,8,0,247,465,0,1,1287.90000000596
2,14,6,10,4,9,0,247,465,0,1,2258.69999998808
2,14,6,10,4,10,0,247,465,0,1,1085.59999999404
2,15,6,6,0,1,6,56,261,0,1,1324.19999998808
2,15,6,6,0,2,5,56,261,0,1,1167.90000000596
2,15,6,6,0,3,4,56,261,0,1,1170.69999998808
2,15,6,6,0,4,3,56,261,0,1,2200.79999998212
2,15,6,6,0,5,2,56,261,0,1,1138.59999999404
2,15,6,6,0,6,1,56,261,0,1,1111
2,16,7,7,0,1,0,296,469,0,1,1513.59999999404
2,16,7,7,0,2,6,296,469,0,1,1273
2,16,7,7,0,3,5,296,469,0,1,2737.30000001192
2,16,7,7,0,4,4,296,469,0,1,1041.59999999404
2,16,7,7,0,5,3,296,469,0,1,1409.59999999404
2,16,7,7,0,6,2,296,469,0,1,1310.69999998808
2,16,7,7,0,7,1,296,469,0,1,1253.5
2,17,6,6,0,1,0,273,486,0,1,1686.30000001192
2,17,6,6,0,2,5,273,486,0,1,1254.5
2,17,6,6,0,3,4,273,486,0,1,1264.70000001788
2,17,6,6,0,4,3,273,486,0,1,1250.5
2,17,6,6,0,5,2,273,486,0,1,1861.80000001192
2,17,6,6,0,6,1,273,486,0,1,1275.59999999404
2,18,7,6,-1,1,0,51,254,0,1,2792.10000002384
2,18,7,6,-1,2,6,51,254,0,1,1055.69999998808
2,18,7,6,-1,3,5,51,254,0,1,1169.19999998808
2,18,7,6,-1,4,4,51,254,0,1,1349.70000001788
2,18,7,6,-1,5,3,51,254,0,1,1289.60000002384
2,18,7,6,-1,6,2,51,254,0,1,1187.19999998808
2,19,6,6,0,1,1,11,234,0,1,1168.70000001788
2,19,6,6,0,2,5,11,234,0,1,1209.09999999404
2,19,6,6,0,3,4,11,234,0,1,1246.90000000596
2,19,6,6,0,4,3,11,234,0,1,1155.10000002384
2,19,6,6,0,5,2,11,234,0,1,1230
2,19,6,6,0,6,1,11,234,0,1,1195.90000000596
2,20,5,1,-4,1,0,77,290,0,1,3318.40000000596
2,21,5,5,0,1,5,320,484,9,0,177.40000000596
2,21,5,5,0,2,4,320,484,5,0,184.59999999404
2,21,5,5,0,3,3,320,484,,,
2,21,5,5,0,4,2,320,484,0,1,1499.69999998808
2,21,5,5,0,5,1,320,484,0,1,1471.19999998808
2,22,7,7,0,1,0,48,255,0,1,3359.69999998808
2,22,7,7,0,2,6,48,255,0,1,1239.59999999404
2,22,7,7,0,3,5,48,255,0,1,1224.30000001192
2,22,7,7,0,4,4,48,255,0,1,1316
2,22,7,7,0,5,3,48,255,0,1,3552
2,22,7,7,0,6,2,48,255,5,0,155.59999999404
2,22,7,7,0,7,1,48,255,0,1,1310.80000001192
2,23,6,3,-3,1,0,245,406,0,1,1387.79999998212
2,23,6,3,-3,2,5,245,406,,,
2,23,6,3,-3,3,4,245,406,0,1,2044.5
2,24,7,7,0,1,3,235,462,0,1,1147.89999997616
2,24,7,7,0,2,6,235,462,0,1,1274.5
2,24,7,7,0,3,5,235,462,0,1,1977.30000001192
2,24,7,7,0,4,4,235,462,0,1,1124.80000001192
2,24,7,7,0,5,3,235,462,0,1,1428.19999998808
2,24,7,7,0,6,2,235,462,0,1,1316.5
2,24,7,7,0,7,1,235,462,0,1,1315.29999998212
2,25,5,5,0,1,0,304,506,0,1,1380.29999998212
2,25,5,5,0,2,4,304,506,0,1,1991.09999999404
2,25,5,5,0,3,3,304,506,0,1,1182.29999998212
2,25,5,5,0,4,2,304,506,0,1,1240.40000000596
2,25,5,5,0,5,1,304,506,0,1,1300
2,26,5,3,-2,1,0,111,279,0,1,1273.40000000596
2,26,5,3,-2,2,4,111,279,0,1,1293
2,26,5,3,-2,3,3,111,279,0,1,1757.09999999404
2,27,7,9,2,1,2,159,325,0,1,1331.60000002384
2,27,7,9,2,2,6,159,325,0,1,2319
2,27,7,9,2,3,5,159,325,0,1,1341
2,27,7,9,2,4,4,159,325,0,1,2617.09999999404
2,27,7,9,2,5,3,159,325,0,1,1971.5
2,27,7,9,2,6,2,159,325,0,1,1174.69999998808
2,27,7,9,2,7,1,159,325,0,1,1490.30000001192
2,27,7,9,2,8,0,159,325,0,1,1283.19999998808
2,27,7,9,2,9,0,159,325,0,1,2671.90000000596
2,28,6,6,0,1,6,137,329,0,1,1204.90000000596
2,28,6,6,0,2,5,137,329,0,1,1250.80000001192
2,28,6,6,0,3,4,137,329,0,1,1224.5
2,28,6,6,0,4,3,137,329,0,1,1126.30000001192
2,28,6,6,0,5,2,137,329,0,1,1613.80000001192
2,28,6,6,0,6,1,137,329,0,1,1429.5
2,29,7,7,0,1,0,211,387,0,1,2855.89999997616
2,29,7,7,0,2,6,211,387,0,1,1068.10000002384
2,29,7,7,0,3,5,211,387,0,1,1115.80000001192
2,29,7,7,0,4,4,211,387,0,1,1285
2,29,7,7,0,5,3,211,387,0,1,1286
2,29,7,7,0,6,2,211,387,0,1,1230.30000001192
2,29,7,7,0,7,1,211,387,0,1,3643.59999999404
2,30,5,9,4,1,0,315,540,0,1,1580
2,30,5,9,4,2,4,315,540,0,1,1287.40000000596
2,30,5,9,4,3,3,315,540,0,1,3018.89999997616
2,30,5,9,4,4,2,315,540,0,1,1182
2,30,5,9,4,5,1,315,540,0,1,3227.80000001192
2,30,5,9,4,6,0,315,540,0,1,3256
2,30,5,9,4,7,0,315,540,0,1,1442.79999998212
2,30,5,9,4,8,0,315,540,0,1,1529.40000000596
2,30,5,9,4,9,0,315,540,0,1,1246.39999997616
2,31,6,8,2,1,6,279,507,0,1,1310
2,31,6,8,2,2,5,279,507,0,1,1288
2,31,6,8,2,3,4,279,507,0,1,1366.59999999404
2,31,6,8,2,4,3,279,507,0,1,1231.80000001192
2,31,6,8,2,5,2,279,507,0,1,1287.09999999404
2,31,6,8,2,6,1,279,507,0,1,1345.80000001192
2,31,6,8,2,7,0,279,507,0,1,1741.90000000596
2,31,6,8,2,8,0,279,507,0,1,1515.39999997616
2,32,5,5,0,1,5,39,219,0,1,1416.40000000596
2,32,5,5,0,2,4,39,219,0,1,2772.39999997616
2,32,5,5,0,3,3,39,219,0,1,1399.70000001788
2,32,5,5,0,4,2,39,219,0,1,1394.89999997616
2,32,5,5,0,5,1,39,219,0,1,2516.70000001788
2,33,7,7,0,1,0,73,242,0,1,1382.79999998212
2,33,7,7,0,2,6,73,242,0,1,1224.20000001788
2,33,7,7,0,3,5,73,242,0,1,1217.19999998808
2,33,7,7,0,4,4,73,242,0,1,1366
2,33,7,7,0,5,3,73,242,0,1,1268.69999998808
2,33,7,7,0,6,2,73,242,0,1,1215.59999999404
2,33,7,7,0,7,1,73,242,0,1,1260.09999999404
2,34,6,6,0,1,0,189,371,0,1,2349.29999998212
2,34,6,6,0,2,5,189,371,0,1,1331.90000000596
2,34,6,6,0,3,4,189,371,0,1,3025.40000000596
2,34,6,6,0,4,3,189,371,0,1,2588.5
2,34,6,6,0,5,2,189,371,0,1,1281.70000001788
2,34,6,6,0,6,1,189,371,0,1,1401.5
2,35,5,5,0,1,0,294,440,0,1,1366.5
2,35,5,5,0,2,4,294,440,0,1,1445
2,35,5,5,0,3,3,294,440,0,1,1239.5
2,35,5,5,0,4,2,294,440,0,1,1239.30000001192
2,35,5,5,0,5,1,294,440,0,1,1308.5
2,36,7,11,4,1,0,92,299,0,1,1481.5
2,36,7,11,4,2,6,92,299,0,1,1664.30000001192
2,36,7,11,4,3,5,92,299,0,1,1395.5
2,36,7,11,4,4,4,92,299,0,1,1542.80000001192
2,36,7,11,4,5,3,92,299,0,1,1948.5
2,36,7,11,4,6,2,92,299,0,1,1444.70000001788
2,36,7,11,4,7,1,92,299,0,1,1366.30000001192
2,36,7,11,4,8,0,92,299,0,1,1359.90000000596
2,36,7,11,4,9,0,92,299,0,1,1246.70000001788
2,36,7,11,4,10,0,92,299,0,1,1302.60000002384
2,36,7,11,4,11,0,92,299,0,1,1363
2,37,6,10,4,1,6,96,257,0,1,1260.5
2,37,6,10,4,2,5,96,257,0,1,1271.09999999404
2,37,6,10,4,3,4,96,257,0,1,1295.40000000596
2,37,6,10,4,4,3,96,257,0,1,2970.80000001192
2,37,6,10,4,5,2,96,257,5,0,176.90000000596
2,37,6,10,4,6,1,96,257,0,1,1824.69999998808
2,37,6,10,4,7,0,96,257,0,1,1332.60000002384
2,37,6,10,4,8,0,96,257,0,1,1214.59999999404
2,37,6,10,4,9,0,96,257,0,1,1245.5
2,37,6,10,4,10,0,96,257,0,1,1295
2,38,5,7,2,1,5,217,428,0,1,2410.90000000596
2,38,5,7,2,2,4,217,428,0,1,1022.30000001192
2,38,5,7,2,3,3,217,428,0,1,2262.30000001192
2,38,5,7,2,4,2,217,428,0,1,1140.5
2,38,5,7,2,5,1,217,428,0,1,1273.09999999404
2,38,5,7,2,6,0,217,428,0,1,1359.30000001192
2,38,5,7,2,7,0,217,428,0,1,1218.19999998808
2,39,7,3,-4,1,7,137,358,0,1,1621.09999999404
2,39,7,3,-4,2,6,137,358,0,1,1451.30000001192
2,39,7,3,-4,3,5,137,358,0,1,1438.80000001192
2,40,7,5,-2,1,4,197,381,0,1,1676.30000001192
2,40,7,5,-2,2,6,197,381,0,1,1444.40000000596
2,40,7,5,-2,3,5,197,381,0,1,1522.09999999404
2,40,7,5,-2,4,4,197,381,0,1,2828.09999999404
2,40,7,5,-2,5,3,197,381,0,1,1386.90000000596
2,41,7,8,1,1,2,27,191,0,1,3734.90000000596
2,41,7,8,1,2,6,27,191,0,1,1728.59999999404
2,41,7,8,1,3,5,27,191,0,1,2077.5
2,41,7,8,1,4,4,27,191,0,1,1530.40000000596
2,41,7,8,1,5,3,27,191,0,1,1301.90000000596
2,41,7,8,1,6,2,27,191,0,1,1290.69999998808
2,41,7,8,1,7,1,27,191,0,1,1294.89999997616
2,41,7,8,1,8,0,27,191,0,1,1244.59999999404
2,42,7,6,-1,1,7,134,280,0,1,1447.70000001788
2,42,7,6,-1,2,6,134,280,0,1,1474.5
2,42,7,6,-1,3,5,134,280,0,1,2307.20000001788
2,42,7,6,-1,4,4,134,280,0,1,1403.20000001788
2,42,7,6,-1,5,3,134,280,0,1,1571.80000001192
2,42,7,6,-1,6,2,134,280,0,1,2756.40000000596
2,43,5,4,-1,1,1,201,408,0,1,1212.19999998808
2,43,5,4,-1,2,4,201,408,0,1,1536.29999998212
2,43,5,4,-1,3,3,201,408,0,1,1333.90000000596
2,43,5,4,-1,4,2,201,408,0,1,1231.80000001192
2,44,7,4,-3,1,1,87,313,0,1,1959.19999998808
2,44,7,4,-3,2,6,87,313,0,1,1388.40000000596
2,44,7,4,-3,3,5,87,313,0,1,1741.30000001192
2,44,7,4,-3,4,4,87,313,0,1,1273.59999999404
2,45,5,5,0,1,3,351,551,0,1,1309.40000000596
2,45,5,5,0,2,4,351,551,0,1,1204.59999999404
2,45,5,5,0,3,3,351,551,0,1,1407.79999998212
2,45,5,5,0,4,2,351,551,0,1,1379.09999999404
2,45,5,5,0,5,1,351,551,0,1,1222.30000001192
2,46,6,9,3,1,0,179,352,0,1,1210.19999998808
2,46,6,9,3,2,5,179,352,0,1,1251.59999999404
2,46,6,9,3,3,4,179,352,0,1,1380.79999998212
2,46,6,9,3,4,3,179,352,0,1,1267.40000000596
2,46,6,9,3,5,2,179,352,0,1,1145.5
2,46,6,9,3,6,1,179,352,0,1,2316.90000000596
2,46,6,9,3,7,0,179,352,0,1,2146.69999998808
2,46,6,9,3,8,0,179,352,0,1,1317.29999998212
2,46,6,9,3,9,0,179,352,0,1,1317.09999999404
2,47,7,10,3,1,7,114,346,0,1,1471.59999999404
2,47,7,10,3,2,6,114,346,0,1,1247.30000001192
2,47,7,10,3,3,5,114,346,0,1,1159.09999999404
2,47,7,10,3,4,4,114,346,0,1,1325.29999998212
2,47,7,10,3,5,3,114,346,0,1,1296.40000000596
2,47,7,10,3,6,2,114,346,0,1,1281.19999998808
2,47,7,10,3,7,1,114,346,0,1,1429.79999998212
2,47,7,10,3,8,0,114,346,0,1,1231.90000000596
2,47,7,10,3,9,0,114,346,0,1,1259.70000001788
2,47,7,10,3,10,0,114,346,0,1,1230.5
2,48,5,2,-3,1,5,144,317,0,1,2396
2,48,5,2,-3,2,4,144,317,0,1,1347.89999997616
2,49,6,7,1,1,3,215,401,0,1,1746.69999998808
2,49,6,7,1,2,5,215,401,0,1,1778
2,49,6,7,1,3,4,215,401,0,1,1169.10000002384
2,49,6,7,1,4,3,215,401,0,1,1052
2,49,6,7,1,5,2,215,401,0,1,1323.20000001788
2,49,6,7,1,6,1,215,401,0,1,1175.5
2,49,6,7,1,7,0,215,401,0,1,1328.69999998808
2,50,7,7,0,1,7,144,326,0,1,1471.90000000596
2,50,7,7,0,2,6,144,326,0,1,1489
2,50,7,7,0,3,5,144,326,0,1,1440.59999999404
2,50,7,7,0,4,4,144,326,0,1,1229.09999999404
2,50,7,7,0,5,3,144,326,0,1,1259.90000000596
2,50,7,7,0,6,2,144,326,0,1,1316.80000001192
2,50,7,7,0,7,1,144,326,0,1,1953.59999999404
2,51,6,4,-2,1,0,90,281,0,1,1359.5
2,51,6,4,-2,2,5,90,281,0,1,2061.89999997616
2,51,6,4,-2,3,4,90,281,0,1,1210.30000001192
2,51,6,4,-2,4,3,90,281,0,1,1343.09999999404
2,52,7,7,0,1,2,264,429,0,1,1600.59999999404
2,52,7,7,0,2,6,264,429,0,1,1491.20000001788
2,52,7,7,0,3,5,264,429,0,1,3595.90000000596
2,52,7,7,0,4,4,264,429,0,1,1393.09999999404
2,52,7,7,0,5,3,264,429,0,1,1438.20000001788
2,52,7,7,0,6,2,264,429,0,1,1479.59999999404
2,52,7,7,0,7,1,264,429,0,1,1522.5
2,53,6,6,0,1,0,39,233,0,1,1345
2,53,6,6,0,2,5,39,233,0,1,1257.70000001788
2,53,6,6,0,3,4,39,233,0,1,2445.60000002384
2,53,6,6,0,4,3,39,233,0,1,1272
2,53,6,6,0,5,2,39,233,0,1,1237.59999999404
2,53,6,6,0,6,1,39,233,0,1,1238.30000001192
2,54,7,7,0,1,0,247,462,0,1,1429.70000001788
2,54,7,7,0,2,6,247,462,0,1,1164.90000000596
2,54,7,7,0,3,5,247,462,0,1,1202.09999999404
2,54,7,7,0,4,4,247,462,0,1,1926.89999997616
2,54,7,7,0,5,3,247,462,0,1,1268.10000002384
2,54,7,7,0,6,2,247,462,0,1,1388.90000000596
2,54,7,7,0,7,1,247,462,0,1,1435.70000001788
2,55,6,4,-2,1,0,45,231,0,1,1307.80000001192
2,55,6,4,-2,2,5,45,231,0,1,1253.30000001192
2,55,6,4,-2,3,4,45,231,0,1,1208
2,55,6,4,-2,4,3,45,231,0,1,2225.19999998808
2,56,5,5,0,1,2,137,288,0,1,1376.19999998808
2,56,5,5,0,2,4,137,288,0,1,1288.59999999404
2,56,5,5,0,3,3,137,288,0,1,1344.30000001192
2,56,5,5,0,4,2,137,288,0,1,1601.19999998808
2,56,5,5,0,5,1,137,288,0,1,1379
2,57,7,7,0,1,0,56,222,0,1,1153.09999999404
2,57,7,7,0,2,6,56,222,0,1,1307.40000000596
2,57,7,7,0,3,5,56,222,0,1,1203.5
2,57,7,7,0,4,4,56,222,0,1,1302.09999999404
2,57,7,7,0,5,3,56,222,0,1,1209.90000000596
2,57,7,7,0,6,2,56,222,0,1,1238
2,57,7,7,0,7,1,56,222,0,1,1211.09999999404
2,58,7,7,0,1,0,83,249,0,1,1366.89999997616
2,58,7,7,0,2,6,83,249,0,1,1506.19999998808
2,58,7,7,0,3,5,83,249,0,1,1224.80000001192
2,58,7,7,0,4,4,83,249,0,1,1883.09999999404
2,58,7,7,0,5,3,83,249,0,1,1217.5
2,58,7,7,0,6,2,83,249,0,1,1139.79999998212
2,58,7,7,0,7,1,83,249,0,1,1465.79999998212
2,59,6,6,0,1,0,83,310,0,1,1726.59999999404
2,59,6,6,0,2,5,83,310,0,1,1267.40000000596
2,59,6,6,0,3,4,83,310,0,1,1515.40000000596
2,59,6,6,0,4,3,83,310,0,1,1253.60000002384
2,59,6,6,0,5,2,83,310,0,1,1396.29999998212
2,59,6,6,0,6,1,83,310,0,1,1867.40000000596
2,60,7,7,0,1,0,35,254,0,1,1221.89999997616
2,60,7,7,0,2,6,35,254,0,1,1291.09999999404
2,60,7,7,0,3,5,35,254,0,1,1543.19999998808
2,60,7,7,0,4,4,35,254,0,1,1281.40000000596
2,60,7,7,0,5,3,35,254,0,1,1208.30000001192
2,60,7,7,0,6,2,35,254,0,1,1040.70000001788
2,60,7,7,0,7,1,35,254,0,1,1152.10000002384
2,61,7,4,-3,1,0,168,391,0,1,1823.5
2,61,7,4,-3,2,6,168,391,0,1,1235.10000002384
2,61,7,4,-3,3,5,168,391,0,1,1962
2,61,7,4,-3,4,4,168,391,0,1,1292.20000001788
2,62,6,6,0,1,3,1,228,0,1,1210.79999998212
2,62,6,6,0,2,5,1,228,0,1,1304
2,62,6,6,0,3,4,1,228,0,1,1289.29999998212
2,62,6,6,0,4,3,1,228,0,1,1260.5
2,62,6,6,0,5,2,1,228,0,1,1271.59999999404
2,62,6,6,0,6,1,1,228,0,1,1330.5
2,63,5,5,0,1,0,33,261,0,1,1395.80000001192
2,63,5,5,0,2,4,33,261,0,1,1210.5
2,63,5,5,0,3,3,33,261,0,1,1160.69999998808
2,63,5,5,0,4,2,33,261,0,1,1301.70000001788
2,63,5,5,0,5,1,33,261,0,1,1417
2,64,6,6,0,1,0,137,372,0,1,1342.40000000596
2,64,6,6,0,2,5,137,372,0,1,2956.40000000596
2,64,6,6,0,3,4,137,372,0,1,1091.90000000596
2,64,6,6,0,4,3,137,372,0,1,1222.70000001788
2,64,6,6,0,5,2,137,372,0,1,1281.5
2,64,6,6,0,6,1,137,372,0,1,1294.90000000596
2,65,5,8,3,1,0,204,414,0,1,1459.09999999404
2,65,5,8,3,2,4,204,414,0,1,1366.19999998808
2,65,5,8,3,3,3,204,414,0,1,1899.40000000596
2,65,5,8,3,4,2,204,414,0,1,1273.59999999404
2,65,5,8,3,5,1,204,414,0,1,1118.19999998808
2,65,5,8,3,6,0,204,414,0,1,1265.19999998808
2,65,5,8,3,7,0,204,414,0,1,1293.09999999404
2,65,5,8,3,8,0,204,414,0,1,1309.5
2,66,5,5,0,1,5,115,290,0,1,1307.70000001788
2,66,5,5,0,2,4,115,290,0,1,1472.90000000596
2,66,5,5,0,3,3,115,290,0,1,1394.40000000596
2,66,5,5,0,4,2,115,290,0,1,1246.40000000596
2,66,5,5,0,5,1,115,290,0,1,1832.69999998808
2,67,5,5,0,1,0,22,169,0,1,1457.39999997616
2,67,5,5,0,2,4,22,169,0,1,1666.39999997616
2,67,5,5,0,3,3,22,169,0,1,1392.19999998808
2,67,5,5,0,4,2,22,169,0,1,1401.89999997616
2,67,5,5,0,5,1,22,169,0,1,1324
2,68,7,8,1,1,0,229,402,0,1,1301.29999998212
2,68,7,8,1,2,6,229,402,0,1,1778.29999998212
2,68,7,8,1,3,5,229,402,0,1,1230.29999998212
2,68,7,8,1,4,4,229,402,0,1,1472.69999998808
2,68,7,8,1,5,3,229,402,0,1,1167.79999998212
2,68,7,8,1,6,2,229,402,0,1,1380.10000002384
2,68,7,8,1,7,1,229,402,0,1,1507.90000000596
2,68,7,8,1,8,0,229,402,0,1,1301.5
2,69,5,5,0,1,5,257,418,0,1,1160.20000001788
2,69,5,5,0,2,4,257,418,0,1,1267
2,69,5,5,0,3,3,257,418,0,1,1254.79999998212
2,69,5,5,0,4,2,257,418,0,1,1343.5
2,69,5,5,0,5,1,257,418,0,1,2008.40000000596
2,70,7,9,2,1,0,119,311,0,1,1707.19999998808
2,70,7,9,2,2,6,119,311,0,1,1417.30000001192
2,70,7,9,2,3,5,119,311,0,1,1323.19999998808
2,70,7,9,2,4,4,119,311,0,1,1238.89999997616
2,70,7,9,2,5,3,119,311,0,1,1775.29999998212
2,70,7,9,2,6,2,119,311,0,1,2919.69999998808
2,70,7,9,2,7,1,119,311,0,1,1410.40000000596
2,70,7,9,2,8,0,119,311,0,1,1348.59999999404
2,70,7,9,2,9,0,119,311,0,1,1635
2,71,5,3,-2,1,5,353,529,0,1,1900
2,71,5,3,-2,2,4,353,529,0,1,2202.30000001192
2,71,5,3,-2,3,3,353,529,0,1,3227.19999998808
2,72,7,5,-2,1,2,284,506,0,1,1597.60000002384
2,72,7,5,-2,2,6,284,506,0,1,1311.19999998808
2,72,7,5,-2,3,5,284,506,0,1,1408.29999998212
2,72,7,5,-2,4,4,284,506,0,1,1267.09999999404
2,72,7,5,-2,5,3,284,506,0,1,1266
2,73,6,6,0,1,2,71,220,0,1,1450.40000000596
2,73,6,6,0,2,5,71,220,0,1,1218.60000002384
2,73,6,6,0,3,4,71,220,0,1,1236.40000000596
2,73,6,6,0,4,3,71,220,0,1,1193.79999998212
2,73,6,6,0,5,2,71,220,0,1,1261
2,73,6,6,0,6,1,71,220,0,1,2522.60000002384
2,74,6,6,0,1,0,148,371,0,1,1258.5
2,74,6,6,0,2,5,148,371,0,1,1209.80000001192
2,74,6,6,0,3,4,148,371,0,1,1302.80000001192
2,74,6,6,0,4,3,148,371,0,1,1386.80000001192
2,74,6,6,0,5,2,148,371,0,1,1260.30000001192
2,74,6,6,0,6,1,148,371,0,1,1337.30000001192
2,75,7,11,4,1,0,174,397,0,1,1210.09999999404
2,75,7,11,4,2,6,174,397,0,1,1316.19999998808
2,75,7,11,4,3,5,174,397,0,1,1231.19999998808
2,75,7,11,4,4,4,174,397,0,1,1389.19999998808
2,75,7,11,4,5,3,174,397,0,1,1315.59999999404
2,75,7,11,4,6,2,174,397,0,1,1316.40000000596
2,75,7,11,4,7,1,174,397,0,1,1160.30000001192
2,75,7,11,4,8,0,174,397,0,1,2026.70000001788
2,75,7,11,4,9,0,174,397,0,1,1146.90000000596
2,75,7,11,4,10,0,174,397,0,1,1216.69999998808
2,75,7,11,4,11,0,174,397,0,1,2310.10000002384
2,76,6,2,-4,1,6,147,296,0,1,1101.5
2,76,6,2,-4,2,5,147,296,0,1,1260.5
2,77,5,5,0,1,4,67,298,0,1,1379.90000000596
2,77,5,5,0,2,4,67,298,0,1,1273.90000000596
2,77,5,5,0,3,3,67,298,0,1,1434.80000001192
2,77,5,5,0,4,2,67,298,0,1,1275.19999998808
2,77,5,5,0,5,1,67,298,0,1,2253
2,78,6,5,-1,1,0,214,394,0,1,1018.5
2,78,6,5,-1,2,5,214,394,0,1,1180.19999998808
2,78,6,5,-1,3,4,214,394,0,1,1116.39999997616
2,78,6,5,-1,4,3,214,394,0,1,1925.59999999404
2,78,6,5,-1,5,2,214,394,0,1,1183.19999998808
2,79,6,9,3,1,1,280,496,0,1,1097.30000001192
2,79,6,9,3,2,5,280,496,0,1,1209.90000000596
2,79,6,9,3,3,4,280,496,0,1,1096.09999999404
2,79,6,9,3,4,3,280,496,0,1,1237.69999998808
2,79,6,9,3,5,2,280,496,0,1,1308.5
2,79,6,9,3,6,1,280,496,0,1,1260.09999999404
2,79,6,9,3,7,0,280,496,0,1,1229.30000001192
2,79,6,9,3,8,0,280,496,0,1,1430.59999999404
2,79,6,9,3,9,0,280,496,0,1,1160
2,80,5,5,0,1,5,194,353,0,1,1224.30000001192
2,80,5,5,0,2,4,194,353,0,1,1172.80000001192
2,80,5,5,0,3,3,194,353,0,1,1289.29999998212
2,80,5,5,0,4,2,194,353,0,1,1311
2,80,5,5,0,5,1,194,353,0,1,2306.90000000596
2,81,6,6,0,1,0,46,212,0,1,1765.90000000596
2,81,6,6,0,2,5,46,212,0,1,1245.80000001192
2,81,6,6,0,3,4,46,212,0,1,1352.20000001788
2,81,6,6,0,4,3,46,212,0,1,1173.40000000596
2,81,6,6,0,5,2,46,212,0,1,1267.09999999404
2,81,6,6,0,6,1,46,212,0,1,1202
2,82,6,6,0,1,0,187,337,0,1,2507.80000001192
2,82,6,6,0,2,5,187,337,0,1,1172.40000000596
2,82,6,6,0,3,4,187,337,0,1,1373.80000001192
2,82,6,6,0,4,3,187,337,0,1,1884
2,82,6,6,0,5,2,187,337,0,1,1220.39999997616
2,82,6,6,0,6,1,187,337,0,1,1287.30000001192
2,83,7,7,0,1,0,284,447,0,1,1415.5
2,83,7,7,0,2,6,284,447,0,1,1267.89999997616
2,83,7,7,0,3,5,284,447,0,1,2584
2,83,7,7,0,4,4,284,447,0,1,1196.5
2,83,7,7,0,5,3,284,447,0,1,1245.90000000596
2,83,7,7,0,6,2,284,447,0,1,1246.29999998212
2,83,7,7,0,7,1,284,447,0,1,1771.20000001788
2,84,6,7,1,1,0,153,348,0,1,1363.80000001192
2,84,6,7,1,2,5,153,348,0,1,1224.40000000596
2,84,6,7,1,3,4,153,348,0,1,1308.70000001788
2,84,6,7,1,4,3,153,348,0,1,1259.40000000596
2,84,6,7,1,5,2,153,348,0,1,1245.69999998808
2,84,6,7,1,6,1,153,348,0,1,1274.5
2,84,6,7,1,7,0,153,348,0,1,1983.09999999404
2,85,5,1,-4,1,5,132,295,0,1,1237.69999998808
2,86,5,2,-3,1,4,323,499,0,1,1572.60000002384
2,86,5,2,-3,2,4,323,499,0,1,1600.90000000596
2,87,6,6,0,1,3,315,467,0,1,1437.09999999404
2,87,6,6,0,2,5,315,467,0,1,1320.70000001788
2,87,6,6,0,3,4,315,467,0,1,1691
2,87,6,6,0,4,3,315,467,0,1,1415.5
2,87,6,6,0,5,2,315,467,0,1,1324.90000000596
2,87,6,6,0,6,1,315,467,0,1,1245
2,88,6,6,0,1,0,29,225,0,1,1394.19999998808
2,88,6,6,0,2,5,29,225,0,1,1186.10000002384
2,88,6,6,0,3,4,29,225,0,1,1316.90000000596
2,88,6,6,0,4,3,29,225,0,1,1203
2,88,6,6,0,5,2,29,225,0,1,1316.70000001788
2,88,6,6,0,6,1,29,225,0,1,1195.30000001192
2,89,5,8,3,1,0,84,251,0,1,1287.70000001788
2,89,5,8,3,2,4,84,251,0,1,1346
2,89,5,8,3,3,3,84,251,0,1,1195.59999999404
2,89,5,8,3,4,2,84,251,0,1,1343.29999998212
2,89,5,8,3,5,1,84,251,0,1,1381.09999999404
2,89,5,8,3,6,0,84,251,0,1,1614.59999999404
2,89,5,8,3,7,0,84,251,0,1,1341.70000001788
2,89,5,8,3,8,0,84,251,0,1,1409.40000000596
2,90,6,2,-4,1,6,315,460,0,1,1798.20000001788
2,90,6,2,-4,2,5,315,460,0,1,1479.30000001192
2,91,5,7,2,1,4,323,533,0,1,1543.09999999404
2,91,5,7,2,2,4,323,533,0,1,4346.80000001192
2,91,5,7,2,3,3,323,533,0,1,1380.5
2,91,5,7,2,4,2,323,533,0,1,1673.10000002384
2,91,5,7,2,5,1,323,533,0,1,1578.29999998212
2,91,5,7,2,6,0,323,533,0,1,2648.59999999404
2,91,5,7,2,7,0,323,533,0,1,1309.59999999404
2,92,5,5,0,1,5,21,175,0,1,1658.60000002384
2,92,5,5,0,2,4,21,175,0,1,1519.29999998212
2,92,5,5,0,3,3,21,175,0,1,1274.80000001192
2,92,5,5,0,4,2,21,175,0,1,2046.20000001788
2,92,5,5,0,5,1,21,175,0,1,1554.5
2,93,5,6,1,1,0,148,352,0,1,3489
2,93,5,6,1,2,4,148,352,0,1,1305.19999998808
2,93,5,6,1,3,3,148,352,0,1,1281.5
2,93,5,6,1,4,2,148,352,0,1,1302.5
2,93,5,6,1,5,1,148,352,0,1,1273.69999998808
2,93,5,6,1,6,0,148,352,0,1,1686.09999999404
2,94,5,4,-1,1,5,212,410,0,1,1294.40000000596
2,94,5,4,-1,2,4,212,410,0,1,1286.59999999404
2,94,5,4,-1,3,3,212,410,0,1,1286.5
2,94,5,4,-1,4,2,212,410,0,1,1238.59999999404
2,95,6,5,-1,1,1,337,500,0,1,1409.60000002384
2,95,6,5,-1,2,5,337,500,0,1,1299.79999998212
2,95,6,5,-1,3,4,337,500,0,1,1194.90000000596
2,95,6,5,-1,4,3,337,500,0,1,1267.40000000596
2,95,6,5,-1,5,2,337,500,0,1,1205.20000001788
2,96,5,9,4,1,1,223,456,0,1,1363.90000000596
2,96,5,9,4,2,4,223,456,0,1,2259.30000001192
2,96,5,9,4,3,3,223,456,0,1,1007.90000000596
2,96,5,9,4,4,2,223,456,0,1,1140.20000001788
2,96,5,9,4,5,1,223,456,0,1,1161.79999998212
2,96,5,9,4,6,0,223,456,0,1,1340
2,96,5,9,4,7,0,223,456,0,1,1111.40000000596
2,96,5,9,4,8,0,223,456,0,1,2367.40000000596
2,96,5,9,4,9,0,223,456,0,1,1112.10000002384
36,1,5,2,-3,1,5,343,490,0,1,3766.40000000596
36,1,5,2,-3,2,4,343,490,0,1,1558.39999999106
36,2,6,2,-4,1,3,300,522,0,1,1576.5
36,2,6,2,-4,2,5,300,522,0,1,1678.59999999404
36,3,7,10,3,1,4,315,491,0,1,1527.59999999404
36,3,7,10,3,2,6,315,491,0,1,2828.20000000298
36,3,7,10,3,3,5,315,491,6,0,228.899999991059
36,3,7,10,3,4,4,315,491,0,1,1724.39999999106
36,3,7,10,3,5,3,315,491,0,1,1457.70000000298
36,3,7,10,3,6,2,315,491,0,1,1427.90000000596
36,3,7,10,3,7,1,315,491,0,1,1627
36,3,7,10,3,8,0,315,491,0,1,1194.90000000596
36,3,7,10,3,9,0,315,491,0,1,1478.59999999404
36,3,7,10,3,10,0,315,491,0,1,1861.59999999404
36,4,5,5,0,1,5,200,393,0,1,1779.39999999106
36,4,5,5,0,2,4,200,393,0,1,3277.90000000596
36,4,5,5,0,3,3,200,393,0,1,1928.79999999702
36,4,5,5,0,4,2,200,393,0,1,2329.19999998808
36,4,5,5,0,5,1,200,393,0,1,1228.90000000596
36,5,5,2,-3,1,0,114,312,0,1,1328.90000000596
36,5,5,2,-3,2,4,114,312,0,1,1291.90000000596
36,6,5,5,0,1,3,185,418,0,1,1662
36,6,5,5,0,2,4,185,418,0,1,1145.89999999106
36,6,5,5,0,3,3,185,418,0,1,1112
36,6,5,5,0,4,2,185,418,0,1,1412
36,6,5,5,0,5,1,185,418,0,1,1158.30000001192
36,7,5,6,1,1,0,302,487,0,1,1445.70000000298
36,7,5,6,1,2,4,302,487,0,1,1262.39999999106
36,7,5,6,1,3,3,302,487,0,1,1495.70000000298
36,7,5,6,1,4,2,302,487,0,1,1095.09999999404
36,7,5,6,1,5,1,302,487,0,1,1008.09999999404
36,7,5,6,1,6,0,302,487,0,1,1262.40000000596
36,8,7,11,4,1,7,335,550,0,1,1446.09999999404
36,8,7,11,4,2,6,335,550,0,1,1329.09999999404
36,8,7,11,4,3,5,335,550,0,1,946
36,8,7,11,4,4,4,335,550,0,1,1091
36,8,7,11,4,5,3,335,550,0,1,1428.90000000596
36,8,7,11,4,6,2,335,550,0,1,1279.20000000298
36,8,7,11,4,7,1,335,550,0,1,1578.89999999106
36,8,7,11,4,8,0,335,550,0,1,1529.29999999702
36,8,7,11,4,9,0,335,550,0,1,1062.09999999404
36,8,7,11,4,10,0,335,550,0,1,1229.5
36,8,7,11,4,11,0,335,550,0,1,991.100000008941
36,9,5,7,2,1,5,291,525,0,1,1612.59999999404
36,9,5,7,2,2,4,291,525,0,1,1079.40000000596
36,9,5,7,2,3,3,291,525,0,1,962.399999991059
36,9,5,7,2,4,2,291,525,0,1,1778.90000000596
36,9,5,7,2,5,1,291,525,0,1,1390.90000000596
36,9,5,7,2,6,0,291,525,0,1,1395
36,9,5,7,2,7,0,291,525,0,1,1928.40000000596
36,10,6,6,0,1,6,112,271,0,1,1579.20000000298
36,10,6,6,0,2,5,112,271,0,1,1097.70000000298
36,10,6,6,0,3,4,112,271,0,1,944.59999999404
36,10,6,6,0,4,3,112,271,0,1,1092.69999998808
36,10,6,6,0,5,2,112,271,0,1,1362.20000000298
36,10,6,6,0,6,1,112,271,0,1,1811.70000000298
36,11,5,8,3,1,0,167,378,0,1,1829
36,11,5,8,3,2,4,167,378,0,1,1412
36,11,5,8,3,3,3,167,378,0,1,1246
36,11,5,8,3,4,2,167,378,0,1,1029
36,11,5,8,3,5,1,167,378,0,1,1025.80000001192
36,11,5,8,3,6,0,167,378,0,1,1212.39999999106
36,11,5,8,3,7,0,167,378,0,1,1129.09999999404
36,11,5,8,3,8,0,167,378,0,1,1658.10000000894
36,12,7,3,-4,1,7,71,226,0,1,1228.80000001192
36,12,7,3,-4,2,6,71,226,0,1,1045.30000001192
36,12,7,3,-4,3,5,71,226,0,1,1244.80000001192
36,13,5,4,-1,1,4,133,278,0,1,1129.59999999404
36,13,5,4,-1,2,4,133,278,0,1,1175.19999998808
36,13,5,4,-1,3,3,133,278,0,1,1011.79999999702
36,13,5,4,-1,4,2,133,278,0,1,1162.5
36,14,5,1,-4,1,1,80,243,0,1,1591.5
36,15,7,7,0,1,0,357,572,0,1,1312.40000000596
36,15,7,7,0,2,6,357,572,0,1,1144.80000001192
36,15,7,7,0,3,5,357,572,0,1,1896.09999999404
36,15,7,7,0,4,4,357,572,0,1,1046.09999999404
36,15,7,7,0,5,3,357,572,0,1,995.40000000596
36,15,7,7,0,6,2,357,572,0,1,995.900000005961
36,15,7,7,0,7,1,357,572,0,1,1375.5
36,16,6,6,0,1,0,237,400,0,1,1295.60000000894
36,16,6,6,0,2,5,237,400,0,1,1161.69999998808
36,16,6,6,0,3,4,237,400,0,1,1661.59999999404
36,16,6,6,0,4,3,237,400,0,1,1545.09999999404
36,16,6,6,0,5,2,237,400,0,1,2711.20000000298
36,16,6,6,0,6,1,237,400,0,1,1545.40000000596
36,17,6,7,1,1,0,46,198,0,1,1617.40000000596
36,17,6,7,1,2,5,46,198,0,1,1028.60000000894
36,17,6,7,1,3,4,46,198,0,1,1544.59999999404
36,17,6,7,1,4,3,46,198,0,1,1008.30000001192
36,17,6,7,1,5,2,46,198,0,1,979.29999999702
36,17,6,7,1,6,1,46,198,0,1,1196.10000000894
36,17,6,7,1,7,0,46,198,0,1,1107.79999999702
36,18,6,4,-2,1,6,86,253,0,1,1262.59999999404
36,18,6,4,-2,2,5,86,253,0,1,1362.5
36,18,6,4,-2,3,4,86,253,0,1,1312.59999999404
36,18,6,4,-2,4,3,86,253,0,1,1112
36,19,6,6,0,1,2,191,376,0,1,1558.10000000894
36,19,6,6,0,2,5,191,376,0,1,1145
36,19,6,6,0,3,4,191,376,0,1,1179.09999999404
36,19,6,6,0,4,3,191,376,0,1,1078.80000001192
36,19,6,6,0,5,2,191,376,0,1,1412.40000000596
36,19,6,6,0,6,1,191,376,0,1,1425.10000000894
36,20,7,7,0,1,0,143,348,0,1,1711.59999999404
36,20,7,7,0,2,6,143,348,0,1,1511.40000000596
36,20,7,7,0,3,5,143,348,0,1,1428.79999999702
36,20,7,7,0,4,4,143,348,0,1,1708.59999999404
36,20,7,7,0,5,3,143,348,0,1,1311.40000000596
36,20,7,7,0,6,2,143,348,0,1,1762
36,20,7,7,0,7,1,143,348,0,1,1562.60000000894
36,21,5,5,0,1,0,41,272,0,1,1779
36,21,5,5,0,2,4,41,272,0,1,1361.79999999702
36,21,5,5,0,3,3,41,272,0,1,1028.90000000596
36,21,5,5,0,4,2,41,272,0,1,1095.20000000298
36,21,5,5,0,5,1,41,272,0,1,1291.80000001192
36,22,5,5,0,1,0,343,531,0,1,1262.69999998808
36,22,5,5,0,2,4,343,531,0,1,1262.70000000298
36,22,5,5,0,3,3,343,531,0,1,1295.89999999106
36,22,5,5,0,4,2,343,531,0,1,1312.29999999702
36,22,5,5,0,5,1,343,531,0,1,1390.90000000596
36,23,7,8,1,1,0,328,498,0,1,1695.29999999702
36,23,7,8,1,2,6,328,498,0,1,1411.79999999702
36,23,7,8,1,3,5,328,498,0,1,1195
36,23,7,8,1,4,4,328,498,0,1,1445.60000000894
36,23,7,8,1,5,3,328,498,0,1,1444.59999999404
36,23,7,8,1,6,2,328,498,0,1,2261.60000000894
36,23,7,8,1,7,1,328,498,0,1,1111.29999999702
36,23,7,8,1,8,0,328,498,0,1,1228.60000000894
36,24,7,7,0,1,7,62,240,0,1,1128.20000000298
36,24,7,7,0,2,6,62,240,0,1,1046
36,24,7,7,0,3,5,62,240,0,1,941.400000005961
36,24,7,7,0,4,4,62,240,0,1,1045.5
36,24,7,7,0,5,3,62,240,0,1,1012.5
36,24,7,7,0,6,2,62,240,0,1,1141.59999999404
36,24,7,7,0,7,1,62,240,0,1,1546
36,25,6,6,0,1,0,280,499,0,1,1395.89999999106
36,25,6,6,0,2,5,280,499,0,1,995.29999999702
36,25,6,6,0,3,4,280,499,0,1,1129.20000000298
36,25,6,6,0,4,3,280,499,0,1,908.5
36,25,6,6,0,5,2,280,499,0,1,1111.5
36,25,6,6,0,6,1,280,499,0,1,991.100000008941
36,26,5,5,0,1,0,358,568,0,1,1162.30000001192
36,26,5,5,0,2,4,358,568,0,1,946
36,26,5,5,0,3,3,358,568,0,1,1942.20000000298
36,26,5,5,0,4,2,358,568,0,1,1179.20000000298
36,26,5,5,0,5,1,358,568,0,1,945.79999999702
36,27,7,6,-1,1,0,15,190,0,1,1161.89999999106
36,27,7,6,-1,2,6,15,190,0,1,995.59999999404
36,27,7,6,-1,3,5,15,190,0,1,1242
36,27,7,6,-1,4,4,15,190,0,1,1162
