participant,block_i,expected_length,real_length,lengthDiff,trial_i_within_block,next_wave_in,targetMeanColor,distractorMeanColor,clicked_monster_id,correct,rt
7,1,7,7,0,1,7,283,482,0,1,1913.5
7,1,7,7,0,2,6,283,482,0,1,1279.10000000009
7,1,7,7,0,3,5,283,482,0,1,1067.79999999981
7,1,7,7,0,4,4,283,482,0,1,1096.19999999972
7,1,7,7,0,5,3,283,482,0,1,1046
7,1,7,7,0,6,2,283,482,0,1,1039.39999999991
7,1,7,7,0,7,1,283,482,0,1,1040
7,2,5,3,-2,1,0,186,366,0,1,1374.5
7,2,5,3,-2,2,4,186,366,0,1,1434.5
7,2,5,3,-2,3,3,186,366,0,1,1054.29999999981
7,3,6,7,1,1,2,68,218,0,1,1188.60000000009
7,3,6,7,1,2,5,68,218,0,1,1150.60000000009
7,3,6,7,1,3,4,68,218,0,1,1126.20000000019
7,3,6,7,1,4,3,68,218,0,1,1385.60000000009
7,3,6,7,1,5,2,68,218,0,1,981.699999999721
7,3,6,7,1,6,1,68,218,0,1,983.5
7,3,6,7,1,7,0,68,218,0,1,1113.29999999981
7,4,7,3,-4,1,7,169,354,0,1,1194.39999999991
7,4,7,3,-4,2,6,169,354,0,1,1046.60000000009
7,4,7,3,-4,3,5,169,354,0,1,937
7,5,6,9,3,1,4,259,480,0,1,1128.60000000009
7,5,6,9,3,2,5,259,480,0,1,994.599999999627
7,5,6,9,3,3,4,259,480,0,1,1051.29999999981
7,5,6,9,3,4,3,259,480,0,1,1070.60000000009
7,5,6,9,3,5,2,259,480,0,1,973.699999999721
7,5,6,9,3,6,1,259,480,0,1,984
7,5,6,9,3,7,0,259,480,0,1,1126.39999999991
7,5,6,9,3,8,0,259,480,0,1,1073.79999999981
7,5,6,9,3,9,0,259,480,0,1,946.899999999907
7,6,6,6,0,1,6,341,569,0,1,1782.39999999991
7,6,6,6,0,2,5,341,569,0,1,1002
7,6,6,6,0,3,4,341,569,0,1,992.600000000093
7,6,6,6,0,4,3,341,569,0,1,973.600000000093
7,6,6,6,0,5,2,341,569,0,1,971.600000000093
7,6,6,6,0,6,1,341,569,0,1,916.399999999907
7,7,5,5,0,1,0,127,335,0,1,1421.39999999991
7,7,5,5,0,2,4,127,335,0,1,1018.5
7,7,5,5,0,3,3,127,335,0,1,1011.29999999981
7,7,5,5,0,4,2,127,335,0,1,1076.69999999972
7,7,5,5,0,5,1,127,335,0,1,965.600000000093
7,8,5,1,-4,1,0,133,348,0,1,1017.20000000019
7,9,6,6,0,1,6,103,271,0,1,1065.39999999991
7,9,6,6,0,2,5,103,271,0,1,1017.19999999972
7,9,6,6,0,3,4,103,271,0,1,935.699999999721
7,9,6,6,0,4,3,103,271,0,1,958.600000000093
7,9,6,6,0,5,2,103,271,0,1,918.699999999721
7,9,6,6,0,6,1,103,271,0,1,898.199999999721
7,10,5,3,-2,1,0,19,176,0,1,982.699999999721
7,10,5,3,-2,2,4,19,176,0,1,918.099999999627
7,10,5,3,-2,3,3,19,176,0,1,935.599999999627
7,11,7,7,0,1,2,81,269,0,1,975.399999999907
7,11,7,7,0,2,6,81,269,0,1,965.599999999628
7,11,7,7,0,3,5,81,269,0,1,1327.29999999981
7,11,7,7,0,4,4,81,269,0,1,967.099999999627
7,11,7,7,0,5,3,81,269,0,1,935.799999999814
7,11,7,7,0,6,2,81,269,0,1,1155.89999999991
7,11,7,7,0,7,1,81,269,0,1,827
7,12,6,8,2,1,0,96,294,0,1,1076.89999999991
7,12,6,8,2,2,5,96,294,0,1,943.5
7,12,6,8,2,3,4,96,294,0,1,810.699999999721
7,12,6,8,2,4,3,96,294,0,1,921.799999999814
7,12,6,8,2,5,2,96,294,0,1,2000.29999999981
7,12,6,8,2,6,1,96,294,0,1,873.100000000093
7,12,6,8,2,7,0,96,294,0,1,1020.79999999981
7,12,6,8,2,8,0,96,294,0,1,905.199999999721
7,13,6,6,0,1,6,110,267,0,1,958.299999999814
7,13,6,6,0,2,5,110,267,0,1,905.899999999907
7,13,6,6,0,3,4,110,267,0,1,973.200000000186
7,13,6,6,0,4,3,110,267,0,1,1016.69999999972
7,13,6,6,0,5,2,110,267,0,1,911.899999999907
7,13,6,6,0,6,1,110,267,0,1,1217
7,14,5,5,0,1,0,301,462,0,1,2087.39999999991
7,14,5,5,0,2,4,301,462,0,1,965.899999999907
7,14,5,5,0,3,3,301,462,0,1,950.399999999907
7,14,5,5,0,4,2,301,462,0,1,931.799999999814
7,14,5,5,0,5,1,301,462,0,1,881.399999999907
7,15,7,4,-3,1,0,251,457,0,1,980
7,15,7,4,-3,2,6,251,457,0,1,915.100000000093
7,15,7,4,-3,3,5,251,457,0,1,967.699999999721
7,15,7,4,-3,4,4,251,457,0,1,1412.29999999981
7,16,7,7,0,1,3,34,257,0,1,1092.89999999991
7,16,7,7,0,2,6,34,257,0,1,938.799999999814
7,16,7,7,0,3,5,34,257,0,1,1434.89999999991
7,16,7,7,0,4,4,34,257,0,1,983.5
7,16,7,7,0,5,3,34,257,0,1,930.600000000093
7,16,7,7,0,6,2,34,257,0,1,903.899999999907
7,16,7,7,0,7,1,34,257,0,1,956.299999999814
7,17,7,7,0,1,0,229,423,0,1,1043.29999999981
7,17,7,7,0,2,6,229,423,0,1,958
7,17,7,7,0,3,5,229,423,0,1,966.899999999907
7,17,7,7,0,4,4,229,423,0,1,1078.29999999981
7,17,7,7,0,5,3,229,423,0,1,917
7,17,7,7,0,6,2,229,423,0,1,1208.5
7,17,7,7,0,7,1,229,423,0,1,1027.79999999981
7,18,7,11,4,1,0,93,245,0,1,1054.39999999991
7,18,7,11,4,2,6,93,245,0,1,915.899999999907
7,18,7,11,4,3,5,93,245,0,1,896.899999999907
7,18,7,11,4,4,4,93,245,0,1,880.399999999907
7,18,7,11,4,5,3,93,245,0,1,946.100000000093
7,18,7,11,4,6,2,93,245,0,1,900.5
7,18,7,11,4,7,1,93,245,0,1,962.799999999814
7,18,7,11,4,8,0,93,245,0,1,973.5
7,18,7,11,4,9,0,93,245,0,1,1080.89999999991
7,18,7,11,4,10,0,93,245,0,1,1168.70000000019
7,18,7,11,4,11,0,93,245,0,1,987.399999999907
7,19,5,7,2,1,5,19,205,0,1,1006.89999999991
7,19,5,7,2,2,4,19,205,0,1,982.699999999721
7,19,5,7,2,3,3,19,205,0,1,1294.89999999991
7,19,5,7,2,4,2,19,205,0,1,1245.39999999991
7,19,5,7,2,5,1,19,205,0,1,930.399999999907
7,19,5,7,2,6,0,19,205,0,1,1081.79999999981
7,19,5,7,2,7,0,19,205,0,1,1044.60000000009
7,20,6,6,0,1,6,43,239,0,1,1214.39999999991
7,20,6,6,0,2,5,43,239,0,1,970.399999999907
7,20,6,6,0,3,4,43,239,0,1,965
7,20,6,6,0,4,3,43,239,0,1,969.799999999814
7,20,6,6,0,5,2,43,239,0,1,993.899999999907
7,20,6,6,0,6,1,43,239,0,1,944.199999999721
7,21,5,5,0,1,0,354,553,0,1,897.799999999814
7,21,5,5,0,2,4,354,553,0,1,1063.69999999972
7,21,5,5,0,3,3,354,553,0,1,941.599999999628
7,21,5,5,0,4,2,354,553,0,1,1022.60000000009
7,21,5,5,0,5,1,354,553,0,1,968.699999999721
7,22,7,7,0,1,0,313,489,0,1,1548.19999999972
7,22,7,7,0,2,6,313,489,0,1,951.899999999907
7,22,7,7,0,3,5,313,489,0,1,1083.89999999991
7,22,7,7,0,4,4,313,489,0,1,1119.89999999991
7,22,7,7,0,5,3,313,489,0,1,912.699999999721
7,22,7,7,0,6,2,313,489,0,1,1039.29999999981
7,22,7,7,0,7,1,313,489,0,1,969.399999999907
7,23,6,6,0,1,0,119,314,0,1,1505.79999999981
7,23,6,6,0,2,5,119,314,0,1,930.899999999907
7,23,6,6,0,3,4,119,314,0,1,975.799999999814
7,23,6,6,0,4,3,119,314,0,1,992.5
7,23,6,6,0,5,2,119,314,0,1,1033.89999999991
7,23,6,6,0,6,1,119,314,0,1,980.199999999721
7,24,5,9,4,1,0,193,394,0,1,977.899999999907
7,24,5,9,4,2,4,193,394,0,1,1008
7,24,5,9,4,3,3,193,394,0,1,993.199999999721
7,24,5,9,4,4,2,193,394,0,1,934.799999999814
7,24,5,9,4,5,1,193,394,0,1,1269.39999999991
7,24,5,9,4,6,0,193,394,0,1,931
7,24,5,9,4,7,0,193,394,0,1,1015.39999999991
7,24,5,9,4,8,0,193,394,0,1,1302.89999999991
7,24,5,9,4,9,0,193,394,0,1,989
7,25,7,7,0,1,7,318,521,0,1,1252.60000000009
7,25,7,7,0,2,6,318,521,0,1,1427.59999999963
7,25,7,7,0,3,5,318,521,0,1,1010.89999999991
7,25,7,7,0,4,4,318,521,0,1,947.199999999721
7,25,7,7,0,5,3,318,521,0,1,945.399999999907
7,25,7,7,0,6,2,318,521,0,1,1181.89999999991
7,25,7,7,0,7,1,318,521,0,1,1030.89999999991
7,26,6,2,-4,1,0,328,510,0,1,937.600000000093
7,26,6,2,-4,2,5,328,510,0,1,927.199999999721
7,27,6,3,-3,1,4,289,470,0,1,955.799999999814
7,27,6,3,-3,2,5,289,470,0,1,1359
7,27,6,3,-3,3,4,289,470,0,1,1041.79999999981
7,28,7,7,0,1,3,144,298,0,1,1270.69999999972
7,28,7,7,0,2,6,144,298,0,1,1047.89999999991
7,28,7,7,0,3,5,144,298,0,1,1003.79999999981
7,28,7,7,0,4,4,144,298,0,1,1286.79999999981
7,28,7,7,0,5,3,144,298,0,1,1035.79999999981
7,28,7,7,0,6,2,144,298,0,1,1098.60000000009
7,28,7,7,0,7,1,144,298,0,1,974.799999999814
7,29,6,6,0,1,0,20,223,0,1,1126.5
7,29,6,6,0,2,5,20,223,0,1,1061.60000000009
7,29,6,6,0,3,4,20,223,0,1,1027.69999999972
7,29,6,6,0,4,3,20,223,0,1,962.699999999721
7,29,6,6,0,5,2,20,223,0,1,1309.89999999991
7,29,6,6,0,6,1,20,223,0,1,1007.79999999981
7,30,6,6,0,1,0,136,300,0,1,1090.79999999981
7,30,6,6,0,2,5,136,300,0,1,939.699999999721
7,30,6,6,0,3,4,136,300,0,1,1003.10000000009
7,30,6,6,0,4,3,136,300,0,1,1273.69999999972
7,30,6,6,0,5,2,136,300,0,1,970.699999999721
7,30,6,6,0,6,1,136,300,0,1,1012.39999999991
7,31,5,6,1,1,0,24,229,0,1,1019.79999999981
7,31,5,6,1,2,4,24,229,0,1,900.199999999721
7,31,5,6,1,3,3,24,229,0,1,1017.79999999981
7,31,5,6,1,4,2,24,229,0,1,1386.69999999972
7,31,5,6,1,5,1,24,229,0,1,925.899999999907
7,31,5,6,1,6,0,24,229,0,1,879.5
7,32,6,6,0,1,6,252,473,0,1,1094.89999999991
7,32,6,6,0,2,5,252,473,0,1,1061
7,32,6,6,0,3,4,252,473,0,1,1006.79999999981
7,32,6,6,0,4,3,252,473,0,1,883.5
7,32,6,6,0,5,2,252,473,0,1,986.200000000186
7,32,6,6,0,6,1,252,473,0,1,1623.5
7,33,6,9,3,1,0,102,299,0,1,1270.69999999972
7,33,6,9,3,2,5,102,299,0,1,906.799999999814
7,33,6,9,3,3,4,102,299,0,1,1035
7,33,6,9,3,4,3,102,299,0,1,984.699999999721
7,33,6,9,3,5,2,102,299,0,1,833.899999999907
7,33,6,9,3,6,1,102,299,0,1,968.899999999907
7,33,6,9,3,7,0,102,299,0,1,978
7,33,6,9,3,8,0,102,299,0,1,975.899999999907
7,33,6,9,3,9,0,102,299,0,1,1059.79999999981
7,34,7,7,0,1,7,120,292,0,1,909.799999999814
7,34,7,7,0,2,6,120,292,0,1,932.399999999907
7,34,7,7,0,3,5,120,292,0,1,1082.69999999972
7,34,7,7,0,4,4,120,292,0,1,994.899999999907
7,34,7,7,0,5,3,120,292,0,1,945
7,34,7,7,0,6,2,120,292,0,1,1065.89999999991
7,34,7,7,0,7,1,120,292,0,1,1129.5
7,35,6,7,1,1,0,276,472,0,1,1099.79999999981
7,35,6,7,1,2,5,276,472,0,1,959.899999999907
7,35,6,7,1,3,4,276,472,0,1,996.899999999907
7,35,6,7,1,4,3,276,472,0,1,970.899999999907
7,35,6,7,1,5,2,276,472,0,1,1015.29999999981
7,35,6,7,1,6,1,276,472,0,1,927.899999999907
7,35,6,7,1,7,0,276,472,0,1,948.5
7,36,5,5,0,1,5,246,469,0,1,1842
7,36,5,5,0,2,4,246,469,0,1,965.899999999907
7,36,5,5,0,3,3,246,469,0,1,1166.89999999991
7,36,5,5,0,4,2,246,469,0,1,981.799999999814
7,36,5,5,0,5,1,246,469,0,1,1160
7,37,7,9,2,1,0,291,459,0,1,971
7,37,7,9,2,2,6,291,459,0,1,1359.89999999991
7,37,7,9,2,3,5,291,459,0,1,879.699999999721
7,37,7,9,2,4,4,291,459,0,1,999.899999999907
7,37,7,9,2,5,3,291,459,0,1,985.699999999721
7,37,7,9,2,6,2,291,459,0,1,1033.29999999981
7,37,7,9,2,7,1,291,459,0,1,913.699999999721
7,37,7,9,2,8,0,291,459,0,1,1035.60000000009
7,37,7,9,2,9,0,291,459,0,1,976.899999999907
7,38,7,11,4,1,7,287,513,0,1,1660.79999999981
7,38,7,11,4,2,6,287,513,0,1,949.299999999814
7,38,7,11,4,3,5,287,513,0,1,987.899999999907
7,38,7,11,4,4,4,287,513,0,1,1032.89999999991
7,38,7,11,4,5,3,287,513,0,1,973.899999999907
7,38,7,11,4,6,2,287,513,0,1,1000.19999999972
7,38,7,11,4,7,1,287,513,0,1,1079.30000000028
7,38,7,11,4,8,0,287,513,0,1,954.599999999627
7,38,7,11,4,9,0,287,513,0,1,1025.5
7,38,7,11,4,10,0,287,513,0,1,996.600000000093
7,38,7,11,4,11,0,287,513,0,1,1017
7,39,7,9,2,1,7,159,370,0,1,1067.5
7,39,7,9,2,2,6,159,370,0,1,904.299999999814
7,39,7,9,2,3,5,159,370,0,1,1172.79999999981
7,39,7,9,2,4,4,159,370,0,1,1068
7,39,7,9,2,5,3,159,370,0,1,956.899999999907
7,39,7,9,2,6,2,159,370,0,1,995.5
7,39,7,9,2,7,1,159,370,0,1,934
7,39,7,9,2,8,0,159,370,0,1,880.799999999814
7,39,7,9,2,9,0,159,370,0,1,902.399999999907
7,40,7,4,-3,1,7,30,177,0,1,1010.89999999991
7,40,7,4,-3,2,6,30,177,0,1,1239.79999999981
7,40,7,4,-3,3,5,30,177,0,1,894
7,40,7,4,-3,4,4,30,177,0,1,972.899999999907
7,41,5,1,-4,1,3,229,456,0,1,1183.39999999991
7,42,7,8,1,1,2,130,326,0,1,1839.79999999981
7,42,7,8,1,2,6,130,326,0,1,1022.89999999991
7,42,7,8,1,3,5,130,326,0,1,1672.79999999981
7,42,7,8,1,4,4,130,326,0,1,1053.79999999981
7,42,7,8,1,5,3,130,326,0,1,1058.79999999981
7,42,7,8,1,6,2,130,326,0,1,1219.79999999981
7,42,7,8,1,7,1,130,326,0,1,910.299999999814
7,42,7,8,1,8,0,130,326,0,1,971.5
7,43,5,5,0,1,5,56,237,0,1,1058
7,43,5,5,0,2,4,56,237,0,1,1331.5
7,43,5,5,0,3,3,56,237,0,1,924.399999999907
7,43,5,5,0,4,2,56,237,0,1,966.799999999814
7,43,5,5,0,5,1,56,237,0,1,954.299999999814
7,44,5,5,0,1,0,197,393,0,1,1198.29999999981
7,44,5,5,0,2,4,197,393,0,1,987.899999999907
7,44,5,5,0,3,3,197,393,0,1,931.600000000093
7,44,5,5,0,4,2,197,393,0,1,913.600000000093
7,44,5,5,0,5,1,197,393,0,1,998.600000000093
7,45,7,6,-1,1,0,353,504,0,1,1055.5
7,45,7,6,-1,2,6,353,504,0,1,1252.89999999991
7,45,7,6,-1,3,5,353,504,0,1,940.5
7,45,7,6,-1,4,4,353,504,0,1,1225.79999999981
7,45,7,6,-1,5,3,353,504,0,1,1889.69999999972
7,45,7,6,-1,6,2,353,504,0,1,1144.10000000009
7,46,6,6,0,1,1,242,391,0,1,1045.69999999972
7,46,6,6,0,2,5,242,391,0,1,1021.39999999991
7,46,6,6,0,3,4,242,391,0,1,952.899999999907
7,46,6,6,0,4,3,242,391,0,1,1021.79999999981
7,46,6,6,0,5,2,242,391,0,1,949.399999999907
7,46,6,6,0,6,1,242,391,0,1,1603
7,47,7,7,0,1,0,234,435,0,1,1020.5
7,47,7,7,0,2,6,234,435,0,1,945.899999999907
7,47,7,7,0,3,5,234,435,0,1,989.799999999814
7,47,7,7,0,4,4,234,435,0,1,1022.29999999981
7,47,7,7,0,5,3,234,435,0,1,941
7,47,7,7,0,6,2,234,435,0,1,967.699999999721
7,47,7,7,0,7,1,234,435,0,1,1019.39999999991
7,48,5,6,1,1,0,145,363,0,1,1112.89999999991
7,48,5,6,1,2,4,145,363,0,1,1004.79999999981
7,48,5,6,1,3,3,145,363,0,1,1189.29999999981
7,48,5,6,1,4,2,145,363,0,1,983.899999999907
7,48,5,6,1,5,1,145,363,0,1,970.899999999907
7,48,5,6,1,6,0,145,363,0,1,1055.19999999972
7,49,5,4,-1,1,5,118,327,0,1,972.699999999721
7,49,5,4,-1,2,4,118,327,0,1,976.399999999907
7,49,5,4,-1,3,3,118,327,0,1,974.799999999814
7,49,5,4,-1,4,2,118,327,0,1,919.299999999814
7,50,6,5,-1,1,1,249,483,0,1,1052.69999999972
7,50,6,5,-1,2,5,249,483,0,1,943.899999999907
7,50,6,5,-1,3,4,249,483,0,1,955.100000000093
7,50,6,5,-1,4,3,249,483,0,1,1044.59999999963
7,50,6,5,-1,5,2,249,483,0,1,1214.79999999981
7,51,7,5,-2,1,1,17,163,0,1,1454.89999999991
7,51,7,5,-2,2,6,17,163,0,1,1002.79999999981
7,51,7,5,-2,3,5,17,163,0,1,978.5
7,51,7,5,-2,4,4,17,163,0,1,928.899999999907
7,51,7,5,-2,5,3,17,163,0,1,1020.89999999991
7,52,5,5,0,1,2,93,242,0,1,1081.79999999981
7,52,5,5,0,2,4,93,242,0,1,954.899999999907
7,52,5,5,0,3,3,93,242,0,1,933.5
7,52,5,5,0,4,2,93,242,0,1,1339.69999999972
7,52,5,5,0,5,1,93,242,0,1,1152
7,53,5,8,3,1,0,287,511,0,1,1374.89999999991
7,53,5,8,3,2,4,287,511,0,1,1110.89999999991
7,53,5,8,3,3,3,287,511,0,1,972.799999999814
7,53,5,8,3,4,2,287,511,0,1,1367.89999999991
7,53,5,8,3,5,1,287,511,0,1,928.799999999814
7,53,5,8,3,6,0,287,511,0,1,1067.79999999981
7,53,5,8,3,7,0,287,511,0,1,1517.60000000009
7,53,5,8,3,8,0,287,511,0,1,1010.69999999972
7,54,6,5,-1,1,6,202,366,0,1,1143.89999999991
7,54,6,5,-1,2,5,202,366,0,1,1035.29999999981
7,54,6,5,-1,3,4,202,366,0,1,1007.79999999981
7,54,6,5,-1,4,3,202,366,0,1,990.899999999907
7,54,6,5,-1,5,2,202,366,0,1,935.799999999814
7,55,7,5,-2,1,1,248,447,0,1,1120.69999999972
7,55,7,5,-2,2,6,248,447,0,1,1112.79999999981
7,55,7,5,-2,3,5,248,447,0,1,1015
7,55,7,5,-2,4,4,248,447,0,1,1036.19999999972
7,55,7,5,-2,5,3,248,447,0,1,1083
7,56,5,7,2,1,2,25,204,0,1,1109.69999999972
7,56,5,7,2,2,4,25,204,0,1,958
7,56,5,7,2,3,3,25,204,0,1,1223.69999999972
7,56,5,7,2,4,2,25,204,0,1,1116
7,56,5,7,2,5,1,25,204,0,1,967.100000000093
7,56,5,7,2,6,0,25,204,0,1,1040
7,56,5,7,2,7,0,25,204,0,1,1085.69999999972
7,57,5,5,0,1,5,134,329,0,1,1560.79999999981
7,57,5,5,0,2,4,134,329,0,1,1016.89999999991
7,57,5,5,0,3,3,134,329,0,1,1085.69999999972
7,57,5,5,0,4,2,134,329,0,1,1043.89999999991
7,57,5,5,0,5,1,134,329,0,1,1164.89999999991
7,58,6,6,0,1,0,348,559,0,1,955.600000000093
7,58,6,6,0,2,5,348,559,0,1,1046.70000000019
7,58,6,6,0,3,4,348,559,0,1,971.600000000093
7,58,6,6,0,4,3,348,559,0,1,1487
7,58,6,6,0,5,2,348,559,0,1,1059.5
7,58,6,6,0,6,1,348,559,0,1,1109.89999999991
7,59,7,8,1,1,0,297,523,0,1,1061.79999999981
7,59,7,8,1,2,6,297,523,0,1,1012.89999999991
7,59,7,8,1,3,5,297,523,0,1,1037.89999999991
7,59,7,8,1,4,4,297,523,0,1,1687.29999999981
7,59,7,8,1,5,3,297,523,0,1,900.799999999814
7,59,7,8,1,6,2,297,523,0,1,1046.79999999981
7,59,7,8,1,7,1,297,523,0,1,967.899999999907
7,59,7,8,1,8,0,297,523,0,1,1039.39999999991
7,60,7,7,0,1,7,50,222,0,1,1148.89999999991
7,60,7,7,0,2,6,50,222,0,1,1051.29999999981
7,60,7,7,0,3,5,50,222,0,1,1070.39999999991
7,60,7,7,0,4,4,50,222,0,1,962.899999999907
7,60,7,7,0,5,3,50,222,0,1,999.5
7,60,7,7,0,6,2,50,222,0,1,1743.79999999981
7,60,7,7,0,7,1,50,222,0,1,973.399999999907
7,61,6,10,4,1,0,286,506,0,1,1117.39999999991
7,61,6,10,4,2,5,286,506,0,1,972.5
7,61,6,10,4,3,4,286,506,0,1,1132.5
7,61,6,10,4,4,3,286,506,0,1,1121.39999999991
7,61,6,10,4,5,2,286,506,0,1,1052
7,61,6,10,4,6,1,286,506,0,1,1136.39999999991
7,61,6,10,4,7,0,286,506,0,1,1031.10000000009
7,61,6,10,4,8,0,286,506,0,1,934.899999999907
7,61,6,10,4,9,0,286,506,0,1,996.5
7,61,6,10,4,10,0,286,506,0,1,1106.89999999991
7,62,5,5,0,1,5,145,326,0,1,1007.79999999981
7,62,5,5,0,2,4,145,326,0,1,1070.10000000009
7,62,5,5,0,3,3,145,326,0,1,1033.19999999972
7,62,5,5,0,4,2,145,326,0,1,1060.89999999991
7,62,5,5,0,5,1,145,326,0,1,989.399999999907
7,63,6,6,0,1,0,154,315,0,1,1036.89999999991
7,63,6,6,0,2,5,154,315,0,1,1062.5
7,63,6,6,0,3,4,154,315,0,1,916.199999999721
7,63,6,6,0,4,3,154,315,0,1,945.899999999907
7,63,6,6,0,5,2,154,315,0,1,1244.29999999981
7,63,6,6,0,6,1,154,315,0,1,949.799999999814
7,64,5,5,0,1,0,110,264,0,1,1084.39999999991
7,64,5,5,0,2,4,110,264,0,1,942.799999999814
7,64,5,5,0,3,3,110,264,0,1,1003.29999999981
7,64,5,5,0,4,2,110,264,0,1,1039.89999999991
7,64,5,5,0,5,1,110,264,0,1,1343.60000000009
7,65,5,2,-3,1,0,44,257,0,1,1056.79999999981
7,65,5,2,-3,2,4,44,257,0,1,946.399999999907
7,66,7,7,0,1,3,59,257,0,1,991.799999999814
7,66,7,7,0,2,6,59,257,0,1,915.5
7,66,7,7,0,3,5,59,257,0,1,1128.89999999991
7,66,7,7,0,4,4,59,257,0,1,855.600000000093
7,66,7,7,0,5,3,59,257,0,1,1143.89999999991
7,66,7,7,0,6,2,59,257,0,1,1328.29999999981
7,66,7,7,0,7,1,59,257,0,1,966
7,67,6,4,-2,1,0,269,440,0,1,972.399999999907
7,67,6,4,-2,2,5,269,440,0,1,866.600000000093
7,67,6,4,-2,3,4,269,440,0,1,1015.89999999991
7,67,6,4,-2,4,3,269,440,0,1,1062
7,68,5,5,0,1,2,65,221,0,1,977.399999999907
7,68,5,5,0,2,4,65,221,0,1,946
7,68,5,5,0,3,3,65,221,0,1,1104.79999999981
7,68,5,5,0,4,2,65,221,0,1,989.899999999907
7,68,5,5,0,5,1,65,221,0,1,1506.79999999981
7,69,7,10,3,1,0,57,207,0,1,958.399999999907
7,69,7,10,3,2,6,57,207,0,1,1081.60000000009
7,69,7,10,3,3,5,57,207,0,1,908.699999999721
7,69,7,10,3,4,4,57,207,0,1,1021.29999999981
7,69,7,10,3,5,3,57,207,0,1,872.799999999814
7,69,7,10,3,6,2,57,207,0,1,1058.39999999991
7,69,7,10,3,7,1,57,207,0,1,995.899999999907
7,69,7,10,3,8,0,57,207,0,1,973.899999999907
7,69,7,10,3,9,0,57,207,0,1,985
7,69,7,10,3,10,0,57,207,0,1,968.799999999814
7,70,5,5,0,1,5,67,233,0,1,1069.10000000009
7,70,5,5,0,2,4,67,233,0,1,965.899999999907
7,70,5,5,0,3,3,67,233,0,1,958.799999999814
7,70,5,5,0,4,2,67,233,0,1,981.799999999814
7,70,5,5,0,5,1,67,233,0,1,1009.79999999981
7,71,7,7,0,1,0,122,288,0,1,1004.89999999991
7,71,7,7,0,2,6,122,288,0,1,988.799999999814
7,71,7,7,0,3,5,122,288,0,1,1069.60000000009
7,71,7,7,0,4,4,122,288,0,1,951.700000000186
7,71,7,7,0,5,3,122,288,0,1,988.799999999814
7,71,7,7,0,6,2,122,288,0,1,995.799999999814
7,71,7,7,0,7,1,122,288,0,1,979.899999999907
7,72,5,5,0,1,0,284,435,0,1,1086.60000000009
7,72,5,5,0,2,4,284,435,0,1,1042.79999999981
7,72,5,5,0,3,3,284,435,0,1,1469.89999999991
7,72,5,5,0,4,2,284,435,0,1,988.600000000093
7,72,5,5,0,5,1,284,435,0,1,986.699999999721
7,73,6,6,0,1,0,278,494,0,1,933.899999999907
7,73,6,6,0,2,5,278,494,0,1,1063.29999999981
7,73,6,6,0,3,4,278,494,0,1,981
7,73,6,6,0,4,3,278,494,0,1,966
7,73,6,6,0,5,2,278,494,0,1,912.899999999907
7,73,6,6,0,6,1,278,494,0,1,1179.89999999991
7,74,5,5,0,1,0,316,511,0,1,977.600000000093
7,74,5,5,0,2,4,316,511,0,1,1266.5
7,74,5,5,0,3,3,316,511,0,1,898
7,74,5,5,0,4,2,316,511,0,1,929.799999999814
7,74,5,5,0,5,1,316,511,0,1,930.699999999721
7,75,7,7,0,1,0,148,306,0,1,1230.39999999991
7,75,7,7,0,2,6,148,306,0,1,886.799999999814
7,75,7,7,0,3,5,148,306,0,1,1123.69999999972
7,75,7,7,0,4,4,148,306,0,1,953.799999999814
7,75,7,7,0,5,3,148,306,0,1,976.399999999907
7,75,7,7,0,6,2,148,306,0,1,829.699999999721
7,75,7,7,0,7,1,148,306,0,1,975.899999999907
7,76,5,2,-3,1,0,77,305,0,1,1281
7,76,5,2,-3,2,4,77,305,0,1,1150.89999999991
7,77,5,4,-1,1,3,49,270,0,1,976.5
7,77,5,4,-1,2,4,49,270,0,1,899.600000000093
7,77,5,4,-1,3,3,49,270,0,1,972
7,77,5,4,-1,4,2,49,270,0,1,857.699999999721
7,78,7,3,-4,1,1,199,410,0,1,1170.39999999991
7,78,7,3,-4,2,6,199,410,0,1,907.699999999721
7,78,7,3,-4,3,5,199,410,0,1,989.699999999721
7,79,6,6,0,1,4,312,533,0,1,1033.39999999991
7,79,6,6,0,2,5,312,533,0,1,1176.79999999981
7,79,6,6,0,3,4,312,533,0,1,941.399999999907
7,79,6,6,0,4,3,312,533,0,1,1080.10000000009
7,79,6,6,0,5,2,312,533,0,1,933.899999999907
7,79,6,6,0,6,1,312,533,0,1,992.399999999907
7,80,5,5,0,1,0,307,504,0,1,1549.89999999991
7,80,5,5,0,2,4,307,504,0,1,845.899999999907
7,80,5,5,0,3,3,307,504,0,1,981.5
7,80,5,5,0,4,2,307,504,0,1,1007.29999999981
7,80,5,5,0,5,1,307,504,0,1,989.899999999907
7,81,6,6,0,1,0,80,262,0,1,1194.69999999972
7,81,6,6,0,2,5,80,262,0,1,992.799999999814
7,81,6,6,0,3,4,80,262,0,1,886.899999999907
7,81,6,6,0,4,3,80,262,0,1,1216.39999999991
7,81,6,6,0,5,2,80,262,0,1,881
7,81,6,6,0,6,1,80,262,0,1,1026.69999999972
7,82,7,7,0,1,0,53,211,0,1,1024.79999999981
7,82,7,7,0,2,6,53,211,0,1,947.299999999814
7,82,7,7,0,3,5,53,211,0,1,954.100000000093
7,82,7,7,0,4,4,53,211,0,1,1218.60000000009
7,82,7,7,0,5,3,53,211,0,1,988.399999999907
7,82,7,7,0,6,2,53,211,0,1,864.899999999907
7,82,7,7,0,7,1,53,211,0,1,902
7,83,6,3,-3,1,0,26,248,0,1,879.299999999814
7,83,6,3,-3,2,5,26,248,0,1,932.799999999814
7,83,6,3,-3,3,4,26,248,0,1,1157.89999999991
7,84,6,2,-4,1,3,293,489,0,1,1332.89999999991
7,84,6,2,-4,2,5,293,489,0,1,1044.69999999972
7,85,6,4,-2,1,4,9,177,0,1,1143.60000000009
7,85,6,4,-2,2,5,9,177,0,1,1095.79999999981
7,85,6,4,-2,3,4,9,177,0,1,985.799999999814
7,85,6,4,-2,4,3,9,177,0,1,935.899999999907
7,86,5,9,4,1,2,134,336,0,1,1403.79999999981
7,86,5,9,4,2,4,134,336,0,1,1471.59999999963
7,86,5,9,4,3,3,134,336,0,1,934.600000000093
7,86,5,9,4,4,2,134,336,0,1,1823.20000000019
7,86,5,9,4,5,1,134,336,0,1,906.200000000186
7,86,5,9,4,6,0,134,336,0,1,1100.39999999991
7,86,5,9,4,7,0,134,336,0,1,1063.5
7,86,5,9,4,8,0,134,336,0,1,1037.10000000009
7,86,5,9,4,9,0,134,336,0,1,1529
7,87,6,10,4,1,6,15,166,0,1,983.399999999907
7,87,6,10,4,2,5,15,166,0,1,1014.79999999981
7,87,6,10,4,3,4,15,166,0,1,1038.5
7,87,6,10,4,4,3,15,166,0,1,947.399999999907
7,87,6,10,4,5,2,15,166,0,1,1111.79999999981
7,87,6,10,4,6,1,15,166,0,1,1094.89999999991
7,87,6,10,4,7,0,15,166,0,1,944.600000000093
7,87,6,10,4,8,0,15,166,0,1,1158.29999999981
7,87,6,10,4,9,0,15,166,0,1,955.100000000093
7,87,6,10,4,10,0,15,166,0,1,976.799999999814
7,88,5,5,0,1,5,41,261,0,1,1014.5
7,88,5,5,0,2,4,41,261,0,1,1041.29999999981
7,88,5,5,0,3,3,41,261,0,1,908.899999999907
7,88,5,5,0,4,2,41,261,0,1,916.600000000093
7,88,5,5,0,5,1,41,261,0,1,889.399999999907
7,89,7,7,0,1,0,232,439,0,1,980.799999999814
7,89,7,7,0,2,6,232,439,0,1,879.299999999814
7,89,7,7,0,3,5,232,439,0,1,915.899999999907
7,89,7,7,0,4,4,232,439,0,1,1135.29999999981
7,89,7,7,0,5,3,232,439,0,1,1286.79999999981
7,89,7,7,0,6,2,232,439,0,1,997.199999999721
7,89,7,7,0,7,1,232,439,0,1,1016.5
7,90,7,7,0,1,0,37,194,0,1,1296.20000000019
7,90,7,7,0,2,6,37,194,0,1,876.200000000186
7,90,7,7,0,3,5,37,194,0,1,1025.5
7,90,7,7,0,4,4,37,194,0,1,1112.89999999991
7,90,7,7,0,5,3,37,194,0,1,1045
7,90,7,7,0,6,2,37,194,0,1,1089.89999999991
7,90,7,7,0,7,1,37,194,0,1,1091.79999999981
7,91,7,6,-1,1,0,305,538,0,1,985.799999999814
7,91,7,6,-1,2,6,305,538,0,1,1011.19999999972
7,91,7,6,-1,3,5,305,538,0,1,1029.89999999991
7,91,7,6,-1,4,4,305,538,0,1,1056.79999999981
7,91,7,6,-1,5,3,305,538,0,1,1022.39999999991
7,91,7,6,-1,6,2,305,538,0,1,1038.39999999991
7,92,5,8,3,1,1,320,511,0,1,983.5
7,92,5,8,3,2,4,320,511,0,1,1051.39999999991
7,92,5,8,3,3,3,320,511,0,1,1039.89999999991
7,92,5,8,3,4,2,320,511,0,1,974.199999999721
7,92,5,8,3,5,1,320,511,0,1,961.699999999721
7,92,5,8,3,6,0,320,511,0,1,1026.60000000009
7,92,5,8,3,7,0,320,511,0,1,1163.89999999991
7,92,5,8,3,8,0,320,511,0,1,1531.60000000009
7,93,6,6,0,1,6,128,283,0,1,1275.69999999972
7,93,6,6,0,2,5,128,283,0,1,1004.89999999991
7,93,6,6,0,3,4,128,283,0,1,1083.69999999972
7,93,6,6,0,4,3,128,283,0,1,993.899999999907
7,93,6,6,0,5,2,128,283,0,1,1041.89999999991
7,93,6,6,0,6,1,128,283,0,1,1088.29999999981
7,94,7,10,3,1,0,278,495,0,1,1159.79999999981
7,94,7,10,3,2,6,278,495,0,1,1040.89999999991
7,94,7,10,3,3,5,278,495,0,1,928.5
7,94,7,10,3,4,4,278,495,0,1,1014.39999999991
7,94,7,10,3,5,3,278,495,0,1,1065.29999999981
7,94,7,10,3,6,2,278,495,0,1,1034.10000000009
7,94,7,10,3,7,1,278,495,0,1,939.699999999721
7,94,7,10,3,8,0,278,495,0,1,1045.89999999991
7,94,7,10,3,9,0,278,495,0,1,1025.79999999981
7,94,7,10,3,10,0,278,495,0,1,1077
7,95,6,8,2,1,6,293,443,0,1,956.899999999907
7,95,6,8,2,2,5,293,443,0,1,1034.39999999991
7,95,6,8,2,3,4,293,443,0,1,1028.60000000009
7,95,6,8,2,4,3,293,443,0,1,1044.89999999991
7,95,6,8,2,5,2,293,443,0,1,1072.89999999991
7,95,6,8,2,6,1,293,443,0,1,1018.89999999991
7,95,6,8,2,7,0,293,443,0,1,1070.60000000009
7,95,6,8,2,8,0,293,443,0,1,1124.10000000009
7,96,6,6,0,1,6,359,572,0,1,1041.89999999991
7,96,6,6,0,2,5,359,572,0,1,1389.80000000028
7,96,6,6,0,3,4,359,572,0,1,1031.60000000009
7,96,6,6,0,4,3,359,572,0,1,1042.20000000019
7,96,6,6,0,5,2,359,572,0,1,985.299999999814
7,96,6,6,0,6,1,359,572,0,1,982.299999999814
2,1,7,3,-4,1,7,315,497,0,1,1617.19999998808
2,1,7,3,-4,2,6,315,497,0,1,1253.19999998808
2,1,7,3,-4,3,5,315,497,0,1,1388.80000001192
2,2,6,5,-1,1,4,256,431,0,1,1320.89999997616
2,2,6,5,-1,2,5,256,431,0,1,1104.69999998808
2,2,6,5,-1,3,4,256,431,0,1,1293
2,2,6,5,-1,4,3,256,431,0,1,1161
2,2,6,5,-1,5,2,256,431,0,1,1240.79999995232
2,3,6,6,0,1,1,92,249,0,1,1205.5
2,3,6,6,0,2,5,92,249,0,1,1556.30000001192
2,3,6,6,0,3,4,92,249,0,1,1305.09999996424
2,3,6,6,0,4,3,92,249,0,1,1143.89999997616
2,3,6,6,0,5,2,92,249,0,1,1676.80000001192
2,3,6,6,0,6,1,92,249,0,1,1073.20000004768
2,4,5,8,3,1,0,278,462,0,1,1526.79999995232
2,4,5,8,3,2,4,278,462,0,1,1594
2,4,5,8,3,3,3,278,462,0,1,1106.5
2,4,5,8,3,4,2,278,462,0,1,1243.20000004768
2,4,5,8,3,5,1,278,462,0,1,1394
2,4,5,8,3,6,0,278,462,0,1,1422.90000003576
2,4,5,8,3,7,0,278,462,0,1,1472.10000002384
2,4,5,8,3,8,0,278,462,0,1,1189.5
2,5,7,10,3,1,7,270,429,0,1,1409.80000001192
2,5,7,10,3,2,6,270,429,0,1,1160.69999998808
2,5,7,10,3,3,5,270,429,0,1,1206.5
2,5,7,10,3,4,4,270,429,0,1,1476.69999998808
2,5,7,10,3,5,3,270,429,0,1,1409.80000001192
2,5,7,10,3,6,2,270,429,0,1,1194.5
2,5,7,10,3,7,1,270,429,0,1,1555.59999996424
2,5,7,10,3,8,0,270,429,0,1,1157.29999995232
2,5,7,10,3,9,0,270,429,0,1,1290.19999998808
2,5,7,10,3,10,0,270,429,0,1,1343.80000001192
2,6,7,11,4,1,7,11,225,0,1,1460.09999996424
2,6,7,11,4,2,6,11,225,0,1,1076.89999997616
2,6,7,11,4,3,5,11,225,0,1,1438.39999997616
2,6,7,11,4,4,4,11,225,0,1,1639.10000002384
2,6,7,11,4,5,3,11,225,0,1,1339.90000003576
2,6,7,11,4,6,2,11,225,0,1,1305.5
2,6,7,11,4,7,1,11,225,0,1,1189.5
2,6,7,11,4,8,0,11,225,0,1,1294.60000002384
2,6,7,11,4,9,0,11,225,0,1,1193
2,6,7,11,4,10,0,11,225,0,1,1339.89999997616
2,6,7,11,4,11,0,11,225,0,1,1173
2,7,7,7,0,1,7,228,410,0,1,1423
2,7,7,7,0,2,6,228,410,0,1,1159.80000001192
2,7,7,7,0,3,5,228,410,0,1,1227.40000003576
2,7,7,7,0,4,4,228,410,0,1,973.5
2,7,7,7,0,5,3,228,410,0,1,1687.80000001192
2,7,7,7,0,6,2,228,410,0,1,1173.69999998808
2,7,7,7,0,7,1,228,410,0,1,1156
2,8,7,7,0,1,0,320,498,0,1,1206.19999998808
2,8,7,7,0,2,6,320,498,0,1,1176.69999998808
2,8,7,7,0,3,5,320,498,0,1,1110.19999998808
2,8,7,7,0,4,4,320,498,0,1,1224
2,8,7,7,0,5,3,320,498,0,1,1154.10000002384
2,8,7,7,0,6,2,320,498,0,1,1155.69999998808
2,8,7,7,0,7,1,320,498,0,1,1409.89999997616
2,9,6,6,0,1,0,72,230,0,1,1327.19999998808
2,9,6,6,0,2,5,72,230,0,1,1175.90000003576
2,9,6,6,0,3,4,72,230,0,1,1223.5
2,9,6,6,0,4,3,72,230,0,1,1357
2,9,6,6,0,5,2,72,230,0,1,1256.30000001192
2,9,6,6,0,6,1,72,230,0,1,1293.5
2,10,5,3,-2,1,0,27,228,0,1,1076.69999998808
2,10,5,3,-2,2,4,27,228,0,1,1189.90000003576
2,10,5,3,-2,3,3,27,228,0,1,1190
2,11,6,9,3,1,2,300,509,0,1,1139.30000001192
2,11,6,9,3,2,5,300,509,0,1,1277
2,11,6,9,3,3,4,300,509,0,1,1127.10000002384
2,11,6,9,3,4,3,300,509,0,1,1274
2,11,6,9,3,5,2,300,509,0,1,1222.80000001192
2,11,6,9,3,6,1,300,509,0,1,956.100000023842
2,11,6,9,3,7,0,300,509,0,1,1026.40000003576
2,11,6,9,3,8,0,300,509,0,1,1089
2,11,6,9,3,9,0,300,509,0,1,1139.80000001192
2,12,6,8,2,1,6,314,477,0,1,1805.5
2,12,6,8,2,2,5,314,477,0,1,1406.90000003576
2,12,6,8,2,3,4,314,477,0,1,1143.30000001192
2,12,6,8,2,4,3,314,477,0,1,1210.19999998808
2,12,6,8,2,5,2,314,477,0,1,1006.89999997616
2,12,6,8,2,6,1,314,477,0,1,2704.5
2,12,6,8,2,7,0,314,477,0,1,1305.79999995232
2,12,6,8,2,8,0,314,477,0,1,1143
2,13,7,7,0,1,7,318,483,0,1,1160.39999997616
2,13,7,7,0,2,6,318,483,0,1,1207.39999997616
2,13,7,7,0,3,5,318,483,0,1,1372.80000001192
2,13,7,7,0,4,4,318,483,0,1,1539.60000002384
2,13,7,7,0,5,3,318,483,0,1,1176.60000002384
2,13,7,7,0,6,2,318,483,0,1,1309.79999995232
2,13,7,7,0,7,1,318,483,0,1,1110.60000002384
2,14,6,6,0,1,0,338,573,0,1,1356.79999995232
2,14,6,6,0,2,5,338,573,0,1,1206.5
2,14,6,6,0,3,4,338,573,0,1,1321.59999996424
2,14,6,6,0,4,3,338,573,0,1,1276.60000002384
2,14,6,6,0,5,2,338,573,0,1,1427.10000002384
2,14,6,6,0,6,1,338,573,0,1,1276.80000001192
2,15,5,5,0,1,0,127,285,0,1,1672.19999998808
2,15,5,5,0,2,4,127,285,0,1,1357.09999996424
2,15,5,5,0,3,3,127,285,0,1,1156
2,15,5,5,0,4,2,127,285,0,1,1089.5
2,15,5,5,0,5,1,127,285,0,1,1377.39999997616
2,16,6,6,0,1,0,293,491,0,1,1260.10000002384
2,16,6,6,0,2,5,293,491,0,1,1206.40000003576
2,16,6,6,0,3,4,293,491,0,1,1404.80000001192
2,16,6,6,0,4,3,293,491,0,1,1323
2,16,6,6,0,5,2,293,491,0,1,1327
2,16,6,6,0,6,1,293,491,0,1,1376.80000001192
2,17,5,5,0,1,0,360,512,0,1,1322.60000002384
2,17,5,5,0,2,4,360,512,0,1,1189.10000002384
2,17,5,5,0,3,3,360,512,0,1,1026
2,17,5,5,0,4,2,360,512,0,1,1460
2,17,5,5,0,5,1,360,512,0,1,1172.59999996424
2,18,6,2,-4,1,0,271,437,0,1,1260.40000003576
2,18,6,2,-4,2,5,271,437,0,1,1060.5
2,19,5,5,0,1,4,302,481,0,1,1038.89999997616
2,19,5,5,0,2,4,302,481,0,1,1173.90000003576
2,19,5,5,0,3,3,302,481,0,1,1123
2,19,5,5,0,4,2,302,481,0,1,1327.5
2,19,5,5,0,5,1,302,481,0,1,1176.30000001192
2,20,6,6,0,1,0,196,348,0,1,1306.5
2,20,6,6,0,2,5,196,348,0,1,1186.60000002384
2,20,6,6,0,3,4,196,348,0,1,1172.19999998808
2,20,6,6,0,4,3,196,348,0,1,1427.40000003576
2,20,6,6,0,5,2,196,348,0,1,1572.29999995232
2,20,6,6,0,6,1,196,348,0,1,1338
2,21,5,7,2,1,0,95,280,0,1,1177.09999996424
2,21,5,7,2,2,4,95,280,0,1,1193
2,21,5,7,2,3,3,95,280,0,1,1140.19999998808
2,21,5,7,2,4,2,95,280,0,1,1423.09999996424
2,21,5,7,2,5,1,95,280,0,1,1356.69999998808
2,21,5,7,2,6,0,95,280,0,1,1156.89999997616
2,21,5,7,2,7,0,95,280,0,1,1122.30000001192
2,22,7,7,0,1,7,307,498,0,1,1910.59999996424
2,22,7,7,0,2,6,307,498,0,1,1239.19999998808
2,22,7,7,0,3,5,307,498,0,1,1327
2,22,7,7,0,4,4,307,498,0,1,1293.5
2,22,7,7,0,5,3,307,498,0,1,993.300000011921
2,22,7,7,0,6,2,307,498,0,1,1056.29999995232
2,22,7,7,0,7,1,307,498,0,1,1090.29999995232
2,23,5,1,-4,1,0,273,444,0,1,1105.60000002384
2,24,6,6,0,1,6,156,333,0,1,1293.80000001192
2,24,6,6,0,2,5,156,333,0,1,2160.60000002384
2,24,6,6,0,3,4,156,333,0,1,1222.40000003576
2,24,6,6,0,4,3,156,333,0,1,1060.40000003576
2,24,6,6,0,5,2,156,333,0,1,1011
2,24,6,6,0,6,1,156,333,0,1,1507.70000004768
2,25,7,7,0,1,0,313,527,0,1,1338.89999997616
2,25,7,7,0,2,6,313,527,0,1,1572
2,25,7,7,0,3,5,313,527,0,1,1178
2,25,7,7,0,4,4,313,527,0,1,1227.60000002384
2,25,7,7,0,5,3,313,527,0,1,1193.39999997616
2,25,7,7,0,6,2,313,527,0,1,1072
2,25,7,7,0,7,1,313,527,0,1,1271.90000003576
2,26,6,5,-1,1,0,140,353,0,1,1239.30000001192
2,26,6,5,-1,2,5,140,353,0,1,1077
2,26,6,5,-1,3,4,140,353,0,1,1143.39999997616
2,26,6,5,-1,4,3,140,353,0,1,1223.69999998808
2,26,6,5,-1,5,2,140,353,0,1,1139.69999998808
2,27,6,3,-3,1,1,76,259,0,1,1105.79999995232
2,27,6,3,-3,2,5,76,259,0,1,1326.80000001192
2,27,6,3,-3,3,4,76,259,0,1,1110.89999997616
2,28,7,7,0,1,3,281,482,0,1,1206.69999998808
2,28,7,7,0,2,6,281,482,0,1,1223.69999998808
2,28,7,7,0,3,5,281,482,0,1,1105.39999997616
2,28,7,7,0,4,4,281,482,0,1,1226.69999998808
2,28,7,7,0,5,3,281,482,0,1,1201.89999997616
2,28,7,7,0,6,2,281,482,0,1,1732.29999995232
2,28,7,7,0,7,1,281,482,0,1,1305.80000001192
2,29,6,3,-3,1,0,6,158,0,1,1771
2,29,6,3,-3,2,5,6,158,0,1,1297.10000002384
2,29,6,3,-3,3,4,6,158,0,1,1551.60000002384
2,30,5,5,0,1,3,229,448,0,1,1206.20000004768
2,30,5,5,0,2,4,229,448,0,1,1123.19999998808
2,30,5,5,0,3,3,229,448,0,1,1577.5
2,30,5,5,0,4,2,229,448,0,1,1189.59999996424
2,30,5,5,0,5,1,229,448,0,1,1310.30000001192
2,31,7,7,0,1,0,73,224,0,1,1377.39999997616
2,31,7,7,0,2,6,73,224,0,1,1010.19999998808
2,31,7,7,0,3,5,73,224,0,1,1090.89999997616
2,31,7,7,0,4,4,73,224,0,1,1173.59999996424
2,31,7,7,0,5,3,73,224,0,1,1205.29999995232
2,31,7,7,0,6,2,73,224,0,1,1094.30000001192
2,31,7,7,0,7,1,73,224,0,1,960.700000047684
2,32,7,6,-1,1,0,353,581,0,1,1106.30000001192
2,32,7,6,-1,2,6,353,581,0,1,1104.30000001192
2,32,7,6,-1,3,5,353,581,0,1,1038.79999995232
2,32,7,6,-1,4,4,353,581,0,1,1110.90000003576
2,32,7,6,-1,5,3,353,581,0,1,1060.19999998808
2,32,7,6,-1,6,2,353,581,0,1,1290.30000001192
2,33,6,6,0,1,1,125,330,0,1,1170.89999997616
2,33,6,6,0,2,5,125,330,0,1,1227.30000001192
2,33,6,6,0,3,4,125,330,0,1,1210.30000001192
2,33,6,6,0,4,3,125,330,0,1,1060.30000001192
2,33,6,6,0,5,2,125,330,0,1,1656.5
2,33,6,6,0,6,1,125,330,0,1,1094
2,34,7,7,0,1,0,64,280,0,1,1056.5
2,34,7,7,0,2,6,64,280,0,1,1189
2,34,7,7,0,3,5,64,280,0,1,1039.30000001192
2,34,7,7,0,4,4,64,280,0,1,993.5
2,34,7,7,0,5,3,64,280,0,1,1055.20000004768
2,34,7,7,0,6,2,64,280,0,1,1105.19999998808
2,34,7,7,0,7,1,64,280,0,1,1106.80000001192
2,35,7,7,0,1,0,171,400,0,1,1410.30000001192
2,35,7,7,0,2,6,171,400,0,1,1210.19999998808
2,35,7,7,0,3,5,171,400,0,1,1156.20000004768
2,35,7,7,0,4,4,171,400,0,1,1256.40000003576
2,35,7,7,0,5,3,171,400,0,1,1122.89999997616
2,35,7,7,0,6,2,171,400,0,1,1226
2,35,7,7,0,7,1,171,400,0,1,1077.20000004768
2,36,7,3,-4,1,0,66,274,0,1,1357.09999996424
2,36,7,3,-4,2,6,66,274,0,1,1222.40000003576
2,36,7,3,-4,3,5,66,274,0,1,1372.40000003576
2,37,7,7,0,1,4,167,374,0,1,1388.79999995232
2,37,7,7,0,2,6,167,374,0,1,1744.10000002384
2,37,7,7,0,3,5,167,374,0,1,1222.89999997616
2,37,7,7,0,4,4,167,374,0,1,1477.20000004768
2,37,7,7,0,5,3,167,374,0,1,1010.40000003576
2,37,7,7,0,6,2,167,374,0,1,1390
2,37,7,7,0,7,1,167,374,0,1,1156.5
2,38,7,7,0,1,0,329,538,0,1,1773.79999995232
2,38,7,7,0,2,6,329,538,0,1,1657.5
2,38,7,7,0,3,5,329,538,0,1,1106.69999998808
2,38,7,7,0,4,4,329,538,0,1,1261.19999998808
2,38,7,7,0,5,3,329,538,0,1,1142.79999995232
2,38,7,7,0,6,2,329,538,0,1,1221.80000001192
2,38,7,7,0,7,1,329,538,0,1,1056.39999997616
2,39,5,5,0,1,0,245,431,0,1,1106.39999997616
2,39,5,5,0,2,4,245,431,0,1,1160.5
2,39,5,5,0,3,3,245,431,0,1,1377.09999996424
2,39,5,5,0,4,2,245,431,0,1,1407.69999998808
2,39,5,5,0,5,1,245,431,0,1,1044.40000003576
2,40,5,1,-4,1,0,66,293,0,1,1206.30000001192
2,41,5,5,0,1,5,307,474,0,1,1405.69999998808
2,41,5,5,0,2,4,307,474,0,1,1472.5
2,41,5,5,0,3,3,307,474,0,1,1356.39999997616
2,41,5,5,0,4,2,307,474,0,1,1209.39999997616
2,41,5,5,0,5,1,307,474,0,1,1094.30000001192
2,42,5,3,-2,1,0,3,166,0,1,1273.60000002384
2,42,5,3,-2,2,4,3,166,0,1,1106.89999997616
2,42,5,3,-2,3,3,3,166,0,1,1006.30000001192
2,43,5,5,0,1,2,60,242,0,1,1194.30000001192
2,43,5,5,0,2,4,60,242,0,1,1260.89999997616
2,43,5,5,0,3,3,60,242,0,1,1272.10000002384
2,43,5,5,0,4,2,60,242,0,1,1140.30000001192
2,43,5,5,0,5,1,60,242,0,1,1122.59999996424
2,44,6,4,-2,1,0,65,261,0,1,1126.60000002384
2,44,6,4,-2,2,5,65,261,0,1,1177.30000001192
2,44,6,4,-2,3,4,65,261,0,1,1190.20000004768
2,44,6,4,-2,4,3,65,261,0,1,1122.10000002384
2,45,7,7,0,1,2,329,532,0,1,2473.59999996424
2,45,7,7,0,2,6,329,532,0,1,1293.5
2,45,7,7,0,3,5,329,532,0,1,1260.69999998808
2,45,7,7,0,4,4,329,532,0,1,1089.39999997616
2,45,7,7,0,5,3,329,532,0,1,1340.30000001192
2,45,7,7,0,6,2,329,532,0,1,1122.80000001192
2,45,7,7,0,7,1,329,532,0,1,1277.69999998808
2,46,5,4,-1,1,0,186,362,0,1,1227.39999997616
2,46,5,4,-1,2,4,186,362,0,1,1189.29999995232
2,46,5,4,-1,3,3,186,362,0,1,1156
2,46,5,4,-1,4,2,186,362,0,1,1323.09999996424
2,47,7,10,3,1,1,234,417,0,1,1193.69999998808
2,47,7,10,3,2,6,234,417,0,1,1210.10000002384
2,47,7,10,3,3,5,234,417,0,1,1190.30000001192
2,47,7,10,3,4,4,234,417,0,1,1105.39999997616
2,47,7,10,3,5,3,234,417,0,1,1239.30000001192
2,47,7,10,3,6,2,234,417,0,1,1127.10000002384
2,47,7,10,3,7,1,234,417,0,1,1477.80000001192
2,47,7,10,3,8,0,234,417,0,1,1206.10000002384
2,47,7,10,3,9,0,234,417,0,1,1177.10000002384
2,47,7,10,3,10,0,234,417,0,1,1093.69999998808
2,48,6,6,0,1,6,197,399,0,1,1106.09999996424
2,48,6,6,0,2,5,197,399,0,1,1340
2,48,6,6,0,3,4,197,399,0,1,1188.29999995232
2,48,6,6,0,4,3,197,399,0,1,1276.89999997616
2,48,6,6,0,5,2,197,399,0,1,1278.19999998808
2,48,6,6,0,6,1,197,399,0,1,1021.89999997616
2,49,7,4,-3,1,0,63,275,0,1,1420.69999998808
2,49,7,4,-3,2,6,63,275,0,1,1439.40000003576
2,49,7,4,-3,3,5,63,275,0,1,1289.69999998808
2,49,7,4,-3,4,4,63,275,0,1,1105.79999995232
2,50,7,8,1,1,3,159,328,0,1,1177.69999998808
2,50,7,8,1,2,6,159,328,0,1,1010.5
2,50,7,8,1,3,5,159,328,0,1,1105.90000003576
2,50,7,8,1,4,4,159,328,0,1,1138.90000003576
2,50,7,8,1,5,3,159,328,0,1,1039.89999997616
2,50,7,8,1,6,2,159,328,0,1,1160.39999997616
2,50,7,8,1,7,1,159,328,0,1,1227
2,50,7,8,1,8,0,159,328,0,1,1090.5
2,51,5,9,4,1,5,17,171,0,1,1389.60000002384
2,51,5,9,4,2,4,17,171,0,1,1189.30000001192
2,51,5,9,4,3,3,17,171,0,1,1093.69999998808
2,51,5,9,4,4,2,17,171,0,1,1493.80000001192
2,51,5,9,4,5,1,17,171,0,1,1060.30000001192
2,51,5,9,4,6,0,17,171,0,1,1107.30000001192
2,51,5,9,4,7,0,17,171,0,1,1338
2,51,5,9,4,8,0,17,171,0,1,1073.59999996424
2,51,5,9,4,9,0,17,171,0,1,1143.90000003576
2,52,7,7,0,1,7,156,305,0,1,1393.10000002384
2,52,7,7,0,2,6,156,305,0,1,1672.5
2,52,7,7,0,3,5,156,305,0,1,1611
2,52,7,7,0,4,4,156,305,0,1,1055.79999995232
2,52,7,7,0,5,3,156,305,0,1,1144.5
2,52,7,7,0,6,2,156,305,0,1,1177.30000001192
2,52,7,7,0,7,1,156,305,0,1,1223.30000001192
2,53,6,6,0,1,0,127,353,0,1,1190.69999998808
2,53,6,6,0,2,5,127,353,0,1,1339.60000002384
2,53,6,6,0,3,4,127,353,0,1,1260.80000001192
2,53,6,6,0,4,3,127,353,0,1,976.5
2,53,6,6,0,5,2,127,353,0,1,1123.19999998808
2,53,6,6,0,6,1,127,353,0,1,1173.09999996424
2,54,7,8,1,1,0,290,480,0,1,1305.79999995232
2,54,7,8,1,2,6,290,480,0,1,1059.5
2,54,7,8,1,3,5,290,480,0,1,1043.69999998808
2,54,7,8,1,4,4,290,480,0,1,1589.39999997616
2,54,7,8,1,5,3,290,480,0,1,1188.69999998808
2,54,7,8,1,6,2,290,480,0,1,1140.30000001192
2,54,7,8,1,7,1,290,480,0,1,1426.90000003576
2,54,7,8,1,8,0,290,480,0,1,1111.10000002384
2,55,6,6,0,1,6,18,177,0,1,1174.10000002384
2,55,6,6,0,2,5,18,177,0,1,1155.89999997616
2,55,6,6,0,3,4,18,177,0,1,1089.5
2,55,6,6,0,4,3,18,177,0,1,1161.10000002384
2,55,6,6,0,5,2,18,177,0,1,1077.30000001192
2,55,6,6,0,6,1,18,177,0,1,990.099999964237
2,56,5,5,0,1,0,208,398,0,1,1240.39999997616
2,56,5,5,0,2,4,208,398,0,1,1088.90000003576
2,56,5,5,0,3,3,208,398,0,1,1711.20000004768
2,56,5,5,0,4,2,208,398,0,1,1138.70000004768
2,56,5,5,0,5,1,208,398,0,1,1109.69999998808
2,57,5,6,1,1,0,201,423,0,1,1143.39999997616
2,57,5,6,1,2,4,201,423,0,1,1107.19999998808
2,57,5,6,1,3,3,201,423,0,1,1057.5
2,57,5,6,1,4,2,201,423,0,1,1272.30000001192
2,57,5,6,1,5,1,201,423,0,1,1261.10000002384
2,57,5,6,1,6,0,201,423,0,1,1210.19999998808
2,58,7,7,0,1,7,196,408,0,1,1240.09999996424
2,58,7,7,0,2,6,196,408,0,1,1123.39999997616
2,58,7,7,0,3,5,196,408,0,1,1056.09999996424
2,58,7,7,0,4,4,196,408,0,1,1276.5
2,58,7,7,0,5,3,196,408,0,1,1293.69999998808
2,58,7,7,0,6,2,196,408,0,1,1120.69999998808
2,58,7,7,0,7,1,196,408,0,1,1473.19999998808
2,59,5,2,-3,1,0,22,238,0,1,1389
2,59,5,2,-3,2,4,22,238,0,1,1293.59999996424
2,60,5,5,0,1,3,63,246,0,1,1226.79999995232
2,60,5,5,0,2,4,63,246,0,1,1427.29999995232
2,60,5,5,0,3,3,63,246,0,1,1139.19999998808
2,60,5,5,0,4,2,63,246,0,1,1389.80000001192
2,60,5,5,0,5,1,63,246,0,1,1238.89999997616
2,61,6,6,0,1,0,25,187,0,1,1110.5
2,61,6,6,0,2,5,25,187,0,1,1193.70000004768
2,61,6,6,0,3,4,25,187,0,1,1405.59999996424
2,61,6,6,0,4,3,25,187,0,1,923
2,61,6,6,0,5,2,25,187,0,1,1356.19999998808
2,61,6,6,0,6,1,25,187,0,1,1243.80000001192
2,62,5,5,0,1,0,241,448,0,1,1193
2,62,5,5,0,2,4,241,448,0,1,1128.10000002384
2,62,5,5,0,3,3,241,448,0,1,990.099999964237
2,62,5,5,0,4,2,241,448,0,1,1040
2,62,5,5,0,5,1,241,448,0,1,1156.40000003576
2,63,7,6,-1,1,0,175,380,0,1,1077.09999996424
2,63,7,6,-1,2,6,175,380,0,1,993.599999964237
2,63,7,6,-1,3,5,175,380,0,1,1195.60000002384
2,63,7,6,-1,4,4,175,380,0,1,1581.69999998808
2,63,7,6,-1,5,3,175,380,0,1,1173.5
2,63,7,6,-1,6,2,175,380,0,1,1060.60000002384
2,64,6,9,3,1,1,91,286,0,1,1176.5
2,64,6,9,3,2,5,91,286,0,1,1122.70000004768
2,64,6,9,3,3,4,91,286,0,1,1190.20000004768
2,64,6,9,3,4,3,91,286,0,1,1522.40000003576
2,64,6,9,3,5,2,91,286,0,1,1290
2,64,6,9,3,6,1,91,286,0,1,1361.09999996424
2,64,6,9,3,7,0,91,286,0,1,1426.59999996424
2,64,6,9,3,8,0,91,286,0,1,1055.30000001192
2,64,6,9,3,9,0,91,286,0,1,1109.40000003576
2,65,5,5,0,1,5,227,414,0,1,1403.19999998808
2,65,5,5,0,2,4,227,414,0,1,1139.39999997616
2,65,5,5,0,3,3,227,414,0,1,1110.10000002384
2,65,5,5,0,4,2,227,414,0,1,1077.5
2,65,5,5,0,5,1,227,414,0,1,1173.10000002384
2,66,6,4,-2,1,0,183,371,0,1,1122.09999996424
2,66,6,4,-2,2,5,183,371,0,1,1006.39999997616
2,66,6,4,-2,3,4,183,371,0,1,1094.10000002384
2,66,6,4,-2,4,3,183,371,0,1,1510.20000004768
2,67,5,5,0,1,2,210,369,0,1,989.600000023842
2,67,5,5,0,2,4,210,369,0,1,1126.80000001192
2,67,5,5,0,3,3,210,369,0,1,1043.39999997616
2,67,5,5,0,4,2,210,369,0,1,1074.39999997616
2,67,5,5,0,5,1,210,369,0,1,1407.10000002384
2,68,6,6,0,1,0,339,562,0,1,1624.30000001192
2,68,6,6,0,2,5,339,562,0,1,1172.60000002384
2,68,6,6,0,3,4,339,562,0,1,1156.60000002384
2,68,6,6,0,4,3,339,562,0,1,1377.19999998808
2,68,6,6,0,5,2,339,562,0,1,1189.5
2,68,6,6,0,6,1,339,562,0,1,1161.10000002384
2,69,7,5,-2,1,0,247,399,0,1,1210.30000001192
2,69,7,5,-2,2,6,247,399,0,1,1339.5
2,69,7,5,-2,3,5,247,399,0,1,1274.30000001192
2,69,7,5,-2,4,4,247,399,0,1,1155.5
2,69,7,5,-2,5,3,247,399,0,1,994.399999976158
2,70,6,10,4,1,2,31,229,0,1,1311.30000001192
2,70,6,10,4,2,5,31,229,0,1,1239.5
2,70,6,10,4,3,4,31,229,0,1,1056.19999998808
2,70,6,10,4,4,3,31,229,0,1,1173
2,70,6,10,4,5,2,31,229,0,1,1104.60000002384
2,70,6,10,4,6,1,31,229,0,1,1189.39999997616
2,70,6,10,4,7,0,31,229,0,1,1377.19999998808
2,70,6,10,4,8,0,31,229,0,1,1227.5
2,70,6,10,4,9,0,31,229,0,1,992.400000035763
2,70,6,10,4,10,0,31,229,0,1,1073.19999998808
2,71,7,9,2,1,7,60,252,0,1,1188.59999996424
2,71,7,9,2,2,6,60,252,0,1,1105.69999998808
2,71,7,9,2,3,5,60,252,0,1,1194.59999996424
2,71,7,9,2,4,4,60,252,0,1,1277
2,71,7,9,2,5,3,60,252,0,1,1339.69999998808
2,71,7,9,2,6,2,60,252,0,1,1122.60000002384
2,71,7,9,2,7,1,60,252,0,1,1438.90000003576
2,71,7,9,2,8,0,60,252,0,1,1110.30000001192
2,71,7,9,2,9,0,60,252,0,1,1061.19999998808
2,72,6,2,-4,1,6,154,328,0,1,1090.10000002384
2,72,6,2,-4,2,5,154,328,0,1,1297.59999996424
2,73,7,5,-2,1,4,103,264,0,1,1864.39999997616
2,73,7,5,-2,2,6,103,264,0,1,1226
2,73,7,5,-2,3,5,103,264,0,1,1210.80000001192
2,73,7,5,-2,4,4,103,264,0,1,1827
2,73,7,5,-2,5,3,103,264,0,1,1073.10000002384
2,74,6,6,0,1,2,227,401,0,1,1277.60000002384
2,74,6,6,0,2,5,227,401,0,1,1160.19999998808
2,74,6,6,0,3,4,227,401,0,1,1339.80000001192
2,74,6,6,0,4,3,227,401,0,1,1223
2,74,6,6,0,5,2,227,401,0,1,1156
2,74,6,6,0,6,1,227,401,0,1,1194
2,75,6,8,2,1,0,61,239,0,1,1243.5
2,75,6,8,2,2,5,61,239,0,1,1006.69999998808
2,75,6,8,2,3,4,61,239,0,1,1072.10000002384
2,75,6,8,2,4,3,61,239,0,1,1290.19999998808
2,75,6,8,2,5,2,61,239,0,1,1009.39999997616
2,75,6,8,2,6,1,61,239,0,1,943.5
2,75,6,8,2,7,0,61,239,0,1,1005.20000004768
2,75,6,8,2,8,0,61,239,0,1,1323.79999995232
2,76,7,7,0,1,7,227,455,0,1,1238.79999995232
2,76,7,7,0,2,6,227,455,0,1,1043.89999997616
2,76,7,7,0,3,5,227,455,0,1,1411.10000002384
2,76,7,7,0,4,4,227,455,0,1,1061.30000001192
2,76,7,7,0,5,3,227,455,0,1,1355.09999996424
2,76,7,7,0,6,2,227,455,0,1,1372
2,76,7,7,0,7,1,227,455,0,1,1022.30000001192
2,77,5,5,0,1,0,195,426,0,1,1426.39999997616
2,77,5,5,0,2,4,195,426,0,1,1222.5
2,77,5,5,0,3,3,195,426,0,1,1109.90000003576
2,77,5,5,0,4,2,195,426,0,1,1026.70000004768
2,77,5,5,0,5,1,195,426,0,1,1122.69999998808
2,78,6,7,1,1,0,106,312,0,1,1139.10000002384
2,78,6,7,1,2,5,106,312,0,1,1072.69999998808
2,78,6,7,1,3,4,106,312,0,1,1060
2,78,6,7,1,4,3,106,312,0,1,1027
2,78,6,7,1,5,2,106,312,0,1,1073.10000002384
2,78,6,7,1,6,1,106,312,0,1,1123.10000002384
2,78,6,7,1,7,0,106,312,0,1,1056.10000002384
2,79,5,5,0,1,5,292,492,0,1,1359.79999995232
2,79,5,5,0,2,4,292,492,0,1,1227.40000003576
2,79,5,5,0,3,3,292,492,0,1,1180.09999996424
2,79,5,5,0,4,2,292,492,0,1,1457.80000001192
2,79,5,5,0,5,1,292,492,0,1,1094
2,80,5,2,-3,1,0,2,220,0,1,1388.80000001192
2,80,5,2,-3,2,4,2,220,0,1,1272.30000001192
2,81,5,9,4,1,3,99,333,0,1,1729.69999998808
2,81,5,9,4,2,4,99,333,0,1,1193.30000001192
2,81,5,9,4,3,3,99,333,0,1,1055.80000001192
2,81,5,9,4,4,2,99,333,0,1,1023.09999996424
2,81,5,9,4,5,1,99,333,0,1,1222.29999995232
2,81,5,9,4,6,0,99,333,0,1,1510.5
2,81,5,9,4,7,0,99,333,0,1,1171.89999997616
2,81,5,9,4,8,0,99,333,0,1,1326.69999998808
2,81,5,9,4,9,0,99,333,0,1,1143.40000003576
2,82,5,4,-1,1,5,46,272,0,1,1460.60000002384
2,82,5,4,-1,2,4,46,272,0,1,1088.39999997616
2,82,5,4,-1,3,3,46,272,0,1,1293.89999997616
2,82,5,4,-1,4,2,46,272,0,1,1314.89999997616
2,83,5,8,3,1,1,13,168,0,1,1789.69999998808
2,83,5,8,3,2,4,13,168,0,1,1159.69999998808
2,83,5,8,3,3,3,13,168,0,1,1255.89999997616
2,83,5,8,3,4,2,13,168,0,1,1005.5
2,83,5,8,3,5,1,13,168,0,1,1156.39999997616
2,83,5,8,3,6,0,13,168,0,1,1176.40000003576
2,83,5,8,3,7,0,13,168,0,1,1943.60000002384
2,83,5,8,3,8,0,13,168,0,1,1172
2,84,5,5,0,1,5,341,541,0,1,1177
2,84,5,5,0,2,4,341,541,0,1,1060.10000002384
2,84,5,5,0,3,3,341,541,0,1,1223
2,84,5,5,0,4,2,341,541,0,1,1323.30000001192
2,84,5,5,0,5,1,341,541,0,1,1439.39999997616
2,85,7,4,-3,1,0,253,436,0,1,1277.30000001192
2,85,7,4,-3,2,6,253,436,0,1,1194
2,85,7,4,-3,3,5,253,436,0,1,1060.30000001192
2,85,7,4,-3,4,4,253,436,0,1,1339.39999997616
2,86,6,10,4,1,3,243,427,0,1,1206.10000002384
2,86,6,10,4,2,5,243,427,0,1,1122
2,86,6,10,4,3,4,243,427,0,1,1076.59999996424
2,86,6,10,4,4,3,243,427,0,1,1361.19999998808
2,86,6,10,4,5,2,243,427,0,1,1192.39999997616
2,86,6,10,4,6,1,243,427,0,1,1155.19999998808
2,86,6,10,4,7,0,243,427,0,1,1206.40000003576
2,86,6,10,4,8,0,243,427,0,1,1253.80000001192
2,86,6,10,4,9,0,243,427,0,1,1460.10000002384
2,86,6,10,4,10,0,243,427,0,1,1144.20000004768
2,87,5,5,0,1,5,281,476,0,1,1126.5
2,87,5,5,0,2,4,281,476,0,1,1206.80000001192
2,87,5,5,0,3,3,281,476,0,1,1155.59999996424
2,87,5,5,0,4,2,281,476,0,1,1255.69999998808
2,87,5,5,0,5,1,281,476,0,1,1126.10000002384
2,88,6,6,0,1,0,17,214,0,1,1426.80000001192
2,88,6,6,0,2,5,17,214,0,1,1027.19999998808
2,88,6,6,0,3,4,17,214,0,1,1457.20000004768
2,88,6,6,0,4,3,17,214,0,1,1243.80000001192
2,88,6,6,0,5,2,17,214,0,1,1392.89999997616
2,88,6,6,0,6,1,17,214,0,1,1191
2,89,5,7,2,1,0,289,480,0,1,1189.5
2,89,5,7,2,2,4,289,480,0,1,1171.30000001192
2,89,5,7,2,3,3,289,480,0,1,1243.29999995232
2,89,5,7,2,4,2,289,480,0,1,1110.40000003576
2,89,5,7,2,5,1,289,480,0,1,1094.60000002384
2,89,5,7,2,6,0,289,480,0,1,1156.90000003576
2,89,5,7,2,7,0,289,480,0,1,1172.30000001192
2,90,6,7,1,1,6,189,339,0,1,2038.39999997616
2,90,6,7,1,2,5,189,339,0,1,1188.70000004768
2,90,6,7,1,3,4,189,339,0,1,959.5
2,90,6,7,1,4,3,189,339,0,1,1143.80000001192
2,90,6,7,1,5,2,189,339,0,1,1039.5
2,90,6,7,1,6,1,189,339,0,1,1072.5
2,90,6,7,1,7,0,189,339,0,1,1288.89999997616
2,91,7,7,0,1,7,34,253,0,1,1044.10000002384
2,91,7,7,0,2,6,34,253,0,1,1076.80000001192
2,91,7,7,0,3,5,34,253,0,1,1106.20000004768
2,91,7,7,0,4,4,34,253,0,1,1104.20000004768
2,91,7,7,0,5,3,34,253,0,1,1289.30000001192
2,91,7,7,0,6,2,34,253,0,1,1143.5
2,91,7,7,0,7,1,34,253,0,1,1243.60000002384
2,92,7,9,2,1,0,90,276,0,1,1227.59999996424
2,92,7,9,2,2,6,90,276,0,1,1507.09999996424
2,92,7,9,2,3,5,90,276,0,1,1373.09999996424
2,92,7,9,2,4,4,90,276,0,1,1173.10000002384
2,92,7,9,2,5,3,90,276,0,1,1172.80000001192
2,92,7,9,2,6,2,90,276,0,1,1237.40000003576
2,92,7,9,2,7,1,90,276,0,1,1144
2,92,7,9,2,8,0,90,276,0,1,1211.69999998808
2,92,7,9,2,9,0,90,276,0,1,1109.89999997616
2,93,6,6,0,1,6,256,451,0,1,1440.39999997616
2,93,6,6,0,2,5,256,451,0,1,1255.10000002384
2,93,6,6,0,3,4,256,451,0,1,1239.5
2,93,6,6,0,4,3,256,451,0,1,1144.30000001192
2,93,6,6,0,5,2,256,451,0,1,1061.09999996424
2,93,6,6,0,6,1,256,451,0,1,1122.90000003576
2,94,6,6,0,1,0,14,194,0,1,1022.80000001192
2,94,6,6,0,2,5,14,194,0,1,1221.39999997616
2,94,6,6,0,3,4,14,194,0,1,1160.89999997616
2,94,6,6,0,4,3,14,194,0,1,1109.60000002384
2,94,6,6,0,5,2,14,194,0,1,1055.30000001192
2,94,6,6,0,6,1,14,194,0,1,1139.20000004768
2,95,5,6,1,1,0,104,338,0,1,1239.69999998808
2,95,5,6,1,2,4,104,338,0,1,1143.89999997616
2,95,5,6,1,3,3,104,338,0,1,1459.69999998808
2,95,5,6,1,4,2,104,338,0,1,1122
2,95,5,6,1,5,1,104,338,0,1,1176.39999997616
2,95,5,6,1,6,0,104,338,0,1,1260.89999997616
2,96,7,11,4,1,7,354,568,0,1,1494.40000003576
2,96,7,11,4,2,6,354,568,0,1,957.300000011921
2,96,7,11,4,3,5,354,568,0,1,1207
2,96,7,11,4,4,4,354,568,0,1,1155.19999998808
2,96,7,11,4,5,3,354,568,0,1,1077
2,96,7,11,4,6,2,354,568,0,1,1177.10000002384
2,96,7,11,4,7,1,354,568,0,1,1039.5
2,96,7,11,4,8,0,354,568,0,1,1138.59999996424
2,96,7,11,4,9,0,354,568,0,1,1156.29999995232
2,96,7,11,4,10,0,354,568,0,1,1110.70000004768
2,96,7,11,4,11,0,354,568,0,1,1026.59999996424
37,1,6,6,0,1,6,269,488,0,1,1576.69999999926
37,1,6,6,0,2,5,269,488,0,1,1209.80000000075
37,1,6,6,0,3,4,269,488,0,1,1107.39999999851
37,1,6,6,0,4,3,269,488,0,1,1016.59999999776
37,1,6,6,0,5,2,269,488,0,1,909.800000000745
37,1,6,6,0,6,1,269,488,0,1,1067.5
37,2,6,6,0,1,0,274,429,0,1,1756.70000000298
37,2,6,6,0,2,5,274,429,0,1,1081.89999999851
37,2,6,6,0,3,4,274,429,0,1,1178.5
37,2,6,6,0,4,3,274,429,0,1,1018.80000000075
37,2,6,6,0,5,2,274,429,0,1,1314
37,2,6,6,0,6,1,274,429,0,1,1204.10000000149
37,3,7,7,0,1,0,23,237,2,0,2205.60000000149
37,,,,,,,,,,,
37,3,7,7,0,2,6,23,237,0,1,1228.30000000075
37,3,7,7,0,3,5,23,237,0,1,1096.69999999926
37,3,7,7,0,4,4,23,237,0,1,1018.39999999851
37,3,7,7,0,5,3,23,237,0,1,1067.10000000149
37,3,7,7,0,6,2,23,237,0,1,1008.39999999851
37,3,7,7,0,7,1,23,237,0,1,1659.90000000224
37,4,6,3,-3,1,0,206,376,0,1,1508.89999999851
37,4,6,3,-3,2,5,206,376,0,1,2351
37,4,6,3,-3,3,4,206,376,0,1,1091.10000000149
37,5,6,10,4,1,3,246,472,0,1,1194.79999999702
37,5,6,10,4,2,5,246,472,0,1,1217.30000000075
37,5,6,10,4,3,4,246,472,0,1,1128.80000000075
37,5,6,10,4,4,3,246,472,0,1,1275.19999999926
37,5,6,10,4,5,2,246,472,0,1,1060.60000000149
37,5,6,10,4,6,1,246,472,0,1,980.79999999702
37,5,6,10,4,7,0,246,472,0,1,1056.10000000149
37,5,6,10,4,8,0,246,472,0,1,1135.60000000149
37,5,6,10,4,9,0,246,472,0,1,1131.60000000149
37,5,6,10,4,10,0,246,472,0,1,1303.10000000149
37,6,7,6,-1,1,7,222,419,0,1,2479.90000000224
37,6,7,6,-1,2,6,222,419,0,1,1639.60000000149
37,6,7,6,-1,3,5,222,419,0,1,1700.89999999851
37,6,7,6,-1,4,4,222,419,0,1,2209.69999999926
37,6,7,6,-1,5,3,222,419,0,1,1173.90000000224
37,6,7,6,-1,6,2,222,419,0,1,1573.89999999851
37,7,7,7,0,1,1,279,509,0,1,2106.40000000224
37,7,7,7,0,2,6,279,509,0,1,1181.5
37,7,7,7,0,3,5,279,509,0,1,1321.10000000149
37,7,7,7,0,4,4,279,509,0,1,985.5
37,7,7,7,0,5,3,279,509,0,1,973.79999999702
37,7,7,7,0,6,2,279,509,0,1,1222
37,7,7,7,0,7,1,279,509,0,1,1065.70000000298
37,8,7,5,-2,1,0,190,421,0,1,1987.10000000149
37,8,7,5,-2,2,6,190,421,0,1,1070.69999999926
37,8,7,5,-2,3,5,190,421,0,1,995.099999997765
37,8,7,5,-2,4,4,190,421,0,1,1037.10000000149
37,8,7,5,-2,5,3,190,421,0,1,1070
37,9,5,4,-1,1,2,26,227,0,1,2056.79999999702
37,9,5,4,-1,2,4,26,227,0,1,1078.70000000298
37,9,5,4,-1,3,3,26,227,0,1,1073.5
37,9,5,4,-1,4,2,26,227,0,1,1269.59999999777
37,10,6,5,-1,1,1,353,538,0,1,1476.80000000075
37,10,6,5,-1,2,5,353,538,0,1,1736.39999999851
37,10,6,5,-1,3,4,353,538,0,1,1517.20000000298
37,10,6,5,-1,4,3,353,538,0,1,1394.5
37,10,6,5,-1,5,2,353,538,0,1,1235.69999999926
37,11,6,3,-3,1,1,49,205,0,1,1068.10000000149
37,11,6,3,-3,2,5,49,205,0,1,1039.5
37,11,6,3,-3,3,4,49,205,0,1,1153.69999999926
37,12,5,5,0,1,3,115,299,0,1,1004.19999999926
37,12,5,5,0,2,4,115,299,0,1,1045
37,12,5,5,0,3,3,115,299,0,1,980.099999997765
37,12,5,5,0,4,2,115,299,0,1,1012.80000000075
37,12,5,5,0,5,1,115,299,0,1,1222.89999999851
37,13,7,7,0,1,0,328,526,0,1,1225.69999999926
37,13,7,7,0,2,6,328,526,0,1,1126.5
37,13,7,7,0,3,5,328,526,0,1,2603.69999999926
37,13,7,7,0,4,4,328,526,0,1,1067.80000000075
37,13,7,7,0,5,3,328,526,0,1,1022.90000000224
37,13,7,7,0,6,2,328,526,0,1,1382.69999999926
37,13,7,7,0,7,1,328,526,0,1,1042.39999999851
37,14,7,7,0,1,0,310,457,0,1,1102
37,14,7,7,0,2,6,310,457,0,1,1501.69999999926
37,14,7,7,0,3,5,310,457,0,1,1017.19999999925
37,14,7,7,0,4,4,310,457,0,1,1024.19999999926
37,14,7,7,0,5,3,310,457,0,1,1380.30000000075
37,14,7,7,0,6,2,310,457,0,1,969.29999999702
37,14,7,7,0,7,1,310,457,0,1,1160.90000000224
37,15,6,6,0,1,0,187,345,0,1,1412.19999999926
37,15,6,6,0,2,5,187,345,0,1,1202.5
37,15,6,6,0,3,4,187,345,0,1,1203.5
37,15,6,6,0,4,3,187,345,0,1,1025.09999999776
37,15,6,6,0,5,2,187,345,0,1,1518.60000000149
37,15,6,6,0,6,1,187,345,0,1,1741.10000000149
37,16,5,9,4,1,0,61,253,0,1,1398.69999999925
37,16,5,9,4,2,4,61,253,0,1,1121.60000000149
37,16,5,9,4,3,3,61,253,0,1,1075.40000000224
37,16,5,9,4,4,2,61,253,0,1,1169.79999999702
37,16,5,9,4,5,1,61,253,0,1,1104.30000000075
37,16,5,9,4,6,0,61,253,0,1,1215.59999999777
37,16,5,9,4,7,0,61,253,0,1,1207.80000000075
37,16,5,9,4,8,0,61,253,0,1,1069.60000000149
37,16,5,9,4,9,0,61,253,0,1,1104.90000000224
37,17,6,6,0,1,6,201,347,0,1,2116.09999999776
37,17,6,6,0,2,5,201,347,0,1,1113.59999999776
37,17,6,6,0,3,4,201,347,0,1,952.29999999702
37,17,6,6,0,4,3,201,347,0,1,1050.30000000075
37,17,6,6,0,5,2,201,347,0,1,1072.89999999851
37,17,6,6,0,6,1,201,347,0,1,949.300000000745
37,18,6,6,0,1,0,199,347,0,1,1017.60000000149
37,18,6,6,0,2,5,199,347,0,1,1055.89999999851
37,18,6,6,0,3,4,199,347,0,1,1121.19999999926
37,18,6,6,0,4,3,199,347,0,1,1137.69999999926
37,18,6,6,0,5,2,199,347,0,1,981.70000000298
37,18,6,6,0,6,1,199,347,0,1,1099.09999999776
37,19,6,6,0,1,0,60,265,0,1,1123.09999999776
37,19,6,6,0,2,5,60,265,0,1,1065.5
37,19,6,6,0,3,4,60,265,0,1,1430.5
37,19,6,6,0,4,3,60,265,0,1,989.800000000745
37,19,6,6,0,5,2,60,265,0,1,953.300000000745
37,19,6,6,0,6,1,60,265,0,1,1042.5
37,20,5,5,0,1,0,183,352,0,1,1085.80000000075
37,20,5,5,0,2,4,183,352,0,1,1154.60000000149
37,20,5,5,0,3,3,183,352,0,1,1110.19999999925
37,20,5,5,0,4,2,183,352,0,1,1490.30000000075
37,20,5,5,0,5,1,183,352,0,1,1454.39999999851
37,21,6,6,0,1,0,320,486,3,0,165.300000000745
37,,,,,,,,,,,
37,21,6,6,0,2,5,320,486,0,1,1164.5
37,21,6,6,0,3,4,320,486,0,1,1036.39999999851
37,21,6,6,0,4,3,320,486,0,1,963
37,21,6,6,0,5,2,320,486,0,1,1369.10000000149
37,21,6,6,0,6,1,320,486,0,1,997.29999999702
37,22,5,4,-1,1,0,283,437,0,1,1121
37,22,5,4,-1,2,4,283,437,0,1,1083.69999999925
37,22,5,4,-1,3,3,283,437,0,1,1376.80000000075
37,22,5,4,-1,4,2,283,437,0,1,972.10000000149
37,23,7,7,0,1,1,127,346,0,1,1108.40000000224
37,23,7,7,0,2,6,127,346,0,1,1027
37,23,7,7,0,3,5,127,346,0,1,942.300000000745
37,23,7,7,0,4,4,127,346,0,1,1019.09999999776
37,23,7,7,0,5,3,127,346,0,1,1034.19999999926
37,23,7,7,0,6,2,127,346,0,1,1301.80000000075
37,23,7,7,0,7,1,127,346,0,1,997
37,24,7,7,0,1,0,134,304,0,1,1003.89999999851
37,24,7,7,0,2,6,134,304,0,1,1104
37,24,7,7,0,3,5,134,304,0,1,966.199999999255
37,24,7,7,0,4,4,134,304,0,1,1140.39999999851
37,24,7,7,0,5,3,134,304,0,1,1047.40000000224
37,24,7,7,0,6,2,134,304,0,1,1023
37,24,7,7,0,7,1,134,304,0,1,1041.5
37,25,6,6,0,1,0,63,244,0,1,954.300000000745
37,25,6,6,0,2,5,63,244,0,1,1062.60000000149
37,25,6,6,0,3,4,63,244,0,1,1153.09999999777
37,25,6,6,0,4,3,63,244,0,1,1659.5
37,25,6,6,0,5,2,63,244,0,1,1042
37,25,6,6,0,6,1,63,244,0,1,973.5
37,26,6,2,-4,1,0,195,401,0,1,1099
37,26,6,2,-4,2,5,195,401,0,1,975.199999999255
37,27,5,5,0,1,4,355,552,0,1,1325.80000000075
37,27,5,5,0,2,4,355,552,0,1,1096
37,27,5,5,0,3,3,355,552,0,1,1083.69999999925
37,27,5,5,0,4,2,355,552,0,1,1326.19999999925
37,27,5,5,0,5,1,355,552,0,1,1045.09999999776
37,28,7,7,0,1,0,135,328,0,1,1319
37,28,7,7,0,2,6,135,328,0,1,1091.09999999776
37,28,7,7,0,3,5,135,328,0,1,1002
37,28,7,7,0,4,4,135,328,0,1,1625.80000000075
37,28,7,7,0,5,3,135,328,0,1,1155.40000000224
37,28,7,7,0,6,2,135,328,0,1,1004.19999999926
37,28,7,7,0,7,1,135,328,0,1,1275.59999999776
37,29,6,9,3,1,0,33,215,0,1,1117.59999999776
37,29,6,9,3,2,5,33,215,0,1,1004.19999999926
37,29,6,9,3,3,4,33,215,0,1,1020
37,29,6,9,3,4,3,33,215,0,1,1059.5
37,29,6,9,3,5,2,33,215,0,1,1085.80000000075
37,29,6,9,3,6,1,33,215,0,1,1571.19999999926
37,29,6,9,3,7,0,33,215,0,1,955.400000002235
37,29,6,9,3,8,0,33,215,0,1,1183.19999999926
37,29,6,9,3,9,0,33,215,0,1,960.199999999255
37,30,6,6,0,1,6,63,231,0,1,1014.39999999851
37,30,6,6,0,2,5,63,231,0,1,1104.5
37,30,6,6,0,3,4,63,231,0,1,1140.30000000075
37,30,6,6,0,4,3,63,231,0,1,1066.20000000298
37,30,6,6,0,5,2,63,231,0,1,1059.39999999851
37,30,6,6,0,6,1,63,231,0,1,1065.09999999776
37,31,5,5,0,1,0,126,313,0,1,979
37,31,5,5,0,2,4,126,313,0,1,960.199999999255
37,31,5,5,0,3,3,126,313,0,1,1026.89999999851
37,31,5,5,0,4,2,126,313,0,1,1079.09999999776
37,31,5,5,0,5,1,126,313,0,1,986
37,32,5,5,0,1,0,235,441,0,1,1427.89999999851
37,32,5,5,0,2,4,235,441,0,1,1043.30000000075
37,32,5,5,0,3,3,235,441,0,1,1547.30000000075
37,32,5,5,0,4,2,235,441,0,1,987.10000000149
37,32,5,5,0,5,1,235,441,0,1,1006.5
37,33,6,6,0,1,0,230,379,0,1,1231.10000000149
37,33,6,6,0,2,5,230,379,0,1,1074
37,33,6,6,0,3,4,230,379,0,1,2161
37,33,6,6,0,4,3,230,379,0,1,1025.30000000075
37,33,6,6,0,5,2,230,379,0,1,1256.89999999851
37,33,6,6,0,6,1,230,379,0,1,1033.30000000075
37,34,6,5,-1,1,0,277,504,0,1,1004.59999999776
37,34,6,5,-1,2,5,277,504,0,1,1020.19999999926
37,34,6,5,-1,3,4,277,504,0,1,1013.80000000075
37,34,6,5,-1,4,3,277,504,0,1,1239.89999999851
37,34,6,5,-1,5,2,277,504,0,1,1084
37,35,6,6,0,1,1,295,502,0,1,1163.20000000298
37,35,6,6,0,2,5,295,502,0,1,1659.60000000149
37,35,6,6,0,3,4,295,502,0,1,1177.30000000075
37,35,6,6,0,4,3,295,502,0,1,1031.29999999702
37,35,6,6,0,5,2,295,502,0,1,1199.40000000224
37,35,6,6,0,6,1,295,502,0,1,1006.69999999926
37,36,6,6,0,1,0,354,512,0,1,1148.5
37,36,6,6,0,2,5,354,512,0,1,1053.09999999776
37,36,6,6,0,3,4,354,512,0,1,1153.80000000075
37,36,6,6,0,4,3,354,512,0,1,1517.19999999926
37,36,6,6,0,5,2,354,512,0,1,1452.69999999926
37,36,6,6,0,6,1,354,512,0,1,1568.30000000075
37,37,7,7,0,1,0,187,339,0,1,1118.10000000149
37,37,7,7,0,2,6,187,339,0,1,1041.60000000149
37,37,7,7,0,3,5,187,339,0,1,1121.5
37,37,7,7,0,4,4,187,339,0,1,1009.5
37,37,7,7,0,5,3,187,339,0,1,1094.89999999851
37,37,7,7,0,6,2,187,339,0,1,1037.60000000149
37,37,7,7,0,7,1,187,339,0,1,1098
37,38,7,6,-1,1,0,166,373,0,1,1112.30000000075
37,38,7,6,-1,2,6,166,373,0,1,1108.10000000149
37,38,7,6,-1,3,5,166,373,0,1,1158.5
37,38,7,6,-1,4,4,166,373,0,1,1088.59999999776
37,38,7,6,-1,5,3,166,373,0,1,1076.89999999851
37,38,7,6,-1,6,2,166,373,0,1,1557.5
37,39,5,5,0,1,1,248,429,0,1,1126.89999999851
37,39,5,5,0,2,4,248,429,0,1,1122.90000000224
37,39,5,5,0,3,3,248,429,0,1,977.300000000745
37,39,5,5,0,4,2,248,429,0,1,1826
37,39,5,5,0,5,1,248,429,0,1,1053.09999999776
37,40,6,4,-2,1,0,258,480,0,1,1128.10000000149
37,40,6,4,-2,2,5,258,480,0,1,1394.5
37,40,6,4,-2,3,4,258,480,0,1,1008.40000000224
37,40,6,4,-2,4,3,258,480,0,1,1479
37,41,6,6,0,1,2,218,453,0,1,1023.39999999851
37,41,6,6,0,2,5,218,453,0,1,1155.89999999851
37,41,6,6,0,3,4,218,453,0,1,1424.59999999776
37,41,6,6,0,4,3,218,453,0,1,1041.60000000149
37,41,6,6,0,5,2,218,453,0,1,1141.40000000224
37,41,6,6,0,6,1,218,453,0,1,1072
37,42,6,6,0,1,0,249,459,0,1,1232.69999999926
37,42,6,6,0,2,5,249,459,0,1,931.800000000745
37,42,6,6,0,3,4,249,459,0,1,1029.19999999925
37,42,6,6,0,4,3,249,459,0,1,1975.40000000224
37,42,6,6,0,5,2,249,459,0,1,1113.30000000075
37,42,6,6,0,6,1,249,459,0,1,1047.80000000075
37,43,7,7,0,1,0,168,392,0,1,1115.39999999851
37,43,7,7,0,2,6,168,392,0,1,1282.5
37,43,7,7,0,3,5,168,392,0,1,1067.59999999776
37,43,7,7,0,4,4,168,392,0,1,1005.19999999925
37,43,7,7,0,5,3,168,392,0,1,987.800000000745
37,43,7,7,0,6,2,168,392,0,1,1428.39999999851
37,43,7,7,0,7,1,168,392,0,1,1191.80000000075
37,44,6,7,1,1,0,252,475,0,1,1005.39999999851
37,44,6,7,1,2,5,252,475,0,1,1068.5
37,44,6,7,1,3,4,252,475,0,1,941.79999999702
37,44,6,7,1,4,3,252,475,0,1,954.699999999255
37,44,6,7,1,5,2,252,475,0,1,959.099999997765
37,44,6,7,1,6,1,252,475,0,1,931.5
37,44,6,7,1,7,0,252,475,0,1,1506.69999999926
37,45,7,4,-3,1,7,309,495,0,1,1008.19999999925
37,45,7,4,-3,2,6,309,495,0,1,1025.60000000149
37,45,7,4,-3,3,5,309,495,0,1,1134
37,45,7,4,-3,4,4,309,495,0,1,1075.60000000149
37,46,7,7,0,1,3,278,509,0,1,992.5
37,46,7,7,0,2,6,278,509,0,1,1034.5
37,46,7,7,0,3,5,278,509,0,1,1159.60000000149
37,46,7,7,0,4,4,278,509,0,1,1147.69999999926
37,46,7,7,0,5,3,278,509,0,1,1076.10000000149
37,46,7,7,0,6,2,278,509,0,1,999.20000000298
37,46,7,7,0,7,1,278,509,0,1,1110.39999999851
37,47,6,6,0,1,0,242,391,0,1,1015.80000000075
37,47,6,6,0,2,5,242,391,0,1,1042.19999999926
37,47,6,6,0,3,4,242,391,0,1,1537.39999999851
37,47,6,6,0,4,3,242,391,0,1,1083.09999999776
37,47,6,6,0,5,2,242,391,0,1,1098
37,47,6,6,0,6,1,242,391,0,1,1091.20000000298
37,48,5,1,-4,1,0,83,254,0,1,1053.39999999851
37,49,5,5,0,1,5,331,477,0,1,968.79999999702
37,49,5,5,0,2,4,331,477,0,1,967.400000002235
37,49,5,5,0,3,3,331,477,0,1,938.099999997765
37,49,5,5,0,4,2,331,477,0,1,1034
37,49,5,5,0,5,1,331,477,0,1,1116.39999999851
37,50,6,6,0,1,0,104,251,0,1,1119.19999999926
37,50,6,6,0,2,5,104,251,0,1,1221.09999999776
37,50,6,6,0,3,4,104,251,0,1,1063.5
37,50,6,6,0,4,3,104,251,0,1,992.29999999702
37,50,6,6,0,5,2,104,251,0,1,1104.10000000149
37,50,6,6,0,6,1,104,251,0,1,1407.70000000298
37,51,7,8,1,1,0,169,352,0,1,1082.29999999702
37,51,7,8,1,2,6,169,352,0,1,1727.19999999926
37,51,7,8,1,3,5,169,352,0,1,1585.5
37,51,7,8,1,4,4,169,352,0,1,960.400000002235
37,51,7,8,1,5,3,169,352,0,1,1051.89999999851
37,51,7,8,1,6,2,169,352,0,1,914.699999999255
37,51,7,8,1,7,1,169,352,0,1,1277.70000000298
37,51,7,8,1,8,0,169,352,0,1,999.099999997765
37,52,7,7,0,1,7,296,497,0,1,1402.5
37,52,7,7,0,2,6,296,497,0,1,1454.19999999926
37,52,7,7,0,3,5,296,497,0,1,1979.80000000075
37,52,7,7,0,4,4,296,497,0,1,1019.30000000075
37,52,7,7,0,5,3,296,497,0,1,935.10000000149
37,52,7,7,0,6,2,296,497,0,1,947.89999999851
37,52,7,7,0,7,1,296,497,0,1,1103.19999999926
37,53,5,5,0,1,0,79,272,0,1,1029.69999999925
37,53,5,5,0,2,4,79,272,0,1,1047.09999999776
37,53,5,5,0,3,3,79,272,0,1,1060
37,53,5,5,0,4,2,79,272,0,1,1213.80000000075
37,53,5,5,0,5,1,79,272,0,1,1709
37,54,5,5,0,1,0,32,227,0,1,986.39999999851
37,54,5,5,0,2,4,32,227,0,1,1025.30000000075
37,54,5,5,0,3,3,32,227,0,1,1100.80000000075
37,54,5,5,0,4,2,32,227,0,1,1141.19999999926
37,54,5,5,0,5,1,32,227,0,1,1349.09999999776
37,55,5,5,0,1,0,27,186,0,1,1136.60000000149
37,55,5,5,0,2,4,27,186,0,1,1521.89999999851
37,55,5,5,0,3,3,27,186,0,1,1141.40000000224
37,55,5,5,0,4,2,27,186,0,1,1194.59999999776
37,55,5,5,0,5,1,27,186,0,1,1553.80000000075
37,56,5,5,0,1,0,250,472,0,1,1124.19999999925
37,56,5,5,0,2,4,250,472,0,1,1208.19999999926
37,56,5,5,0,3,3,250,472,0,1,1045.70000000298
37,56,5,5,0,4,2,250,472,0,1,1246.09999999777
37,56,5,5,0,5,1,250,472,0,1,1145.19999999926
37,57,5,5,0,1,0,52,258,0,1,1471.30000000075
37,57,5,5,0,2,4,52,258,0,1,1635.89999999851
37,57,5,5,0,3,3,52,258,0,1,1024.5
37,57,5,5,0,4,2,52,258,0,1,1053.10000000149
37,57,5,5,0,5,1,52,258,0,1,1164.5
37,58,7,4,-3,1,0,291,444,0,1,1078.90000000224
37,58,7,4,-3,2,6,291,444,0,1,1329.80000000075
37,58,7,4,-3,3,5,291,444,0,1,999.199999999255
37,58,7,4,-3,4,4,291,444,0,1,1114.30000000075
37,59,5,5,0,1,3,188,353,0,1,1581.79999999702
37,59,5,5,0,2,4,188,353,0,1,1151.40000000224
37,59,5,5,0,3,3,188,353,0,1,1635.5
37,59,5,5,0,4,2,188,353,0,1,1083.79999999702
37,59,5,5,0,5,1,188,353,0,1,1081.29999999702
37,60,6,6,0,1,0,155,333,0,1,1176.60000000149
37,60,6,6,0,2,5,155,333,0,1,1026.59999999776
37,60,6,6,0,3,4,155,333,0,1,1156.19999999926
37,60,6,6,0,4,3,155,333,0,1,1098.20000000298
37,60,6,6,0,5,2,155,333,0,1,1164.10000000149
37,60,6,6,0,6,1,155,333,0,1,1003
37,61,5,5,0,1,0,181,329,0,1,1144.80000000075
37,61,5,5,0,2,4,181,329,0,1,1654.80000000075
37,61,5,5,0,3,3,181,329,0,1,1062.90000000224
37,61,5,5,0,4,2,181,329,0,1,1162.10000000149
37,61,5,5,0,5,1,181,329,0,1,1165.70000000298
37,62,7,7,0,1,0,98,274,0,1,1636.09999999776
37,62,7,7,0,2,6,98,274,0,1,1109.60000000149
37,62,7,7,0,3,5,98,274,0,1,1092.90000000224
37,62,7,7,0,4,4,98,274,0,1,1173.39999999851
37,62,7,7,0,5,3,98,274,0,1,1172.09999999776
37,62,7,7,0,6,2,98,274,0,1,1689.29999999702
37,62,7,7,0,7,1,98,274,0,1,2024.19999999925
37,63,6,10,4,1,0,94,329,2,0,256.5
37,,,,,,,,,,,
37,63,6,10,4,2,5,94,329,0,1,1349
37,63,6,10,4,3,4,94,329,0,1,1608.40000000224
37,63,6,10,4,4,3,94,329,0,1,1066.90000000224
37,63,6,10,4,5,2,94,329,0,1,1425.5
37,63,6,10,4,6,1,94,329,0,1,1331.80000000075
37,63,6,10,4,7,0,94,329,0,1,1300.79999999702
37,63,6,10,4,8,0,94,329,0,1,1146
37,63,6,10,4,9,0,94,329,0,1,1085.89999999851
37,63,6,10,4,10,0,94,329,0,1,1120.10000000149
37,64,7,7,0,1,7,93,297,0,1,1005.19999999925
37,64,7,7,0,2,6,93,297,0,1,1439.10000000149
37,64,7,7,0,3,5,93,297,0,1,1123.79999999702
37,64,7,7,0,4,4,93,297,0,1,1478.30000000075
37,64,7,7,0,5,3,93,297,0,1,1060.89999999851
37,64,7,7,0,6,2,93,297,0,1,940.400000002235
37,64,7,7,0,7,1,93,297,0,1,1024.69999999926
37,65,7,3,-4,1,0,226,419,0,1,1132.80000000075
37,65,7,3,-4,2,6,226,419,0,1,1043.39999999851
37,65,7,3,-4,3,5,226,419,0,1,1038.69999999926
37,66,6,6,0,1,4,112,274,0,1,1189.89999999851
37,66,6,6,0,2,5,112,274,0,1,1039.09999999776
37,66,6,6,0,3,4,112,274,0,1,1347.10000000149
37,66,6,6,0,4,3,112,274,0,1,1054.29999999702
37,66,6,6,0,5,2,112,274,0,1,1527.39999999851
37,66,6,6,0,6,1,112,274,0,1,999
37,67,5,5,0,1,0,104,296,0,1,1452.59999999776
37,67,5,5,0,2,4,104,296,0,1,962.300000000745
37,67,5,5,0,3,3,104,296,0,1,963.300000000745
37,67,5,5,0,4,2,104,296,0,1,979.900000002235
37,67,5,5,0,5,1,104,296,0,1,1630.19999999926
37,68,5,5,0,1,0,49,277,0,1,1226.09999999776
37,68,5,5,0,2,4,49,277,0,1,1129.19999999926
37,68,5,5,0,3,3,49,277,0,1,1126.5
37,68,5,5,0,4,2,49,277,0,1,957.10000000149
37,68,5,5,0,5,1,49,277,0,1,1050.19999999926
37,69,5,5,0,1,0,90,279,0,1,1095.90000000224
37,69,5,5,0,2,4,90,279,0,1,1660.09999999776
37,69,5,5,0,3,3,90,279,0,1,1016.90000000224
37,69,5,5,0,4,2,90,279,0,1,1068
37,69,5,5,0,5,1,90,279,0,1,1009.69999999925
37,70,6,6,0,1,0,295,444,0,1,1700.80000000075
37,70,6,6,0,2,5,295,444,0,1,1075.80000000075
37,70,6,6,0,3,4,295,444,0,1,953
37,70,6,6,0,4,3,295,444,0,1,1074.69999999926
37,70,6,6,0,5,2,295,444,0,1,1004.5
37,70,6,6,0,6,1,295,444,0,1,1004.39999999851
37,71,6,7,1,1,0,97,313,0,1,1088.69999999926
37,71,6,7,1,2,5,97,313,0,1,1024.09999999776
37,71,6,7,1,3,4,97,313,0,1,1198.19999999926
37,71,6,7,1,4,3,97,313,0,1,1097.70000000298
37,71,6,7,1,5,2,97,313,0,1,1129.79999999702
37,71,6,7,1,6,1,97,313,0,1,1014.20000000298
37,71,6,7,1,7,0,97,313,0,1,1143.70000000298
37,72,5,9,4,1,5,329,561,0,1,1376.30000000075
37,72,5,9,4,2,4,329,561,0,1,965.800000000745
37,72,5,9,4,3,3,329,561,0,1,1065.60000000149
37,72,5,9,4,4,2,329,561,0,1,1065.80000000075
37,72,5,9,4,5,1,329,561,0,1,1207.89999999851
37,72,5,9,4,6,0,329,561,0,1,1052.80000000075
37,72,5,9,4,7,0,329,561,0,1,1179
37,72,5,9,4,8,0,329,561,0,1,968.5
37,72,5,9,4,9,0,329,561,0,1,1064
37,73,5,5,0,1,5,275,446,3,0,1065.89999999851
37,,,,,,,,,,,
37,73,5,5,0,2,4,275,446,0,1,1639.5
37,73,5,5,0,3,3,275,446,0,1,1012.69999999926
37,73,5,5,0,4,2,275,446,0,1,1622
37,73,5,5,0,5,1,275,446,0,1,1000.60000000149
37,74,5,5,0,1,0,180,392,0,1,2249.80000000075
37,74,5,5,0,2,4,180,392,0,1,1025.10000000149
37,74,5,5,0,3,3,180,392,0,1,1021.20000000298
37,74,5,5,0,4,2,180,392,0,1,991.20000000298
37,74,5,5,0,5,1,180,392,0,1,1730.89999999851
37,75,5,5,0,1,0,124,284,0,1,1541.70000000298
37,75,5,5,0,2,4,124,284,0,1,1151.90000000224
37,75,5,5,0,3,3,124,284,0,1,1021.80000000075
37,75,5,5,0,4,2,124,284,0,1,1025.90000000224
37,75,5,5,0,5,1,124,284,0,1,1079.19999999926
37,76,7,7,0,1,0,260,454,0,1,1683.30000000075
37,76,7,7,0,2,6,260,454,0,1,1003.39999999851
37,76,7,7,0,3,5,260,454,0,1,1126.19999999926
37,76,7,7,0,4,4,260,454,0,1,1100
37,76,7,7,0,5,3,260,454,0,1,1138.39999999851
37,76,7,7,0,6,2,260,454,0,1,1613.69999999926
37,76,7,7,0,7,1,260,454,0,1,1098.09999999776
37,77,6,9,3,1,0,353,532,0,1,1161.5
37,77,6,9,3,2,5,353,532,0,1,1177
37,77,6,9,3,3,4,353,532,0,1,1358.40000000224
37,77,6,9,3,4,3,353,532,0,1,1059
37,77,6,9,3,5,2,353,532,0,1,1135.90000000224
37,77,6,9,3,6,1,353,532,0,1,1084.5
37,77,6,9,3,7,0,353,532,0,1,1104.40000000224
37,77,6,9,3,8,0,353,532,0,1,1073.80000000075
37,77,6,9,3,9,0,353,532,0,1,1116.59999999776
37,78,6,6,0,1,6,302,530,0,1,1847.69999999926
37,78,6,6,0,2,5,302,530,0,1,1012.80000000075
37,78,6,6,0,3,4,302,530,0,1,988.099999997765
37,78,6,6,0,4,3,302,530,0,1,1140.39999999851
37,78,6,6,0,5,2,302,530,0,1,995.60000000149
37,78,6,6,0,6,1,302,530,0,1,1498.40000000224
37,79,6,6,0,1,0,146,356,0,1,1425.20000000298
37,79,6,6,0,2,5,146,356,0,1,1130
37,79,6,6,0,3,4,146,356,0,1,1510.70000000298
37,79,6,6,0,4,3,146,356,0,1,971
37,79,6,6,0,5,2,146,356,0,1,1139.09999999777
37,79,6,6,0,6,1,146,356,0,1,1064.19999999925
37,80,5,5,0,1,0,83,262,0,1,1479.19999999926
37,80,5,5,0,2,4,83,262,0,1,986.400000002235
37,80,5,5,0,3,3,83,262,0,1,1388.30000000075
37,80,5,5,0,4,2,83,262,0,1,1038.60000000149
37,80,5,5,0,5,1,83,262,0,1,1188.69999999926
37,81,7,3,-4,1,0,95,328,0,1,1086.5
37,81,7,3,-4,2,6,95,328,0,1,941.400000002235
37,81,7,3,-4,3,5,95,328,0,1,932.89999999851
37,82,6,6,0,1,4,160,388,0,1,1171.59999999776
37,82,6,6,0,2,5,160,388,0,1,1375.40000000224
37,82,6,6,0,3,4,160,388,0,1,1045.10000000149
37,82,6,6,0,4,3,160,388,0,1,1627.60000000149
37,82,6,6,0,5,2,160,388,0,1,1078.19999999925
37,82,6,6,0,6,1,160,388,0,1,1467.5
37,83,7,7,0,1,0,307,462,0,1,1244.90000000224
37,83,7,7,0,2,6,307,462,0,1,1008.5
37,83,7,7,0,3,5,307,462,0,1,1235.60000000149
37,83,7,7,0,4,4,307,462,0,1,1082.30000000075
37,83,7,7,0,5,3,307,462,0,1,1121.19999999926
37,83,7,7,0,6,2,307,462,0,1,995.60000000149
37,83,7,7,0,7,1,307,462,0,1,958.10000000149
37,84,7,9,2,1,0,248,465,0,1,1060.90000000224
37,84,7,9,2,2,6,248,465,0,1,1555.5
37,84,7,9,2,3,5,248,465,0,1,1012.89999999851
37,84,7,9,2,4,4,248,465,0,1,1185.60000000149
37,84,7,9,2,5,3,248,465,0,1,1233.59999999777
37,84,7,9,2,6,2,248,465,0,1,1118
37,84,7,9,2,7,1,248,465,0,1,1417.40000000224
37,84,7,9,2,8,0,248,465,0,1,1130.19999999926
37,84,7,9,2,9,0,248,465,0,1,1198.5
37,85,5,2,-3,1,5,188,421,0,1,1187.30000000075
37,85,5,2,-3,2,4,188,421,0,1,1105
37,86,7,7,0,1,3,27,235,0,1,1366.29999999702
37,86,7,7,0,2,6,27,235,0,1,1077.39999999851
37,86,7,7,0,3,5,27,235,0,1,1044
37,86,7,7,0,4,4,27,235,0,1,1392.40000000224
37,86,7,7,0,5,3,27,235,0,1,1061.60000000149
37,86,7,7,0,6,2,27,235,0,1,1176.89999999851
37,86,7,7,0,7,1,27,235,0,1,971.10000000149
37,87,6,4,-2,1,0,282,434,0,1,1444.19999999926
37,87,6,4,-2,2,5,282,434,0,1,1038.89999999851
37,87,6,4,-2,3,4,282,434,0,1,1223
37,87,6,4,-2,4,3,282,434,0,1,1064.30000000075
37,88,5,5,0,1,2,85,287,0,1,1103.89999999851
37,88,5,5,0,2,4,85,287,0,1,1171.30000000075
37,88,5,5,0,3,3,85,287,0,1,1714.70000000298
37,88,5,5,0,4,2,85,287,0,1,1045
37,88,5,5,0,5,1,85,287,0,1,1100.69999999926
37,89,7,7,0,1,0,192,400,0,1,1604.79999999702
37,89,7,7,0,2,6,192,400,0,1,1101
37,89,7,7,0,3,5,192,400,0,1,1131.89999999851
37,89,7,7,0,4,4,192,400,0,1,1072.80000000075
37,89,7,7,0,5,3,192,400,0,1,1300
37,89,7,7,0,6,2,192,400,0,1,1224.09999999776
37,89,7,7,0,7,1,192,400,0,1,1015.59999999777
37,90,5,7,2,1,0,281,511,0,1,1135.19999999926
37,90,5,7,2,2,4,281,511,0,1,1846.80000000075
37,90,5,7,2,3,3,281,511,0,1,1300.90000000224
37,90,5,7,2,4,2,281,511,0,1,1046.90000000224
37,90,5,7,2,5,1,281,511,0,1,975.5
37,90,5,7,2,6,0,281,511,0,1,996.199999999255
37,90,5,7,2,7,0,281,511,0,1,1168.09999999776
37,91,6,2,-4,1,6,123,348,0,1,1240.29999999702
37,91,6,2,-4,2,5,123,348,0,1,1084.19999999925
37,92,5,5,0,1,4,104,257,0,1,1078.80000000075
37,92,5,5,0,2,4,104,257,0,1,1562.5
37,92,5,5,0,3,3,104,257,0,1,1021.30000000075
37,92,5,5,0,4,2,104,257,0,1,1053.5
37,92,5,5,0,5,1,104,257,0,1,1056.10000000149
37,93,7,10,3,1,0,146,325,0,1,1052.29999999702
37,93,7,10,3,2,6,146,325,0,1,2541.19999999926
37,93,7,10,3,3,5,146,325,0,1,1042.69999999926
37,93,7,10,3,4,4,146,325,0,1,1069.69999999925
37,93,7,10,3,5,3,146,325,0,1,1134.59999999777
37,93,7,10,3,6,2,146,325,0,1,1323.90000000224
37,93,7,10,3,7,1,146,325,0,1,1051.10000000149
37,93,7,10,3,8,0,146,325,0,1,1123.5
37,93,7,10,3,9,0,146,325,0,1,1258.40000000224
37,93,7,10,3,10,0,146,325,0,1,1129.30000000075
37,94,5,3,-2,1,5,342,567,0,1,1864.80000000075
37,94,5,3,-2,2,4,342,567,0,1,997.10000000149
37,94,5,3,-2,3,3,342,567,0,1,1125.60000000149
37,95,7,7,0,1,2,313,463,0,1,1595.60000000149
37,95,7,7,0,2,6,313,463,0,1,1056.90000000224
37,95,7,7,0,3,5,313,463,0,1,1074.09999999777
37,95,7,7,0,4,4,313,463,0,1,1053.10000000149
37,95,7,7,0,5,3,313,463,0,1,1074.5
37,95,7,7,0,6,2,313,463,0,1,1011
37,95,7,7,0,7,1,313,463,0,1,990.699999999255
37,96,6,6,0,1,0,37,262,0,1,1113.69999999926
37,96,6,6,0,2,5,37,262,0,1,1018.60000000149
37,96,6,6,0,3,4,37,262,0,1,1032.09999999776
37,96,6,6,0,4,3,37,262,0,1,1131.69999999926
37,96,6,6,0,5,2,37,262,0,1,1118.29999999702
37,96,6,6,0,6,1,37,262,0,1,1053.89999999851
37,97,6,8,2,1,0,338,485,0,1,1029.10000000149
37,97,6,8,2,2,5,338,485,0,1,1597.69999999926
37,97,6,8,2,3,4,338,485,0,1,1461.10000000149
37,97,6,8,2,4,3,338,485,0,1,914.800000000745
37,97,6,8,2,5,2,338,485,0,1,1058.60000000149
37,97,6,8,2,6,1,338,485,0,1,963.300000000745
37,97,6,8,2,7,0,338,485,0,1,1578.30000000075
37,97,6,8,2,8,0,338,485,0,1,1199.5
37,98,6,6,0,1,6,62,259,0,1,1187.29999999702
37,98,6,6,0,2,5,62,259,0,1,1349.69999999926
37,98,6,6,0,3,4,62,259,0,1,940.699999999255
37,98,6,6,0,4,3,62,259,0,1,1098.59999999776
37,98,6,6,0,5,2,62,259,0,1,1190.5
37,98,6,6,0,6,1,62,259,0,1,1370
37,99,7,5,-2,1,0,349,556,0,1,1199.29999999702
37,99,7,5,-2,2,6,349,556,0,1,1065.69999999925
37,99,7,5,-2,3,5,349,556,0,1,1140.60000000149
37,99,7,5,-2,4,4,349,556,0,1,1085.80000000075
37,99,7,5,-2,5,3,349,556,0,1,1106.19999999925
37,100,5,5,0,1,2,212,406,0,1,1165.10000000149
37,100,5,5,0,2,4,212,406,0,1,1069
37,100,5,5,0,3,3,212,406,0,1,1202.10000000149
37,100,5,5,0,4,2,212,406,0,1,1093.30000000075
37,100,5,5,0,5,1,212,406,0,1,1083.79999999702
37,101,5,6,1,1,0,256,442,0,1,993.800000000745
37,101,5,6,1,2,4,256,442,0,1,1056.30000000075
37,101,5,6,1,3,3,256,442,0,1,969.900000002235
37,101,5,6,1,4,2,256,442,0,1,1125.30000000075
37,101,5,6,1,5,1,256,442,0,1,1429.69999999926
37,101,5,6,1,6,0,256,442,0,1,1173.69999999926
37,102,6,6,0,1,6,278,434,0,1,1104.59999999776
37,102,6,6,0,2,5,278,434,0,1,1363.79999999702
37,102,6,6,0,3,4,278,434,0,1,992.89999999851
37,102,6,6,0,4,3,278,434,0,1,1097.09999999776
37,102,6,6,0,5,2,278,434,0,1,1173.19999999926
37,102,6,6,0,6,1,278,434,0,1,1360.60000000149
37,103,7,7,0,1,0,101,330,0,1,1835.5
37,103,7,7,0,2,6,101,330,0,1,1188.59999999776
37,103,7,7,0,3,5,101,330,0,1,1137.5
37,103,7,7,0,4,4,101,330,0,1,1041.30000000075
37,103,7,7,0,5,3,101,330,0,1,1121.40000000224
37,103,7,7,0,6,2,101,330,0,1,1139.39999999851
37,103,7,7,0,7,1,101,330,0,1,1115.10000000149
37,104,5,5,0,1,0,276,496,0,1,1554
37,104,5,5,0,2,4,276,496,0,1,1349.69999999926
37,104,5,5,0,3,3,276,496,0,1,1226.10000000149
37,104,5,5,0,4,2,276,496,0,1,1007
37,104,5,5,0,5,1,276,496,0,1,982.599999997765
37,105,6,6,0,1,0,340,505,0,1,974.89999999851
37,105,6,6,0,2,5,340,505,0,1,1007.80000000075
37,105,6,6,0,3,4,340,505,0,1,943.5
37,105,6,6,0,4,3,340,505,0,1,984.800000000745
37,105,6,6,0,5,2,340,505,0,1,1513.80000000075
37,105,6,6,0,6,1,340,505,0,1,962.60000000149
37,106,6,6,0,1,0,280,472,0,1,1177.5
37,106,6,6,0,2,5,280,472,0,1,1447.80000000075
37,106,6,6,0,3,4,280,472,0,1,1082.09999999776
37,106,6,6,0,4,3,280,472,0,1,1116.60000000149
37,106,6,6,0,5,2,280,472,0,1,915.800000000745
37,106,6,6,0,6,1,280,472,0,1,1067.59999999776
37,107,5,1,-4,1,0,149,364,0,1,1493.10000000149
37,108,7,11,4,1,7,342,529,0,1,1442.19999999926
37,108,7,11,4,2,6,342,529,0,1,1226
37,108,7,11,4,3,5,342,529,0,1,993.800000000745
37,108,7,11,4,4,4,342,529,0,1,1145.10000000149
37,108,7,11,4,5,3,342,529,0,1,1659.80000000075
37,108,7,11,4,6,2,342,529,0,1,1029.30000000075
37,108,7,11,4,7,1,342,529,0,1,1021.80000000075
37,108,7,11,4,8,0,342,529,0,1,1115
37,108,7,11,4,9,0,342,529,0,1,1116
37,108,7,11,4,10,0,342,529,0,1,1038.10000000149
37,108,7,11,4,11,0,342,529,0,1,1026.5
37,109,5,3,-2,1,5,120,323,0,1,1503.40000000224
37,109,5,3,-2,2,4,120,323,0,1,1078.19999999925
37,109,5,3,-2,3,3,120,323,0,1,1094.39999999851
37,110,7,7,0,1,2,65,298,0,1,1116.30000000075
37,110,7,7,0,2,6,65,298,0,1,1488.80000000075
37,110,7,7,0,3,5,65,298,0,1,1175
37,110,7,7,0,4,4,65,298,0,1,1009
37,110,7,7,0,5,3,65,298,0,1,992.10000000149
37,110,7,7,0,6,2,65,298,0,1,1600
37,110,7,7,0,7,1,65,298,0,1,1004.39999999851
37,111,7,8,1,1,0,154,352,1,0,1041.39999999851
37,,,,,,,,,,,
37,111,7,8,1,2,6,154,352,0,1,1116.60000000149
37,111,7,8,1,3,5,154,352,0,1,1015.40000000224
37,111,7,8,1,4,4,154,352,0,1,1378.69999999926
37,111,7,8,1,5,3,154,352,0,1,994.5
37,111,7,8,1,6,2,154,352,0,1,2176.19999999926
37,111,7,8,1,7,1,154,352,0,1,1195.89999999851
37,111,7,8,1,8,0,154,352,0,1,1511.5
37,112,5,5,0,1,5,224,440,0,1,1682.59999999776
37,112,5,5,0,2,4,224,440,0,1,1465.09999999776
37,112,5,5,0,3,3,224,440,0,1,1145.30000000075
37,112,5,5,0,4,2,224,440,0,1,1048.5
37,112,5,5,0,5,1,224,440,0,1,1146.39999999851
37,113,5,5,0,1,0,286,440,0,1,1218.69999999926
37,113,5,5,0,2,4,286,440,0,1,1160.29999999702
37,113,5,5,0,3,3,286,440,0,1,1795.80000000075
37,113,5,5,0,4,2,286,440,0,1,1071.39999999851
37,113,5,5,0,5,1,286,440,0,1,1135.80000000075
37,114,5,6,1,1,0,18,206,0,1,1032.30000000075
37,114,5,6,1,2,4,18,206,0,1,1944.90000000224
37,114,5,6,1,3,3,18,206,0,1,1141.19999999926
37,114,5,6,1,4,2,18,206,0,1,1044.80000000075
37,114,5,6,1,5,1,18,206,0,1,1115.5
37,114,5,6,1,6,0,18,206,0,1,1078.29999999702
37,115,6,6,0,1,6,92,312,0,1,1234.19999999926
37,115,6,6,0,2,5,92,312,0,1,1050.89999999851
37,115,6,6,0,3,4,92,312,0,1,1029.69999999925
37,115,6,6,0,4,3,92,312,0,1,1063
37,115,6,6,0,5,2,92,312,0,1,993
37,115,6,6,0,6,1,92,312,0,1,1566.09999999777
37,116,7,7,0,1,0,111,336,0,1,1069.5
37,116,7,7,0,2,6,111,336,0,1,1194.59999999776
37,116,7,7,0,3,5,111,336,0,1,1128.69999999925
37,116,7,7,0,4,4,111,336,0,1,1119.19999999926
37,116,7,7,0,5,3,111,336,0,1,1147.19999999926
37,116,7,7,0,6,2,111,336,0,1,1025.5
37,116,7,7,0,7,1,111,336,0,1,1141.10000000149
37,117,6,6,0,1,0,332,495,0,1,1545.30000000075
37,117,6,6,0,2,5,332,495,0,1,1716.39999999851
37,117,6,6,0,3,4,332,495,0,1,1037.5
37,117,6,6,0,4,3,332,495,0,1,2063.5
37,117,6,6,0,5,2,332,495,0,1,1099.10000000149
37,117,6,6,0,6,1,332,495,0,1,1081.80000000075
37,118,6,6,0,1,0,86,265,0,1,1193.60000000149
37,118,6,6,0,2,5,86,265,0,1,1097.69999999926
37,118,6,6,0,3,4,86,265,0,1,1093
37,118,6,6,0,4,3,86,265,0,1,1117.40000000224
37,118,6,6,0,5,2,86,265,0,1,1144.80000000075
37,118,6,6,0,6,1,86,265,0,1,1569.5
37,119,7,7,0,1,0,122,318,0,1,1762.80000000075
37,119,7,7,0,2,6,122,318,0,1,1145
37,119,7,7,0,3,5,122,318,0,1,1088.69999999926
37,119,7,7,0,4,4,122,318,0,1,1120.69999999926
37,119,7,7,0,5,3,122,318,0,1,1668.70000000298
37,119,7,7,0,6,2,122,318,0,1,1713
37,119,7,7,0,7,1,122,318,0,1,1070.19999999925
37,120,7,7,0,1,0,41,223,0,1,1075.80000000075
37,120,7,7,0,2,6,41,223,0,1,1082
37,120,7,7,0,3,5,41,223,0,1,1417.5
37,120,7,7,0,4,4,41,223,0,1,1027.10000000149
37,120,7,7,0,5,3,41,223,0,1,1211.30000000075
37,120,7,7,0,6,2,41,223,0,1,1186.40000000224
37,120,7,7,0,7,1,41,223,0,1,1110.90000000224
37,121,7,7,0,1,0,49,223,0,1,1102.29999999702
37,121,7,7,0,2,6,49,223,0,1,1111
37,121,7,7,0,3,5,49,223,0,1,1019.69999999925
37,121,7,7,0,4,4,49,223,0,1,1083.19999999926
37,121,7,7,0,5,3,49,223,0,1,1624.80000000075
37,121,7,7,0,6,2,49,223,0,1,1069.30000000075
37,121,7,7,0,7,1,49,223,0,1,1549.10000000149
37,122,7,11,4,1,0,180,394,0,1,1546.60000000149
37,122,7,11,4,2,6,180,394,0,1,1093.80000000075
37,122,7,11,4,3,5,180,394,0,1,1172.20000000298
37,122,7,11,4,4,4,180,394,0,1,1168.30000000075
37,122,7,11,4,5,3,180,394,0,1,1091.19999999926
37,122,7,11,4,6,2,180,394,0,1,1061.59999999776
37,122,7,11,4,7,1,180,394,0,1,1078.39999999851
37,122,7,11,4,8,0,180,394,0,1,1066.20000000298
37,122,7,11,4,9,0,180,394,0,1,1047.30000000075
37,122,7,11,4,10,0,180,394,0,1,1046.10000000149
37,122,7,11,4,11,0,180,394,0,1,1042.30000000075
37,123,5,5,0,1,5,50,284,0,1,1133.90000000224
37,123,5,5,0,2,4,50,284,0,1,1123.39999999851
37,123,5,5,0,3,3,50,284,0,1,1077.09999999776
37,123,5,5,0,4,2,50,284,0,1,1138.30000000075
37,123,5,5,0,5,1,50,284,0,1,1628.90000000224
37,124,6,8,2,1,0,251,440,0,1,1180.89999999851
37,124,6,8,2,2,5,251,440,0,1,1165.69999999926
37,124,6,8,2,3,4,251,440,0,1,1145.60000000149
37,124,6,8,2,4,3,251,440,0,1,1742.60000000149
37,124,6,8,2,5,2,251,440,0,1,1690.09999999776
37,124,6,8,2,6,1,251,440,0,1,1017.59999999776
37,124,6,8,2,7,0,251,440,0,1,1112.40000000224
37,124,6,8,2,8,0,251,440,0,1,1169.5
37,125,7,7,0,1,7,133,361,0,1,1077.69999999925
37,125,7,7,0,2,6,133,361,0,1,1163.39999999851
37,125,7,7,0,3,5,133,361,0,1,1262.80000000075
37,125,7,7,0,4,4,133,361,0,1,1013.09999999776
37,125,7,7,0,5,3,133,361,0,1,1132.19999999926
37,125,7,7,0,6,2,133,361,0,1,1098.90000000224
37,125,7,7,0,7,1,133,361,0,1,1034.89999999851
37,126,7,7,0,1,0,221,428,0,1,1026.80000000075
37,126,7,7,0,2,6,221,428,0,1,1114.19999999925
37,126,7,7,0,3,5,221,428,0,1,1007
37,126,7,7,0,4,4,221,428,0,1,1046.89999999851
37,126,7,7,0,5,3,221,428,0,1,1063.39999999851
37,126,7,7,0,6,2,221,428,0,1,975.599999997765
37,126,7,7,0,7,1,221,428,0,1,1601.39999999851
37,127,5,5,0,1,0,324,474,0,1,1177.69999999926
37,127,5,5,0,2,4,324,474,0,1,989.699999999255
37,127,5,5,0,3,3,324,474,0,1,1007.80000000075
37,127,5,5,0,4,2,324,474,0,1,1057.5
37,127,5,5,0,5,1,324,474,0,1,1055.69999999925
37,128,6,6,0,1,0,263,486,0,1,2102.69999999925
37,128,6,6,0,2,5,263,486,0,1,1068.5
37,128,6,6,0,3,4,263,486,0,1,1061.69999999925
37,128,6,6,0,4,3,263,486,0,1,987.39999999851
37,128,6,6,0,5,2,263,486,0,1,1068.60000000149
37,128,6,6,0,6,1,263,486,0,1,1153.30000000075
37,129,5,5,0,1,0,109,258,0,1,1260.10000000149
37,129,5,5,0,2,4,109,258,0,1,1129.09999999777
37,129,5,5,0,3,3,109,258,0,1,922.60000000149
37,129,5,5,0,4,2,109,258,0,1,1553.59999999776
37,129,5,5,0,5,1,109,258,0,1,911.300000000745
37,130,7,7,0,1,0,228,435,0,1,1317.19999999926
37,130,7,7,0,2,6,228,435,0,1,960.10000000149
37,130,7,7,0,3,5,228,435,0,1,1103.80000000075
37,130,7,7,0,4,4,228,435,0,1,948.39999999851
37,130,7,7,0,5,3,228,435,0,1,1048
37,130,7,7,0,6,2,228,435,0,1,900.099999997765
37,130,7,7,0,7,1,228,435,0,1,1023.80000000075
37,131,7,7,0,1,0,209,420,0,1,1004.30000000075
37,131,7,7,0,2,6,209,420,0,1,1097.19999999926
37,131,7,7,0,3,5,209,420,0,1,1201.5
37,131,7,7,0,4,4,209,420,0,1,1065.40000000224
37,131,7,7,0,5,3,209,420,0,1,1959.19999999926
37,131,7,7,0,6,2,209,420,0,1,1052.39999999851
37,131,7,7,0,7,1,209,420,0,1,1056.5
37,132,7,7,0,1,0,329,546,0,1,1252.09999999777
37,132,7,7,0,2,6,329,546,0,1,1139.80000000075
37,132,7,7,0,3,5,329,546,0,1,999.599999997765
37,132,7,7,0,4,4,329,546,0,1,1124.69999999926
37,132,7,7,0,5,3,329,546,0,1,1016.30000000075
37,132,7,7,0,6,2,329,546,0,1,983.20000000298
37,132,7,7,0,7,1,329,546,0,1,1028.19999999926
37,133,5,8,3,1,0,355,555,0,1,1028.69999999926
37,133,5,8,3,2,4,355,555,0,1,1056.30000000075
37,133,5,8,3,3,3,355,555,0,1,1032.89999999851
37,133,5,8,3,4,2,355,555,0,1,1055.19999999926
37,133,5,8,3,5,1,355,555,0,1,1094.60000000149
37,133,5,8,3,6,0,355,555,0,1,1209.60000000149
37,133,5,8,3,7,0,355,555,0,1,1093.5
37,133,5,8,3,8,0,355,555,0,1,997.70000000298
37,134,5,2,-3,1,5,180,386,0,1,2345
37,134,5,2,-3,2,4,180,386,0,1,1599
37,135,5,5,0,1,3,264,434,8,0,178
37,,,,,,,,,,,
37,135,5,5,0,2,4,264,434,0,1,1588.19999999925
37,135,5,5,0,3,3,264,434,0,1,1023.29999999702
37,135,5,5,0,4,2,264,434,0,1,970.699999999255
37,135,5,5,0,5,1,264,434,0,1,959.39999999851
37,136,5,5,0,1,0,9,220,0,1,1306.80000000075
37,136,5,5,0,2,4,9,220,0,1,1259
37,136,5,5,0,3,3,9,220,0,1,965.70000000298
37,136,5,5,0,4,2,9,220,0,1,1109.90000000224
37,136,5,5,0,5,1,9,220,0,1,1185.80000000075
37,137,7,7,0,1,0,323,529,0,1,1185.5
37,137,7,7,0,2,6,323,529,0,1,1046
37,137,7,7,0,3,5,323,529,0,1,1071.89999999851
37,137,7,7,0,4,4,323,529,0,1,1527.59999999777
37,137,7,7,0,5,3,323,529,0,1,1130.09999999776
37,137,7,7,0,6,2,323,529,0,1,1003.10000000149
37,137,7,7,0,7,1,323,529,0,1,2088.69999999926
37,138,7,7,0,1,0,6,212,0,1,1257.89999999851
37,138,7,7,0,2,6,6,212,0,1,1678.5
37,138,7,7,0,3,5,6,212,0,1,1335.09999999776
37,138,7,7,0,4,4,6,212,0,1,1109.90000000224
37,138,7,7,0,5,3,6,212,0,1,1022
37,138,7,7,0,6,2,6,212,0,1,1219.90000000224
37,138,7,7,0,7,1,6,212,0,1,1043.79999999702
37,139,6,6,0,1,0,272,497,0,1,1640.80000000075
37,139,6,6,0,2,5,272,497,0,1,1260.60000000149
37,139,6,6,0,3,4,272,497,0,1,1092.79999999702
37,139,6,6,0,4,3,272,497,0,1,1053.19999999926
37,139,6,6,0,5,2,272,497,0,1,1151.29999999702
37,139,6,6,0,6,1,272,497,0,1,1090
37,140,7,7,0,1,0,136,308,0,1,1253.09999999776
37,140,7,7,0,2,6,136,308,0,1,1683.39999999851
37,140,7,7,0,3,5,136,308,0,1,1104.89999999851
37,140,7,7,0,4,4,136,308,0,1,1103.80000000075
37,140,7,7,0,5,3,136,308,0,1,996.400000002235
37,140,7,7,0,6,2,136,308,0,1,1054.10000000149
37,140,7,7,0,7,1,136,308,0,1,1615.5
37,141,5,8,3,1,0,241,399,0,1,2014.39999999851
37,141,5,8,3,2,4,241,399,0,1,1482.19999999926
37,141,5,8,3,3,3,241,399,0,1,1045.39999999851
37,141,5,8,3,4,2,241,399,0,1,992.400000002235
37,141,5,8,3,5,1,241,399,0,1,1617.90000000224
37,141,5,8,3,6,0,241,399,0,1,1022.69999999926
37,141,5,8,3,7,0,241,399,0,1,1028.5
37,141,5,8,3,8,0,241,399,0,1,1064.19999999925
37,142,5,7,2,1,5,305,522,0,1,2150.69999999925
37,142,5,7,2,2,4,305,522,0,1,1284.09999999777
37,142,5,7,2,3,3,305,522,0,1,1513.69999999925
37,142,5,7,2,4,2,305,522,0,1,1042.5
37,142,5,7,2,5,1,305,522,0,1,1302.80000000075
37,142,5,7,2,6,0,305,522,0,1,1061.10000000149
37,142,5,7,2,7,0,305,522,0,1,1418.5
37,143,7,9,2,1,7,313,535,0,1,1341
37,143,7,9,2,2,6,313,535,0,1,1352.10000000149
37,143,7,9,2,3,5,313,535,0,1,1298
37,143,7,9,2,4,4,313,535,0,1,1113.60000000149
37,143,7,9,2,5,3,313,535,9,0,1177.70000000298
37,,,,,,,,,,,
37,143,7,9,2,6,2,313,535,0,1,991
37,143,7,9,2,7,1,313,535,0,1,1980.59999999776
37,143,7,9,2,8,0,313,535,0,1,1101.09999999776
37,143,7,9,2,9,0,313,535,0,1,1197
37,144,7,10,3,1,7,61,253,0,1,1158.5
37,144,7,10,3,2,6,61,253,0,1,1165.29999999702
37,144,7,10,3,3,5,61,253,0,1,992
37,144,7,10,3,4,4,61,253,0,1,1064.59999999776
37,144,7,10,3,5,3,61,253,0,1,958.60000000149
37,144,7,10,3,6,2,61,253,0,1,1132.80000000075
37,144,7,10,3,7,1,61,253,0,1,1013.79999999702
37,144,7,10,3,8,0,61,253,0,1,1077.39999999851
37,144,7,10,3,9,0,61,253,0,1,1116.60000000149
37,144,7,10,3,10,0,61,253,0,1,1060.30000000075
36,1,5,7,2,1,5,83,264,0,1,1731.5
36,1,5,7,2,2,4,83,264,0,1,1253.40000000596
36,1,5,7,2,3,3,83,264,0,1,1309.39999999106
36,1,5,7,2,4,2,83,264,0,1,1210.29999999702
36,1,5,7,2,5,1,83,264,0,1,1491.59999999404
36,1,5,7,2,6,0,83,264,0,1,1824.5
36,1,5,7,2,7,0,83,264,0,1,1259.69999998808
36,2,6,6,0,1,6,87,254,0,1,1375.19999998808
36,2,6,6,0,2,5,87,254,0,1,1309
36,2,6,6,0,3,4,87,254,0,1,1343.40000000596
36,2,6,6,0,4,3,87,254,0,1,1446
36,2,6,6,0,5,2,87,254,0,1,1539
36,2,6,6,0,6,1,87,254,0,1,1459.89999999106
36,3,7,7,0,1,0,90,274,0,1,1358.70000000298
36,3,7,7,0,2,6,90,274,0,1,1356.79999999702
36,3,7,7,0,3,5,90,274,0,1,1310
36,3,7,7,0,4,4,90,274,0,1,1308.79999999702
36,3,7,7,0,5,3,90,274,0,1,1277.39999999106
36,3,7,7,0,6,2,90,274,0,1,1309.5
36,3,7,7,0,7,1,90,274,0,1,1361.09999999404
36,4,7,6,-1,1,0,110,267,0,1,1621.29999999702
36,4,7,6,-1,2,6,110,267,0,1,1210.39999999106
36,4,7,6,-1,3,5,110,267,0,1,1494.10000000894
36,4,7,6,-1,4,4,110,267,0,1,1327
36,4,7,6,-1,5,3,110,267,0,1,1341.79999999702
36,4,7,6,-1,6,2,110,267,0,1,1175.70000000298
36,5,7,7,0,1,1,267,475,0,1,1959.69999998808
36,5,7,7,0,2,6,267,475,0,1,1294.59999999404
36,5,7,7,0,3,5,267,475,0,1,1241.10000000894
36,5,7,7,0,4,4,267,475,0,1,1326.10000000894
36,5,7,7,0,5,3,267,475,0,1,1259.79999999702
36,5,7,7,0,6,2,267,475,0,1,1442
36,5,7,7,0,7,1,267,475,0,1,1309.89999999106
36,6,7,7,0,1,0,208,421,0,1,1343.29999999702
36,6,7,7,0,2,6,208,421,0,1,1260.79999999702
36,6,7,7,0,3,5,208,421,0,1,1440.90000000596
36,6,7,7,0,4,4,208,421,0,1,1210.60000000894
36,6,7,7,0,5,3,208,421,0,1,1312.5
36,6,7,7,0,6,2,208,421,0,1,1158.79999999702
36,6,7,7,0,7,1,208,421,0,1,1290.5
36,7,6,6,0,1,0,34,260,0,1,1393.60000000894
36,7,6,6,0,2,5,34,260,0,1,1326.5
36,7,6,6,0,3,4,34,260,0,1,1310.79999999702
36,7,6,6,0,4,3,34,260,0,1,1108.70000000298
36,7,6,6,0,5,2,34,260,0,1,1191.70000000298
36,7,6,6,0,6,1,34,260,0,1,1228.10000000894
36,8,5,5,0,1,0,192,423,0,1,1307.79999999702
36,8,5,5,0,2,4,192,423,0,1,1278.5
36,8,5,5,0,3,3,192,423,0,1,1159.59999999404
36,8,5,5,0,4,2,192,423,0,1,1223.90000000596
36,8,5,5,0,5,1,192,423,0,1,1243.60000000894
36,9,5,3,-2,1,0,63,235,0,1,1208.40000000596
36,9,5,3,-2,2,4,63,235,0,1,1192
36,9,5,3,-2,3,3,63,235,0,1,1244.70000000298
36,10,6,3,-3,1,2,357,535,0,1,1275.40000000596
36,10,6,3,-3,2,5,357,535,0,1,1209.10000000894
36,10,6,3,-3,3,4,357,535,0,1,1128.5
36,11,7,7,0,1,3,60,239,0,1,1055.89999999106
36,11,7,7,0,2,6,60,239,0,1,1160
36,11,7,7,0,3,5,60,239,0,1,992.09999999404
36,11,7,7,0,4,4,60,239,0,1,1127.10000000894
36,11,7,7,0,5,3,60,239,0,1,1109
36,11,7,7,0,6,2,60,239,0,1,1243.40000000596
36,11,7,7,0,7,1,60,239,0,1,1179.29999999702
36,12,6,6,0,1,0,147,341,0,1,1242.30000001192
36,12,6,6,0,2,5,147,341,0,1,1192.5
36,12,6,6,0,3,4,147,341,0,1,1175.09999999404
36,12,6,6,0,4,3,147,341,0,1,1045.10000000894
36,12,6,6,0,5,2,147,341,0,1,1111.20000000298
36,12,6,6,0,6,1,147,341,0,1,2340.59999999404
36,13,7,9,2,1,0,174,346,0,1,1092.09999999404
36,13,7,9,2,2,6,174,346,0,1,1075.89999999106
36,13,7,9,2,3,5,174,346,0,1,1257.20000000298
36,13,7,9,2,4,4,174,346,0,1,1143.70000000298
36,13,7,9,2,5,3,174,346,0,1,1275.89999999106
36,13,7,9,2,6,2,174,346,0,1,1011.90000000596
36,13,7,9,2,7,1,174,346,0,1,1208.79999999702
36,13,7,9,2,8,0,174,346,0,1,1194.79999999702
36,13,7,9,2,9,0,174,346,0,1,1177.29999999702
36,14,7,7,0,1,7,333,482,0,1,1507.69999998808
36,14,7,7,0,2,6,333,482,0,1,1208.5
36,14,7,7,0,3,5,333,482,0,1,1210.79999999702
36,14,7,7,0,4,4,333,482,0,1,1107.90000000596
36,14,7,7,0,5,3,333,482,0,1,1094.19999998808
36,14,7,7,0,6,2,333,482,0,1,1164.70000000298
36,14,7,7,0,7,1,333,482,0,1,1658.20000000298
36,15,7,7,0,1,0,297,494,0,1,1527
36,15,7,7,0,2,6,297,494,0,1,1562
36,15,7,7,0,3,5,297,494,0,1,1255.89999999106
36,15,7,7,0,4,4,297,494,0,1,1446.79999999702
36,15,7,7,0,5,3,297,494,0,1,1074.5
36,15,7,7,0,6,2,297,494,0,1,1277.09999999404
36,15,7,7,0,7,1,297,494,0,1,1142.09999999404
36,16,7,10,3,1,0,321,529,0,1,1727.5
36,16,7,10,3,2,6,321,529,0,1,1261.40000000596
36,16,7,10,3,3,5,321,529,0,1,1242
36,16,7,10,3,4,4,321,529,0,1,1141.39999999106
36,16,7,10,3,5,3,321,529,0,1,1173.79999999702
36,16,7,10,3,6,2,321,529,0,1,1414.29999999702
36,16,7,10,3,7,1,321,529,0,1,1474
36,16,7,10,3,8,0,321,529,0,1,1426.70000000298
36,16,7,10,3,9,0,321,529,0,1,1327
36,16,7,10,3,10,0,321,529,0,1,1490.5
36,17,7,5,-2,1,7,103,334,0,1,1449.20000000298
36,17,7,5,-2,2,6,103,334,0,1,1257.80000001192
36,17,7,5,-2,3,5,103,334,0,1,1174.69999998808
36,17,7,5,-2,4,4,103,334,0,1,1327.40000000596
36,17,7,5,-2,5,3,103,334,0,1,1161.20000000298
36,18,7,10,3,1,2,309,542,0,1,1492.89999999106
36,18,7,10,3,2,6,309,542,0,1,1528
36,18,7,10,3,3,5,309,542,0,1,1160.40000000596
36,18,7,10,3,4,4,309,542,0,1,1164.09999999404
36,18,7,10,3,5,3,309,542,0,1,1179
36,18,7,10,3,6,2,309,542,0,1,1292.30000001192
36,18,7,10,3,7,1,309,542,0,1,1059.5
36,18,7,10,3,8,0,309,542,0,1,1608.89999999106
36,18,7,10,3,9,0,309,542,0,1,1194.90000000596
36,18,7,10,3,10,0,309,542,0,1,1226.5
36,19,5,7,2,1,5,218,420,0,1,1298
36,19,5,7,2,2,4,218,420,0,1,1107.69999998808
36,19,5,7,2,3,3,218,420,0,1,1309.70000000298
36,19,5,7,2,4,2,218,420,0,1,1159
36,19,5,7,2,5,1,218,420,0,1,1160.29999999702
36,19,5,7,2,6,0,218,420,0,1,1108.79999999702
36,19,5,7,2,7,0,218,420,0,1,1146.80000001192
36,20,6,6,0,1,6,255,426,0,1,1274.90000000596
36,20,6,6,0,2,5,255,426,0,1,1228.40000000596
36,20,6,6,0,3,4,255,426,0,1,1175.79999999702
36,20,6,6,0,4,3,255,426,0,1,1126.20000000298
36,20,6,6,0,5,2,255,426,0,1,1291
36,20,6,6,0,6,1,255,426,0,1,1345.40000000596
36,21,7,7,0,1,0,65,284,0,1,1226.89999999106
36,21,7,7,0,2,6,65,284,0,1,1176.59999999404
36,21,7,7,0,3,5,65,284,0,1,1193.29999999702
36,21,7,7,0,4,4,65,284,0,1,1294.40000000596
36,21,7,7,0,5,3,65,284,0,1,1244
36,21,7,7,0,6,2,65,284,0,1,1524
36,21,7,7,0,7,1,65,284,0,1,1242.89999999106
36,22,6,4,-2,1,0,7,179,0,1,1294.79999999702
36,22,6,4,-2,2,5,7,179,0,1,1174.20000000298
36,22,6,4,-2,3,4,7,179,0,1,1075.79999999702
36,22,6,4,-2,4,3,7,179,0,1,1210.60000000894
36,23,7,7,0,1,2,83,255,0,1,1157.60000000894
36,23,7,7,0,2,6,83,255,0,1,1176.5
36,23,7,7,0,3,5,83,255,0,1,1176.5
36,23,7,7,0,4,4,83,255,0,1,1210.70000000298
36,23,7,7,0,5,3,83,255,0,1,1041
36,23,7,7,0,6,2,83,255,0,1,1293.89999999106
36,23,7,7,0,7,1,83,255,0,1,1124.29999999702
36,24,5,6,1,1,0,183,402,0,1,1126.89999999106
36,24,5,6,1,2,4,183,402,0,1,1108.29999999702
36,24,5,6,1,3,3,183,402,0,1,1209.5
36,24,5,6,1,4,2,183,402,0,1,1094.29999999702
36,24,5,6,1,5,1,183,402,0,1,1126.09999999404
36,24,5,6,1,6,0,183,402,0,1,1275.39999999106
36,25,5,5,0,1,5,241,446,0,1,1340.29999999702
36,25,5,5,0,2,4,241,446,0,1,1210
36,25,5,5,0,3,3,241,446,0,1,1091.79999999702
36,25,5,5,0,4,2,241,446,0,1,1026.40000000596
36,25,5,5,0,5,1,241,446,0,1,1641.10000000894
36,26,6,6,0,1,0,119,275,0,1,1814.80000001192
36,26,6,6,0,2,5,119,275,0,1,1145.09999999404
36,26,6,6,0,3,4,119,275,0,1,1261.20000000298
36,26,6,6,0,4,3,119,275,0,1,1024.70000000298
36,26,6,6,0,5,2,119,275,0,1,1109.10000000894
36,26,6,6,0,6,1,119,275,0,1,1124.70000000298
36,27,7,4,-3,1,0,179,414,0,1,1076.60000000894
36,27,7,4,-3,2,6,179,414,0,1,1278.89999999106
36,27,7,4,-3,3,5,179,414,0,1,1061
36,27,7,4,-3,4,4,179,414,0,1,1107.09999999404
36,28,6,6,0,1,3,94,278,0,1,1073.20000000298
36,28,6,6,0,2,5,94,278,0,1,1065.20000000298
36,28,6,6,0,3,4,94,278,0,1,1242.20000000298
36,28,6,6,0,4,3,94,278,0,1,1181.39999999106
36,28,6,6,0,5,2,94,278,0,1,1042.39999999106
36,28,6,6,0,6,1,94,278,0,1,1357.89999999106
36,29,6,2,-4,1,0,82,252,0,1,1143.70000000298
36,29,6,2,-4,2,5,82,252,0,1,1325
36,30,5,5,0,1,4,190,413,0,1,1295.20000000298
36,30,5,5,0,2,4,190,413,0,1,1143.60000000894
36,30,5,5,0,3,3,190,413,0,1,1157.89999999106
36,30,5,5,0,4,2,190,413,0,1,1726.79999999702
36,30,5,5,0,5,1,190,413,0,1,1093.69999998808
36,31,5,9,4,1,0,205,435,0,1,1526
36,31,5,9,4,2,4,205,435,0,1,1143.70000000298
36,31,5,9,4,3,3,205,435,0,1,1607.79999999702
36,31,5,9,4,4,2,205,435,0,1,1409.5
36,31,5,9,4,5,1,205,435,0,1,1095.09999999404
36,31,5,9,4,6,0,205,435,0,1,1573.70000000298
36,31,5,9,4,7,0,205,435,0,1,962.899999991059
36,31,5,9,4,8,0,205,435,0,1,1127.59999999404
36,31,5,9,4,9,0,205,435,0,1,1077.29999999702
36,32,6,6,0,1,6,189,413,0,1,1210.30000001192
36,32,6,6,0,2,5,189,413,0,1,1593.40000000596
36,32,6,6,0,3,4,189,413,0,1,1092.79999999702
36,32,6,6,0,4,3,189,413,0,1,1242.19999998808
36,32,6,6,0,5,2,189,413,0,1,1309.29999999702
36,32,6,6,0,6,1,189,413,0,1,1057.80000001192
36,33,6,6,0,1,0,233,429,0,1,1111.09999999404
36,33,6,6,0,2,5,233,429,0,1,961.29999999702
36,33,6,6,0,3,4,233,429,0,1,1093.09999999404
36,33,6,6,0,4,3,233,429,0,1,1173.59999999404
36,33,6,6,0,5,2,233,429,0,1,1042.79999999702
36,33,6,6,0,6,1,233,429,0,1,1060.29999999702
36,34,7,7,0,1,0,124,320,0,1,1626.39999999106
36,34,7,7,0,2,6,124,320,0,1,1122.10000000894
36,34,7,7,0,3,5,124,320,0,1,1178.39999999106
36,34,7,7,0,4,4,124,320,0,1,1111.59999999404
36,34,7,7,0,5,3,124,320,0,1,1440.70000000298
36,34,7,7,0,6,2,124,320,0,1,1209.30000001192
36,34,7,7,0,7,1,124,320,0,1,1023.70000000298
36,35,6,6,0,1,0,212,446,0,1,1210.5
36,35,6,6,0,2,5,212,446,0,1,1293.59999999404
36,35,6,6,0,3,4,212,446,0,1,1159.5
36,35,6,6,0,4,3,212,446,0,1,1028.40000000596
36,35,6,6,0,5,2,212,446,0,1,1142.90000000596
36,35,6,6,0,6,1,212,446,0,1,1091.20000000298
36,36,6,6,0,1,0,38,249,0,1,1775.90000000596
36,36,6,6,0,2,5,38,249,0,1,1026.5
36,36,6,6,0,3,4,38,249,0,1,1173.89999999106
36,36,6,6,0,4,3,38,249,0,1,1277.79999999702
36,36,6,6,0,5,2,38,249,0,1,1924.90000000596
36,36,6,6,0,6,1,38,249,0,1,928.100000008941
36,37,6,9,3,1,0,146,299,0,1,1075.30000001192
36,37,6,9,3,2,5,146,299,0,1,1125.29999999702
36,37,6,9,3,3,4,146,299,0,1,1212.09999999404
36,37,6,9,3,4,3,146,299,0,1,1160.39999999106
36,37,6,9,3,5,2,146,299,0,1,1114.39999999106
36,37,6,9,3,6,1,146,299,0,1,1477.20000000298
36,37,6,9,3,7,0,146,299,0,1,1208
36,37,6,9,3,8,0,146,299,0,1,1259.70000000298
36,37,6,9,3,9,0,146,299,0,1,1159.59999999404
36,38,7,7,0,1,7,315,527,0,1,1658.19999998808
36,38,7,7,0,2,6,315,527,0,1,1190.60000000894
36,38,7,7,0,3,5,315,527,0,1,1177
36,38,7,7,0,4,4,315,527,0,1,1076
36,38,7,7,0,5,3,315,527,0,1,1209.90000000596
36,38,7,7,0,6,2,315,527,0,1,1324.70000000298
36,38,7,7,0,7,1,315,527,0,1,1293.10000000894
36,39,5,5,0,1,0,82,237,0,1,1610.10000000894
36,39,5,5,0,2,4,82,237,0,1,1292.20000000298
36,39,5,5,0,3,3,82,237,0,1,1225.10000000894
36,39,5,5,0,4,2,82,237,0,1,1076.70000000298
36,39,5,5,0,5,1,82,237,0,1,1443.5
36,40,7,8,1,1,0,214,399,0,1,1443.20000000298
36,40,7,8,1,2,6,214,399,0,1,1209
36,40,7,8,1,3,5,214,399,0,1,1276.5
36,40,7,8,1,4,4,214,399,0,1,1644.09999999404
36,40,7,8,1,5,3,214,399,0,1,1042.5
36,40,7,8,1,6,2,214,399,0,1,1108.90000000596
36,40,7,8,1,7,1,214,399,0,1,1294.70000000298
36,40,7,8,1,8,0,214,399,0,1,1413.89999999106
36,41,5,5,0,1,5,276,438,0,1,1195
36,41,5,5,0,2,4,276,438,0,1,1207.89999999106
36,41,5,5,0,3,3,276,438,0,1,1242.30000001192
36,41,5,5,0,4,2,276,438,0,1,1258
36,41,5,5,0,5,1,276,438,0,1,1448
36,42,5,5,0,1,0,39,184,0,1,1592.59999999404
36,42,5,5,0,2,4,39,184,0,1,1361.60000000894
36,42,5,5,0,3,3,39,184,0,1,1444.09999999404
36,42,5,5,0,4,2,39,184,0,1,1224.09999999404
36,42,5,5,0,5,1,39,184,0,1,1294.20000000298
36,43,6,6,0,1,0,228,460,0,1,1378.60000000894
36,43,6,6,0,2,5,228,460,0,1,1224.30000001192
36,43,6,6,0,3,4,228,460,0,1,1410
36,43,6,6,0,4,3,228,460,0,1,1345.5
36,43,6,6,0,5,2,228,460,0,1,1308
36,43,6,6,0,6,1,228,460,0,1,1142.40000000596
36,44,6,6,0,1,0,344,567,0,1,1142
36,44,6,6,0,2,5,344,567,0,1,1093.5
36,44,6,6,0,3,4,344,567,0,1,1045.89999999106
36,44,6,6,0,4,3,344,567,0,1,1125.30000001192
36,44,6,6,0,5,2,344,567,0,1,1192.29999999702
36,44,6,6,0,6,1,344,567,0,1,1258.40000000596
36,45,6,6,0,1,0,21,202,0,1,1144.20000000298
36,45,6,6,0,2,5,21,202,0,1,961.70000000298
36,45,6,6,0,3,4,21,202,0,1,1307.60000000894
36,45,6,6,0,4,3,21,202,0,1,1076.79999999702
36,45,6,6,0,5,2,21,202,0,1,1895.79999999702
36,45,6,6,0,6,1,21,202,0,1,1189
36,46,7,8,1,1,0,343,549,0,1,1144.40000000596
36,46,7,8,1,2,6,343,549,0,1,1309.10000000894
36,46,7,8,1,3,5,343,549,0,1,1324.79999999702
36,46,7,8,1,4,4,343,549,0,1,1210.59999999404
36,46,7,8,1,5,3,343,549,0,1,1126.10000000894
36,46,7,8,1,6,2,343,549,0,1,1209.79999999702
36,46,7,8,1,7,1,343,549,0,1,1224.70000000298
36,46,7,8,1,8,0,343,549,0,1,1561.79999999702
36,47,5,8,3,1,5,332,509,0,1,1291.59999999404
36,47,5,8,3,2,4,332,509,0,1,1177.20000000298
36,47,5,8,3,3,3,332,509,0,1,1212.09999999404
36,47,5,8,3,4,2,332,509,0,1,1607.40000000596
36,47,5,8,3,5,1,332,509,0,1,1028.60000000894
36,47,5,8,3,6,0,332,509,0,1,1143.09999999404
36,47,5,8,3,7,0,332,509,0,1,1342.70000000298
36,47,5,8,3,8,0,332,509,0,1,1241.89999999106
36,48,7,7,0,1,7,67,278,0,1,1492.29999999702
36,48,7,7,0,2,6,67,278,0,1,1211
36,48,7,7,0,3,5,67,278,0,1,1226
36,48,7,7,0,4,4,67,278,0,1,1261.79999999702
36,48,7,7,0,5,3,67,278,0,1,1160.5
36,48,7,7,0,6,2,67,278,0,1,1259.29999999702
36,48,7,7,0,7,1,67,278,0,1,1193.79999999702
36,49,5,5,0,1,0,193,347,0,1,1409.10000000894
36,49,5,5,0,2,4,193,347,0,1,1359.60000000894
36,49,5,5,0,3,3,193,347,0,1,1759.40000000596
36,49,5,5,0,4,2,193,347,0,1,1112.59999999404
36,49,5,5,0,5,1,193,347,0,1,1193
36,50,5,5,0,1,0,179,377,0,1,1077.10000000894
36,50,5,5,0,2,4,179,377,0,1,1194.5
36,50,5,5,0,3,3,179,377,0,1,1125.09999999404
36,50,5,5,0,4,2,179,377,0,1,1127.60000000894
36,50,5,5,0,5,1,179,377,0,1,1126.19999998808
36,51,5,5,0,1,0,249,394,0,1,1027.40000000596
36,51,5,5,0,2,4,249,394,0,1,1010.39999999106
36,51,5,5,0,3,3,249,394,0,1,995.79999999702
36,51,5,5,0,4,2,249,394,0,1,1674.89999999106
36,51,5,5,0,5,1,249,394,0,1,1076.89999999106
36,52,7,7,0,1,0,136,297,0,1,1044.5
36,52,7,7,0,2,6,136,297,0,1,1042.79999999702
36,52,7,7,0,3,5,136,297,0,1,1144.80000001192
36,52,7,7,0,4,4,136,297,0,1,1242.60000000894
36,52,7,7,0,5,3,136,297,0,1,1758.90000000596
36,52,7,7,0,6,2,136,297,0,1,943.70000000298
36,52,7,7,0,7,1,136,297,0,1,1192
36,53,5,1,-4,1,0,96,321,0,1,1160
36,54,5,5,0,1,5,113,324,0,1,995
36,54,5,5,0,2,4,113,324,0,1,1127.89999999106
36,54,5,5,0,3,3,113,324,0,1,1126.70000000298
36,54,5,5,0,4,2,113,324,0,1,1226.40000000596
36,54,5,5,0,5,1,113,324,0,1,1026.89999999106
36,55,6,6,0,1,0,100,311,0,1,1093.10000000894
36,55,6,6,0,2,5,100,311,0,1,977.100000008941
36,55,6,6,0,3,4,100,311,0,1,961.20000000298
36,55,6,6,0,4,3,100,311,0,1,1043.90000000596
36,55,6,6,0,5,2,100,311,0,1,1042.40000000596
36,55,6,6,0,6,1,100,311,0,1,1393.20000000298
36,56,7,3,-4,1,0,43,261,0,1,1010.5
36,56,7,3,-4,2,6,43,261,0,1,1160.09999999404
36,56,7,3,-4,3,5,43,261,0,1,1042.79999999702
36,57,6,8,2,1,4,300,480,0,1,1178.70000000298
36,57,6,8,2,2,5,300,480,7,0,1225.09999999404
36,,,,,,,,,,,
36,57,6,8,2,3,4,300,480,0,1,1358
36,57,6,8,2,4,3,300,480,0,1,1260.29999999702
