participant,block_i,expected_length,real_length,lengthDiff,trial_i_within_block,next_wave_in,targetMeanColor,distractorMeanColor,clicked_monster_id,correct,rt
22,1,7,7,0,1,7,283,482,0,1,1913.5
22,1,7,7,0,2,6,283,482,0,1,1279.10000000009
22,1,7,7,0,3,5,283,482,0,1,1067.79999999981
22,1,7,7,0,4,4,283,482,0,1,1096.19999999972
22,1,7,7,0,5,3,283,482,0,1,1046
22,1,7,7,0,6,2,283,482,0,1,1039.39999999991
22,1,7,7,0,7,1,283,482,0,1,1040
22,2,5,3,-2,1,0,186,366,0,1,1374.5
22,2,5,3,-2,2,4,186,366,0,1,1434.5
22,2,5,3,-2,3,3,186,366,0,1,1054.29999999981
22,3,6,7,1,1,2,68,218,0,1,1188.60000000009
22,3,6,7,1,2,5,68,218,0,1,1150.60000000009
22,3,6,7,1,3,4,68,218,0,1,1126.20000000019
22,3,6,7,1,4,3,68,218,0,1,1385.60000000009
22,3,6,7,1,5,2,68,218,0,1,981.699999999721
22,3,6,7,1,6,1,68,218,0,1,983.5
22,3,6,7,1,7,0,68,218,0,1,1113.29999999981
22,4,7,3,-4,1,7,169,354,0,1,1194.39999999991
22,4,7,3,-4,2,6,169,354,0,1,1046.60000000009
22,4,7,3,-4,3,5,169,354,0,1,937
22,5,6,9,3,1,4,259,480,0,1,1128.60000000009
22,5,6,9,3,2,5,259,480,0,1,994.599999999627
22,5,6,9,3,3,4,259,480,0,1,1051.29999999981
22,5,6,9,3,4,3,259,480,0,1,1070.60000000009
22,5,6,9,3,5,2,259,480,0,1,973.699999999721
22,5,6,9,3,6,1,259,480,0,1,984
22,5,6,9,3,7,0,259,480,0,1,1126.39999999991
22,5,6,9,3,8,0,259,480,0,1,1073.79999999981
22,5,6,9,3,9,0,259,480,0,1,946.899999999907
22,6,6,6,0,1,6,341,569,0,1,1782.39999999991
22,6,6,6,0,2,5,341,569,0,1,1002
22,6,6,6,0,3,4,341,569,0,1,992.600000000093
22,6,6,6,0,4,3,341,569,0,1,973.600000000093
22,6,6,6,0,5,2,341,569,0,1,971.600000000093
22,6,6,6,0,6,1,341,569,0,1,916.399999999907
22,7,5,5,0,1,0,127,335,0,1,1421.39999999991
22,7,5,5,0,2,4,127,335,0,1,1018.5
22,7,5,5,0,3,3,127,335,0,1,1011.29999999981
22,7,5,5,0,4,2,127,335,0,1,1076.69999999972
22,7,5,5,0,5,1,127,335,0,1,965.600000000093
22,8,5,1,-4,1,0,133,348,0,1,1017.20000000019
22,9,6,6,0,1,6,103,271,0,1,1065.39999999991
22,9,6,6,0,2,5,103,271,0,1,1017.19999999972
22,9,6,6,0,3,4,103,271,0,1,935.699999999721
22,9,6,6,0,4,3,103,271,0,1,958.600000000093
22,9,6,6,0,5,2,103,271,0,1,918.699999999721
22,9,6,6,0,6,1,103,271,0,1,898.199999999721
22,10,5,3,-2,1,0,19,176,0,1,982.699999999721
22,10,5,3,-2,2,4,19,176,0,1,918.099999999627
22,10,5,3,-2,3,3,19,176,0,1,935.599999999627
22,11,7,7,0,1,2,81,269,0,1,975.399999999907
22,11,7,7,0,2,6,81,269,0,1,965.599999999628
22,11,7,7,0,3,5,81,269,0,1,1327.29999999981
22,11,7,7,0,4,4,81,269,0,1,967.099999999627
22,11,7,7,0,5,3,81,269,0,1,935.799999999814
22,11,7,7,0,6,2,81,269,0,1,1155.89999999991
22,11,7,7,0,7,1,81,269,0,1,827
22,12,6,8,2,1,0,96,294,0,1,1076.89999999991
22,12,6,8,2,2,5,96,294,0,1,943.5
22,12,6,8,2,3,4,96,294,0,1,810.699999999721
22,12,6,8,2,4,3,96,294,0,1,921.799999999814
22,12,6,8,2,5,2,96,294,0,1,2000.29999999981
22,12,6,8,2,6,1,96,294,0,1,873.100000000093
22,12,6,8,2,7,0,96,294,0,1,1020.79999999981
22,12,6,8,2,8,0,96,294,0,1,905.199999999721
22,13,6,6,0,1,6,110,267,0,1,958.299999999814
22,13,6,6,0,2,5,110,267,0,1,905.899999999907
22,13,6,6,0,3,4,110,267,0,1,973.200000000186
22,13,6,6,0,4,3,110,267,0,1,1016.69999999972
22,13,6,6,0,5,2,110,267,0,1,911.899999999907
22,13,6,6,0,6,1,110,267,0,1,1217
22,14,5,5,0,1,0,301,462,0,1,2087.39999999991
22,14,5,5,0,2,4,301,462,0,1,965.899999999907
22,14,5,5,0,3,3,301,462,0,1,950.399999999907
22,14,5,5,0,4,2,301,462,0,1,931.799999999814
22,14,5,5,0,5,1,301,462,0,1,881.399999999907
22,15,7,4,-3,1,0,251,457,0,1,980
22,15,7,4,-3,2,6,251,457,0,1,915.100000000093
22,15,7,4,-3,3,5,251,457,0,1,967.699999999721
22,15,7,4,-3,4,4,251,457,0,1,1412.29999999981
22,16,7,7,0,1,3,34,257,0,1,1092.89999999991
22,16,7,7,0,2,6,34,257,0,1,938.799999999814
22,16,7,7,0,3,5,34,257,0,1,1434.89999999991
22,16,7,7,0,4,4,34,257,0,1,983.5
22,16,7,7,0,5,3,34,257,0,1,930.600000000093
22,16,7,7,0,6,2,34,257,0,1,903.899999999907
22,16,7,7,0,7,1,34,257,0,1,956.299999999814
22,17,7,7,0,1,0,229,423,0,1,1043.29999999981
22,17,7,7,0,2,6,229,423,0,1,958
22,17,7,7,0,3,5,229,423,0,1,966.899999999907
22,17,7,7,0,4,4,229,423,0,1,1078.29999999981
22,17,7,7,0,5,3,229,423,0,1,917
22,17,7,7,0,6,2,229,423,0,1,1208.5
22,17,7,7,0,7,1,229,423,0,1,1027.79999999981
22,18,7,11,4,1,0,93,245,0,1,1054.39999999991
22,18,7,11,4,2,6,93,245,0,1,915.899999999907
22,18,7,11,4,3,5,93,245,0,1,896.899999999907
22,18,7,11,4,4,4,93,245,0,1,880.399999999907
22,18,7,11,4,5,3,93,245,0,1,946.100000000093
22,18,7,11,4,6,2,93,245,0,1,900.5
22,18,7,11,4,7,1,93,245,0,1,962.799999999814
22,18,7,11,4,8,0,93,245,0,1,973.5
22,18,7,11,4,9,0,93,245,0,1,1080.89999999991
22,18,7,11,4,10,0,93,245,0,1,1168.70000000019
22,18,7,11,4,11,0,93,245,0,1,987.399999999907
22,19,5,7,2,1,5,19,205,0,1,1006.89999999991
22,19,5,7,2,2,4,19,205,0,1,982.699999999721
22,19,5,7,2,3,3,19,205,0,1,1294.89999999991
22,19,5,7,2,4,2,19,205,0,1,1245.39999999991
22,19,5,7,2,5,1,19,205,0,1,930.399999999907
22,19,5,7,2,6,0,19,205,0,1,1081.79999999981
22,19,5,7,2,7,0,19,205,0,1,1044.60000000009
22,20,6,6,0,1,6,43,239,0,1,1214.39999999991
22,20,6,6,0,2,5,43,239,0,1,970.399999999907
22,20,6,6,0,3,4,43,239,0,1,965
22,20,6,6,0,4,3,43,239,0,1,969.799999999814
22,20,6,6,0,5,2,43,239,0,1,993.899999999907
22,20,6,6,0,6,1,43,239,0,1,944.199999999721
22,21,5,5,0,1,0,354,553,0,1,897.799999999814
22,21,5,5,0,2,4,354,553,0,1,1063.69999999972
22,21,5,5,0,3,3,354,553,0,1,941.599999999628
22,21,5,5,0,4,2,354,553,0,1,1022.60000000009
22,21,5,5,0,5,1,354,553,0,1,968.699999999721
22,22,7,7,0,1,0,313,489,0,1,1548.19999999972
22,22,7,7,0,2,6,313,489,0,1,951.899999999907
22,22,7,7,0,3,5,313,489,0,1,1083.89999999991
22,22,7,7,0,4,4,313,489,0,1,1119.89999999991
22,22,7,7,0,5,3,313,489,0,1,912.699999999721
22,22,7,7,0,6,2,313,489,0,1,1039.29999999981
22,22,7,7,0,7,1,313,489,0,1,969.399999999907
22,23,6,6,0,1,0,119,314,0,1,1505.79999999981
22,23,6,6,0,2,5,119,314,0,1,930.899999999907
22,23,6,6,0,3,4,119,314,0,1,975.799999999814
22,23,6,6,0,4,3,119,314,0,1,992.5
22,23,6,6,0,5,2,119,314,0,1,1033.89999999991
22,23,6,6,0,6,1,119,314,0,1,980.199999999721
22,24,5,9,4,1,0,193,394,0,1,977.899999999907
22,24,5,9,4,2,4,193,394,0,1,1008
22,24,5,9,4,3,3,193,394,0,1,993.199999999721
22,24,5,9,4,4,2,193,394,0,1,934.799999999814
22,24,5,9,4,5,1,193,394,0,1,1269.39999999991
22,24,5,9,4,6,0,193,394,0,1,931
22,24,5,9,4,7,0,193,394,0,1,1015.39999999991
22,24,5,9,4,8,0,193,394,0,1,1302.89999999991
22,24,5,9,4,9,0,193,394,0,1,989
22,25,7,7,0,1,7,318,521,0,1,1252.60000000009
22,25,7,7,0,2,6,318,521,0,1,1427.59999999963
22,25,7,7,0,3,5,318,521,0,1,1010.89999999991
22,25,7,7,0,4,4,318,521,0,1,947.199999999721
22,25,7,7,0,5,3,318,521,0,1,945.399999999907
22,25,7,7,0,6,2,318,521,0,1,1181.89999999991
22,25,7,7,0,7,1,318,521,0,1,1030.89999999991
22,26,6,2,-4,1,0,328,510,0,1,937.600000000093
22,26,6,2,-4,2,5,328,510,0,1,927.199999999721
22,27,6,3,-3,1,4,289,470,0,1,955.799999999814
22,27,6,3,-3,2,5,289,470,0,1,1359
22,27,6,3,-3,3,4,289,470,0,1,1041.79999999981
22,28,7,7,0,1,3,144,298,0,1,1270.69999999972
22,28,7,7,0,2,6,144,298,0,1,1047.89999999991
22,28,7,7,0,3,5,144,298,0,1,1003.79999999981
22,28,7,7,0,4,4,144,298,0,1,1286.79999999981
22,28,7,7,0,5,3,144,298,0,1,1035.79999999981
22,28,7,7,0,6,2,144,298,0,1,1098.60000000009
22,28,7,7,0,7,1,144,298,0,1,974.799999999814
22,29,6,6,0,1,0,20,223,0,1,1126.5
22,29,6,6,0,2,5,20,223,0,1,1061.60000000009
22,29,6,6,0,3,4,20,223,0,1,1027.69999999972
22,29,6,6,0,4,3,20,223,0,1,962.699999999721
22,29,6,6,0,5,2,20,223,0,1,1309.89999999991
22,29,6,6,0,6,1,20,223,0,1,1007.79999999981
22,30,6,6,0,1,0,136,300,0,1,1090.79999999981
22,30,6,6,0,2,5,136,300,0,1,939.699999999721
22,30,6,6,0,3,4,136,300,0,1,1003.10000000009
22,30,6,6,0,4,3,136,300,0,1,1273.69999999972
22,30,6,6,0,5,2,136,300,0,1,970.699999999721
22,30,6,6,0,6,1,136,300,0,1,1012.39999999991
22,31,5,6,1,1,0,24,229,0,1,1019.79999999981
22,31,5,6,1,2,4,24,229,0,1,900.199999999721
22,31,5,6,1,3,3,24,229,0,1,1017.79999999981
22,31,5,6,1,4,2,24,229,0,1,1386.69999999972
22,31,5,6,1,5,1,24,229,0,1,925.899999999907
22,31,5,6,1,6,0,24,229,0,1,879.5
22,32,6,6,0,1,6,252,473,0,1,1094.89999999991
22,32,6,6,0,2,5,252,473,0,1,1061
22,32,6,6,0,3,4,252,473,0,1,1006.79999999981
22,32,6,6,0,4,3,252,473,0,1,883.5
22,32,6,6,0,5,2,252,473,0,1,986.200000000186
22,32,6,6,0,6,1,252,473,0,1,1623.5
22,33,6,9,3,1,0,102,299,0,1,1270.69999999972
22,33,6,9,3,2,5,102,299,0,1,906.799999999814
22,33,6,9,3,3,4,102,299,0,1,1035
22,33,6,9,3,4,3,102,299,0,1,984.699999999721
22,33,6,9,3,5,2,102,299,0,1,833.899999999907
22,33,6,9,3,6,1,102,299,0,1,968.899999999907
22,33,6,9,3,7,0,102,299,0,1,978
22,33,6,9,3,8,0,102,299,0,1,975.899999999907
22,33,6,9,3,9,0,102,299,0,1,1059.79999999981
22,34,7,7,0,1,7,120,292,0,1,909.799999999814
22,34,7,7,0,2,6,120,292,0,1,932.399999999907
22,34,7,7,0,3,5,120,292,0,1,1082.69999999972
22,34,7,7,0,4,4,120,292,0,1,994.899999999907
22,34,7,7,0,5,3,120,292,0,1,945
22,34,7,7,0,6,2,120,292,0,1,1065.89999999991
22,34,7,7,0,7,1,120,292,0,1,1129.5
22,35,6,7,1,1,0,276,472,0,1,1099.79999999981
22,35,6,7,1,2,5,276,472,0,1,959.899999999907
22,35,6,7,1,3,4,276,472,0,1,996.899999999907
22,35,6,7,1,4,3,276,472,0,1,970.899999999907
22,35,6,7,1,5,2,276,472,0,1,1015.29999999981
22,35,6,7,1,6,1,276,472,0,1,927.899999999907
22,35,6,7,1,7,0,276,472,0,1,948.5
22,36,5,5,0,1,5,246,469,0,1,1842
22,36,5,5,0,2,4,246,469,0,1,965.899999999907
22,36,5,5,0,3,3,246,469,0,1,1166.89999999991
22,36,5,5,0,4,2,246,469,0,1,981.799999999814
22,36,5,5,0,5,1,246,469,0,1,1160
22,37,7,9,2,1,0,291,459,0,1,971
22,37,7,9,2,2,6,291,459,0,1,1359.89999999991
22,37,7,9,2,3,5,291,459,0,1,879.699999999721
22,37,7,9,2,4,4,291,459,0,1,999.899999999907
22,37,7,9,2,5,3,291,459,0,1,985.699999999721
22,37,7,9,2,6,2,291,459,0,1,1033.29999999981
22,37,7,9,2,7,1,291,459,0,1,913.699999999721
22,37,7,9,2,8,0,291,459,0,1,1035.60000000009
22,37,7,9,2,9,0,291,459,0,1,976.899999999907
22,38,7,11,4,1,7,287,513,0,1,1660.79999999981
22,38,7,11,4,2,6,287,513,0,1,949.299999999814
22,38,7,11,4,3,5,287,513,0,1,987.899999999907
22,38,7,11,4,4,4,287,513,0,1,1032.89999999991
22,38,7,11,4,5,3,287,513,0,1,973.899999999907
22,38,7,11,4,6,2,287,513,0,1,1000.19999999972
22,38,7,11,4,7,1,287,513,0,1,1079.30000000028
22,38,7,11,4,8,0,287,513,0,1,954.599999999627
22,38,7,11,4,9,0,287,513,0,1,1025.5
22,38,7,11,4,10,0,287,513,0,1,996.600000000093
22,38,7,11,4,11,0,287,513,0,1,1017
22,39,7,9,2,1,7,159,370,0,1,1067.5
22,39,7,9,2,2,6,159,370,0,1,904.299999999814
22,39,7,9,2,3,5,159,370,0,1,1172.79999999981
22,39,7,9,2,4,4,159,370,0,1,1068
22,39,7,9,2,5,3,159,370,0,1,956.899999999907
22,39,7,9,2,6,2,159,370,0,1,995.5
22,39,7,9,2,7,1,159,370,0,1,934
22,39,7,9,2,8,0,159,370,0,1,880.799999999814
22,39,7,9,2,9,0,159,370,0,1,902.399999999907
22,40,7,4,-3,1,7,30,177,0,1,1010.89999999991
22,40,7,4,-3,2,6,30,177,0,1,1239.79999999981
22,40,7,4,-3,3,5,30,177,0,1,894
22,40,7,4,-3,4,4,30,177,0,1,972.899999999907
22,41,5,1,-4,1,3,229,456,0,1,1183.39999999991
22,42,7,8,1,1,2,130,326,0,1,1839.79999999981
22,42,7,8,1,2,6,130,326,0,1,1022.89999999991
22,42,7,8,1,3,5,130,326,0,1,1672.79999999981
22,42,7,8,1,4,4,130,326,0,1,1053.79999999981
22,42,7,8,1,5,3,130,326,0,1,1058.79999999981
22,42,7,8,1,6,2,130,326,0,1,1219.79999999981
22,42,7,8,1,7,1,130,326,0,1,910.299999999814
22,42,7,8,1,8,0,130,326,0,1,971.5
22,43,5,5,0,1,5,56,237,0,1,1058
22,43,5,5,0,2,4,56,237,0,1,1331.5
22,43,5,5,0,3,3,56,237,0,1,924.399999999907
22,43,5,5,0,4,2,56,237,0,1,966.799999999814
22,43,5,5,0,5,1,56,237,0,1,954.299999999814
22,44,5,5,0,1,0,197,393,0,1,1198.29999999981
22,44,5,5,0,2,4,197,393,0,1,987.899999999907
22,44,5,5,0,3,3,197,393,0,1,931.600000000093
22,44,5,5,0,4,2,197,393,0,1,913.600000000093
22,44,5,5,0,5,1,197,393,0,1,998.600000000093
22,45,7,6,-1,1,0,353,504,0,1,1055.5
22,45,7,6,-1,2,6,353,504,0,1,1252.89999999991
22,45,7,6,-1,3,5,353,504,0,1,940.5
22,45,7,6,-1,4,4,353,504,0,1,1225.79999999981
22,45,7,6,-1,5,3,353,504,0,1,1889.69999999972
22,45,7,6,-1,6,2,353,504,0,1,1144.10000000009
22,46,6,6,0,1,1,242,391,0,1,1045.69999999972
22,46,6,6,0,2,5,242,391,0,1,1021.39999999991
22,46,6,6,0,3,4,242,391,0,1,952.899999999907
22,46,6,6,0,4,3,242,391,0,1,1021.79999999981
22,46,6,6,0,5,2,242,391,0,1,949.399999999907
22,46,6,6,0,6,1,242,391,0,1,1603
22,47,7,7,0,1,0,234,435,0,1,1020.5
22,47,7,7,0,2,6,234,435,0,1,945.899999999907
22,47,7,7,0,3,5,234,435,0,1,989.799999999814
22,47,7,7,0,4,4,234,435,0,1,1022.29999999981
22,47,7,7,0,5,3,234,435,0,1,941
22,47,7,7,0,6,2,234,435,0,1,967.699999999721
22,47,7,7,0,7,1,234,435,0,1,1019.39999999991
22,48,5,6,1,1,0,145,363,0,1,1112.89999999991
22,48,5,6,1,2,4,145,363,0,1,1004.79999999981
22,48,5,6,1,3,3,145,363,0,1,1189.29999999981
22,48,5,6,1,4,2,145,363,0,1,983.899999999907
22,48,5,6,1,5,1,145,363,0,1,970.899999999907
22,48,5,6,1,6,0,145,363,0,1,1055.19999999972
22,49,5,4,-1,1,5,118,327,0,1,972.699999999721
22,49,5,4,-1,2,4,118,327,0,1,976.399999999907
22,49,5,4,-1,3,3,118,327,0,1,974.799999999814
22,49,5,4,-1,4,2,118,327,0,1,919.299999999814
22,50,6,5,-1,1,1,249,483,0,1,1052.69999999972
22,50,6,5,-1,2,5,249,483,0,1,943.899999999907
22,50,6,5,-1,3,4,249,483,0,1,955.100000000093
22,50,6,5,-1,4,3,249,483,0,1,1044.59999999963
22,50,6,5,-1,5,2,249,483,0,1,1214.79999999981
22,51,7,5,-2,1,1,17,163,0,1,1454.89999999991
22,51,7,5,-2,2,6,17,163,0,1,1002.79999999981
22,51,7,5,-2,3,5,17,163,0,1,978.5
22,51,7,5,-2,4,4,17,163,0,1,928.899999999907
22,51,7,5,-2,5,3,17,163,0,1,1020.89999999991
22,52,5,5,0,1,2,93,242,0,1,1081.79999999981
22,52,5,5,0,2,4,93,242,0,1,954.899999999907
22,52,5,5,0,3,3,93,242,0,1,933.5
22,52,5,5,0,4,2,93,242,0,1,1339.69999999972
22,52,5,5,0,5,1,93,242,0,1,1152
22,53,5,8,3,1,0,287,511,0,1,1374.89999999991
22,53,5,8,3,2,4,287,511,0,1,1110.89999999991
22,53,5,8,3,3,3,287,511,0,1,972.799999999814
22,53,5,8,3,4,2,287,511,0,1,1367.89999999991
22,53,5,8,3,5,1,287,511,0,1,928.799999999814
22,53,5,8,3,6,0,287,511,0,1,1067.79999999981
22,53,5,8,3,7,0,287,511,0,1,1517.60000000009
22,53,5,8,3,8,0,287,511,0,1,1010.69999999972
22,54,6,5,-1,1,6,202,366,0,1,1143.89999999991
22,54,6,5,-1,2,5,202,366,0,1,1035.29999999981
22,54,6,5,-1,3,4,202,366,0,1,1007.79999999981
22,54,6,5,-1,4,3,202,366,0,1,990.899999999907
22,54,6,5,-1,5,2,202,366,0,1,935.799999999814
22,55,7,5,-2,1,1,248,447,0,1,1120.69999999972
22,55,7,5,-2,2,6,248,447,0,1,1112.79999999981
22,55,7,5,-2,3,5,248,447,0,1,1015
22,55,7,5,-2,4,4,248,447,0,1,1036.19999999972
22,55,7,5,-2,5,3,248,447,0,1,1083
22,56,5,7,2,1,2,25,204,0,1,1109.69999999972
22,56,5,7,2,2,4,25,204,0,1,958
22,56,5,7,2,3,3,25,204,0,1,1223.69999999972
22,56,5,7,2,4,2,25,204,0,1,1116
22,56,5,7,2,5,1,25,204,0,1,967.100000000093
22,56,5,7,2,6,0,25,204,0,1,1040
22,56,5,7,2,7,0,25,204,0,1,1085.69999999972
22,57,5,5,0,1,5,134,329,0,1,1560.79999999981
22,57,5,5,0,2,4,134,329,0,1,1016.89999999991
22,57,5,5,0,3,3,134,329,0,1,1085.69999999972
22,57,5,5,0,4,2,134,329,0,1,1043.89999999991
22,57,5,5,0,5,1,134,329,0,1,1164.89999999991
22,58,6,6,0,1,0,348,559,0,1,955.600000000093
22,58,6,6,0,2,5,348,559,0,1,1046.70000000019
22,58,6,6,0,3,4,348,559,0,1,971.600000000093
22,58,6,6,0,4,3,348,559,0,1,1487
22,58,6,6,0,5,2,348,559,0,1,1059.5
22,58,6,6,0,6,1,348,559,0,1,1109.89999999991
22,59,7,8,1,1,0,297,523,0,1,1061.79999999981
22,59,7,8,1,2,6,297,523,0,1,1012.89999999991
22,59,7,8,1,3,5,297,523,0,1,1037.89999999991
22,59,7,8,1,4,4,297,523,0,1,1687.29999999981
22,59,7,8,1,5,3,297,523,0,1,900.799999999814
22,59,7,8,1,6,2,297,523,0,1,1046.79999999981
22,59,7,8,1,7,1,297,523,0,1,967.899999999907
22,59,7,8,1,8,0,297,523,0,1,1039.39999999991
22,60,7,7,0,1,7,50,222,0,1,1148.89999999991
22,60,7,7,0,2,6,50,222,0,1,1051.29999999981
22,60,7,7,0,3,5,50,222,0,1,1070.39999999991
22,60,7,7,0,4,4,50,222,0,1,962.899999999907
22,60,7,7,0,5,3,50,222,0,1,999.5
22,60,7,7,0,6,2,50,222,0,1,1743.79999999981
22,60,7,7,0,7,1,50,222,0,1,973.399999999907
22,61,6,10,4,1,0,286,506,0,1,1117.39999999991
22,61,6,10,4,2,5,286,506,0,1,972.5
22,61,6,10,4,3,4,286,506,0,1,1132.5
22,61,6,10,4,4,3,286,506,0,1,1121.39999999991
22,61,6,10,4,5,2,286,506,0,1,1052
22,61,6,10,4,6,1,286,506,0,1,1136.39999999991
22,61,6,10,4,7,0,286,506,0,1,1031.10000000009
22,61,6,10,4,8,0,286,506,0,1,934.899999999907
22,61,6,10,4,9,0,286,506,0,1,996.5
22,61,6,10,4,10,0,286,506,0,1,1106.89999999991
22,62,5,5,0,1,5,145,326,0,1,1007.79999999981
22,62,5,5,0,2,4,145,326,0,1,1070.10000000009
22,62,5,5,0,3,3,145,326,0,1,1033.19999999972
22,62,5,5,0,4,2,145,326,0,1,1060.89999999991
22,62,5,5,0,5,1,145,326,0,1,989.399999999907
22,63,6,6,0,1,0,154,315,0,1,1036.89999999991
22,63,6,6,0,2,5,154,315,0,1,1062.5
22,63,6,6,0,3,4,154,315,0,1,916.199999999721
22,63,6,6,0,4,3,154,315,0,1,945.899999999907
22,63,6,6,0,5,2,154,315,0,1,1244.29999999981
22,63,6,6,0,6,1,154,315,0,1,949.799999999814
22,64,5,5,0,1,0,110,264,0,1,1084.39999999991
22,64,5,5,0,2,4,110,264,0,1,942.799999999814
22,64,5,5,0,3,3,110,264,0,1,1003.29999999981
22,64,5,5,0,4,2,110,264,0,1,1039.89999999991
22,64,5,5,0,5,1,110,264,0,1,1343.60000000009
22,65,5,2,-3,1,0,44,257,0,1,1056.79999999981
22,65,5,2,-3,2,4,44,257,0,1,946.399999999907
22,66,7,7,0,1,3,59,257,0,1,991.799999999814
22,66,7,7,0,2,6,59,257,0,1,915.5
22,66,7,7,0,3,5,59,257,0,1,1128.89999999991
22,66,7,7,0,4,4,59,257,0,1,855.600000000093
22,66,7,7,0,5,3,59,257,0,1,1143.89999999991
22,66,7,7,0,6,2,59,257,0,1,1328.29999999981
22,66,7,7,0,7,1,59,257,0,1,966
22,67,6,4,-2,1,0,269,440,0,1,972.399999999907
22,67,6,4,-2,2,5,269,440,0,1,866.600000000093
22,67,6,4,-2,3,4,269,440,0,1,1015.89999999991
22,67,6,4,-2,4,3,269,440,0,1,1062
22,68,5,5,0,1,2,65,221,0,1,977.399999999907
22,68,5,5,0,2,4,65,221,0,1,946
22,68,5,5,0,3,3,65,221,0,1,1104.79999999981
22,68,5,5,0,4,2,65,221,0,1,989.899999999907
22,68,5,5,0,5,1,65,221,0,1,1506.79999999981
22,69,7,10,3,1,0,57,207,0,1,958.399999999907
22,69,7,10,3,2,6,57,207,0,1,1081.60000000009
22,69,7,10,3,3,5,57,207,0,1,908.699999999721
22,69,7,10,3,4,4,57,207,0,1,1021.29999999981
22,69,7,10,3,5,3,57,207,0,1,872.799999999814
22,69,7,10,3,6,2,57,207,0,1,1058.39999999991
22,69,7,10,3,7,1,57,207,0,1,995.899999999907
22,69,7,10,3,8,0,57,207,0,1,973.899999999907
22,69,7,10,3,9,0,57,207,0,1,985
22,69,7,10,3,10,0,57,207,0,1,968.799999999814
22,70,5,5,0,1,5,67,233,0,1,1069.10000000009
22,70,5,5,0,2,4,67,233,0,1,965.899999999907
22,70,5,5,0,3,3,67,233,0,1,958.799999999814
22,70,5,5,0,4,2,67,233,0,1,981.799999999814
22,70,5,5,0,5,1,67,233,0,1,1009.79999999981
22,71,7,7,0,1,0,122,288,0,1,1004.89999999991
22,71,7,7,0,2,6,122,288,0,1,988.799999999814
22,71,7,7,0,3,5,122,288,0,1,1069.60000000009
22,71,7,7,0,4,4,122,288,0,1,951.700000000186
22,71,7,7,0,5,3,122,288,0,1,988.799999999814
22,71,7,7,0,6,2,122,288,0,1,995.799999999814
22,71,7,7,0,7,1,122,288,0,1,979.899999999907
22,72,5,5,0,1,0,284,435,0,1,1086.60000000009
22,72,5,5,0,2,4,284,435,0,1,1042.79999999981
22,72,5,5,0,3,3,284,435,0,1,1469.89999999991
22,72,5,5,0,4,2,284,435,0,1,988.600000000093
22,72,5,5,0,5,1,284,435,0,1,986.699999999721
22,73,6,6,0,1,0,278,494,0,1,933.899999999907
22,73,6,6,0,2,5,278,494,0,1,1063.29999999981
22,73,6,6,0,3,4,278,494,0,1,981
22,73,6,6,0,4,3,278,494,0,1,966
22,73,6,6,0,5,2,278,494,0,1,912.899999999907
22,73,6,6,0,6,1,278,494,0,1,1179.89999999991
22,74,5,5,0,1,0,316,511,0,1,977.600000000093
22,74,5,5,0,2,4,316,511,0,1,1266.5
22,74,5,5,0,3,3,316,511,0,1,898
22,74,5,5,0,4,2,316,511,0,1,929.799999999814
22,74,5,5,0,5,1,316,511,0,1,930.699999999721
22,75,7,7,0,1,0,148,306,0,1,1230.39999999991
22,75,7,7,0,2,6,148,306,0,1,886.799999999814
22,75,7,7,0,3,5,148,306,0,1,1123.69999999972
22,75,7,7,0,4,4,148,306,0,1,953.799999999814
22,75,7,7,0,5,3,148,306,0,1,976.399999999907
22,75,7,7,0,6,2,148,306,0,1,829.699999999721
22,75,7,7,0,7,1,148,306,0,1,975.899999999907
22,76,5,2,-3,1,0,77,305,0,1,1281
22,76,5,2,-3,2,4,77,305,0,1,1150.89999999991
22,77,5,4,-1,1,3,49,270,0,1,976.5
22,77,5,4,-1,2,4,49,270,0,1,899.600000000093
22,77,5,4,-1,3,3,49,270,0,1,972
22,77,5,4,-1,4,2,49,270,0,1,857.699999999721
22,78,7,3,-4,1,1,199,410,0,1,1170.39999999991
22,78,7,3,-4,2,6,199,410,0,1,907.699999999721
22,78,7,3,-4,3,5,199,410,0,1,989.699999999721
22,79,6,6,0,1,4,312,533,0,1,1033.39999999991
22,79,6,6,0,2,5,312,533,0,1,1176.79999999981
22,79,6,6,0,3,4,312,533,0,1,941.399999999907
22,79,6,6,0,4,3,312,533,0,1,1080.10000000009
22,79,6,6,0,5,2,312,533,0,1,933.899999999907
22,79,6,6,0,6,1,312,533,0,1,992.399999999907
22,80,5,5,0,1,0,307,504,0,1,1549.89999999991
22,80,5,5,0,2,4,307,504,0,1,845.899999999907
22,80,5,5,0,3,3,307,504,0,1,981.5
22,80,5,5,0,4,2,307,504,0,1,1007.29999999981
22,80,5,5,0,5,1,307,504,0,1,989.899999999907
22,81,6,6,0,1,0,80,262,0,1,1194.69999999972
22,81,6,6,0,2,5,80,262,0,1,992.799999999814
22,81,6,6,0,3,4,80,262,0,1,886.899999999907
22,81,6,6,0,4,3,80,262,0,1,1216.39999999991
22,81,6,6,0,5,2,80,262,0,1,881
22,81,6,6,0,6,1,80,262,0,1,1026.69999999972
22,82,7,7,0,1,0,53,211,0,1,1024.79999999981
22,82,7,7,0,2,6,53,211,0,1,947.299999999814
22,82,7,7,0,3,5,53,211,0,1,954.100000000093
22,82,7,7,0,4,4,53,211,0,1,1218.60000000009
22,82,7,7,0,5,3,53,211,0,1,988.399999999907
22,82,7,7,0,6,2,53,211,0,1,864.899999999907
22,82,7,7,0,7,1,53,211,0,1,902
22,83,6,3,-3,1,0,26,248,0,1,879.299999999814
22,83,6,3,-3,2,5,26,248,0,1,932.799999999814
22,83,6,3,-3,3,4,26,248,0,1,1157.89999999991
22,84,6,2,-4,1,3,293,489,0,1,1332.89999999991
22,84,6,2,-4,2,5,293,489,0,1,1044.69999999972
22,85,6,4,-2,1,4,9,177,0,1,1143.60000000009
22,85,6,4,-2,2,5,9,177,0,1,1095.79999999981
22,85,6,4,-2,3,4,9,177,0,1,985.799999999814
22,85,6,4,-2,4,3,9,177,0,1,935.899999999907
22,86,5,9,4,1,2,134,336,0,1,1403.79999999981
22,86,5,9,4,2,4,134,336,0,1,1471.59999999963
22,86,5,9,4,3,3,134,336,0,1,934.600000000093
22,86,5,9,4,4,2,134,336,0,1,1823.20000000019
22,86,5,9,4,5,1,134,336,0,1,906.200000000186
22,86,5,9,4,6,0,134,336,0,1,1100.39999999991
22,86,5,9,4,7,0,134,336,0,1,1063.5
22,86,5,9,4,8,0,134,336,0,1,1037.10000000009
22,86,5,9,4,9,0,134,336,0,1,1529
22,87,6,10,4,1,6,15,166,0,1,983.399999999907
22,87,6,10,4,2,5,15,166,0,1,1014.79999999981
22,87,6,10,4,3,4,15,166,0,1,1038.5
22,87,6,10,4,4,3,15,166,0,1,947.399999999907
22,87,6,10,4,5,2,15,166,0,1,1111.79999999981
22,87,6,10,4,6,1,15,166,0,1,1094.89999999991
22,87,6,10,4,7,0,15,166,0,1,944.600000000093
22,87,6,10,4,8,0,15,166,0,1,1158.29999999981
22,87,6,10,4,9,0,15,166,0,1,955.100000000093
22,87,6,10,4,10,0,15,166,0,1,976.799999999814
22,88,5,5,0,1,5,41,261,0,1,1014.5
22,88,5,5,0,2,4,41,261,0,1,1041.29999999981
22,88,5,5,0,3,3,41,261,0,1,908.899999999907
22,88,5,5,0,4,2,41,261,0,1,916.600000000093
22,88,5,5,0,5,1,41,261,0,1,889.399999999907
22,89,7,7,0,1,0,232,439,0,1,980.799999999814
22,89,7,7,0,2,6,232,439,0,1,879.299999999814
22,89,7,7,0,3,5,232,439,0,1,915.899999999907
22,89,7,7,0,4,4,232,439,0,1,1135.29999999981
22,89,7,7,0,5,3,232,439,0,1,1286.79999999981
22,89,7,7,0,6,2,232,439,0,1,997.199999999721
22,89,7,7,0,7,1,232,439,0,1,1016.5
22,90,7,7,0,1,0,37,194,0,1,1296.20000000019
22,90,7,7,0,2,6,37,194,0,1,876.200000000186
22,90,7,7,0,3,5,37,194,0,1,1025.5
22,90,7,7,0,4,4,37,194,0,1,1112.89999999991
22,90,7,7,0,5,3,37,194,0,1,1045
22,90,7,7,0,6,2,37,194,0,1,1089.89999999991
22,90,7,7,0,7,1,37,194,0,1,1091.79999999981
22,91,7,6,-1,1,0,305,538,0,1,985.799999999814
22,91,7,6,-1,2,6,305,538,0,1,1011.19999999972
22,91,7,6,-1,3,5,305,538,0,1,1029.89999999991
22,91,7,6,-1,4,4,305,538,0,1,1056.79999999981
22,91,7,6,-1,5,3,305,538,0,1,1022.39999999991
22,91,7,6,-1,6,2,305,538,0,1,1038.39999999991
22,92,5,8,3,1,1,320,511,0,1,983.5
22,92,5,8,3,2,4,320,511,0,1,1051.39999999991
22,92,5,8,3,3,3,320,511,0,1,1039.89999999991
22,92,5,8,3,4,2,320,511,0,1,974.199999999721
22,92,5,8,3,5,1,320,511,0,1,961.699999999721
22,92,5,8,3,6,0,320,511,0,1,1026.60000000009
22,92,5,8,3,7,0,320,511,0,1,1163.89999999991
22,92,5,8,3,8,0,320,511,0,1,1531.60000000009
22,93,6,6,0,1,6,128,283,0,1,1275.69999999972
22,93,6,6,0,2,5,128,283,0,1,1004.89999999991
22,93,6,6,0,3,4,128,283,0,1,1083.69999999972
22,93,6,6,0,4,3,128,283,0,1,993.899999999907
22,93,6,6,0,5,2,128,283,0,1,1041.89999999991
22,93,6,6,0,6,1,128,283,0,1,1088.29999999981
22,94,7,10,3,1,0,278,495,0,1,1159.79999999981
22,94,7,10,3,2,6,278,495,0,1,1040.89999999991
22,94,7,10,3,3,5,278,495,0,1,928.5
22,94,7,10,3,4,4,278,495,0,1,1014.39999999991
22,94,7,10,3,5,3,278,495,0,1,1065.29999999981
22,94,7,10,3,6,2,278,495,0,1,1034.10000000009
22,94,7,10,3,7,1,278,495,0,1,939.699999999721
22,94,7,10,3,8,0,278,495,0,1,1045.89999999991
22,94,7,10,3,9,0,278,495,0,1,1025.79999999981
22,94,7,10,3,10,0,278,495,0,1,1077
22,95,6,8,2,1,6,293,443,0,1,956.899999999907
22,95,6,8,2,2,5,293,443,0,1,1034.39999999991
22,95,6,8,2,3,4,293,443,0,1,1028.60000000009
22,95,6,8,2,4,3,293,443,0,1,1044.89999999991
22,95,6,8,2,5,2,293,443,0,1,1072.89999999991
22,95,6,8,2,6,1,293,443,0,1,1018.89999999991
22,95,6,8,2,7,0,293,443,0,1,1070.60000000009
22,95,6,8,2,8,0,293,443,0,1,1124.10000000009
22,96,6,6,0,1,6,359,572,0,1,1041.89999999991
22,96,6,6,0,2,5,359,572,0,1,1389.80000000028
22,96,6,6,0,3,4,359,572,0,1,1031.60000000009
22,96,6,6,0,4,3,359,572,0,1,1042.20000000019
22,96,6,6,0,5,2,359,572,0,1,985.299999999814
22,96,6,6,0,6,1,359,572,0,1,982.299999999814
27,1,7,3,-4,1,7,315,497,0,1,1617.19999998808
27,1,7,3,-4,2,6,315,497,0,1,1253.19999998808
27,1,7,3,-4,3,5,315,497,0,1,1388.80000001192
27,2,6,5,-1,1,4,256,431,0,1,1320.89999997616
27,2,6,5,-1,2,5,256,431,0,1,1104.69999998808
27,2,6,5,-1,3,4,256,431,0,1,1293
27,2,6,5,-1,4,3,256,431,0,1,1161
27,2,6,5,-1,5,2,256,431,0,1,1240.79999995232
27,3,6,6,0,1,1,92,249,0,1,1205.5
27,3,6,6,0,2,5,92,249,0,1,1556.30000001192
27,3,6,6,0,3,4,92,249,0,1,1305.09999996424
27,3,6,6,0,4,3,92,249,0,1,1143.89999997616
27,3,6,6,0,5,2,92,249,0,1,1676.80000001192
27,3,6,6,0,6,1,92,249,0,1,1073.20000004768
27,4,5,8,3,1,0,278,462,0,1,1526.79999995232
27,4,5,8,3,2,4,278,462,0,1,1594
27,4,5,8,3,3,3,278,462,0,1,1106.5
27,4,5,8,3,4,2,278,462,0,1,1243.20000004768
27,4,5,8,3,5,1,278,462,0,1,1394
27,4,5,8,3,6,0,278,462,0,1,1422.90000003576
27,4,5,8,3,7,0,278,462,0,1,1472.10000002384
27,4,5,8,3,8,0,278,462,0,1,1189.5
27,5,7,10,3,1,7,270,429,0,1,1409.80000001192
27,5,7,10,3,2,6,270,429,0,1,1160.69999998808
27,5,7,10,3,3,5,270,429,0,1,1206.5
27,5,7,10,3,4,4,270,429,0,1,1476.69999998808
27,5,7,10,3,5,3,270,429,0,1,1409.80000001192
27,5,7,10,3,6,2,270,429,0,1,1194.5
27,5,7,10,3,7,1,270,429,0,1,1555.59999996424
27,5,7,10,3,8,0,270,429,0,1,1157.29999995232
27,5,7,10,3,9,0,270,429,0,1,1290.19999998808
27,5,7,10,3,10,0,270,429,0,1,1343.80000001192
27,6,7,11,4,1,7,11,225,0,1,1460.09999996424
27,6,7,11,4,2,6,11,225,0,1,1076.89999997616
27,6,7,11,4,3,5,11,225,0,1,1438.39999997616
27,6,7,11,4,4,4,11,225,0,1,1639.10000002384
27,6,7,11,4,5,3,11,225,0,1,1339.90000003576
27,6,7,11,4,6,2,11,225,0,1,1305.5
27,6,7,11,4,7,1,11,225,0,1,1189.5
27,6,7,11,4,8,0,11,225,0,1,1294.60000002384
27,6,7,11,4,9,0,11,225,0,1,1193
27,6,7,11,4,10,0,11,225,0,1,1339.89999997616
27,6,7,11,4,11,0,11,225,0,1,1173
27,7,7,7,0,1,7,228,410,0,1,1423
27,7,7,7,0,2,6,228,410,0,1,1159.80000001192
27,7,7,7,0,3,5,228,410,0,1,1227.40000003576
27,7,7,7,0,4,4,228,410,0,1,973.5
27,7,7,7,0,5,3,228,410,0,1,1687.80000001192
27,7,7,7,0,6,2,228,410,0,1,1173.69999998808
27,7,7,7,0,7,1,228,410,0,1,1156
27,8,7,7,0,1,0,320,498,0,1,1206.19999998808
27,8,7,7,0,2,6,320,498,0,1,1176.69999998808
27,8,7,7,0,3,5,320,498,0,1,1110.19999998808
27,8,7,7,0,4,4,320,498,0,1,1224
27,8,7,7,0,5,3,320,498,0,1,1154.10000002384
27,8,7,7,0,6,2,320,498,0,1,1155.69999998808
27,8,7,7,0,7,1,320,498,0,1,1409.89999997616
27,9,6,6,0,1,0,72,230,0,1,1327.19999998808
27,9,6,6,0,2,5,72,230,0,1,1175.90000003576
27,9,6,6,0,3,4,72,230,0,1,1223.5
27,9,6,6,0,4,3,72,230,0,1,1357
27,9,6,6,0,5,2,72,230,0,1,1256.30000001192
27,9,6,6,0,6,1,72,230,0,1,1293.5
27,10,5,3,-2,1,0,27,228,0,1,1076.69999998808
27,10,5,3,-2,2,4,27,228,0,1,1189.90000003576
27,10,5,3,-2,3,3,27,228,0,1,1190
27,11,6,9,3,1,2,300,509,0,1,1139.30000001192
27,11,6,9,3,2,5,300,509,0,1,1277
27,11,6,9,3,3,4,300,509,0,1,1127.10000002384
27,11,6,9,3,4,3,300,509,0,1,1274
27,11,6,9,3,5,2,300,509,0,1,1222.80000001192
27,11,6,9,3,6,1,300,509,0,1,956.100000023842
27,11,6,9,3,7,0,300,509,0,1,1026.40000003576
27,11,6,9,3,8,0,300,509,0,1,1089
27,11,6,9,3,9,0,300,509,0,1,1139.80000001192
27,12,6,8,2,1,6,314,477,0,1,1805.5
27,12,6,8,2,2,5,314,477,0,1,1406.90000003576
27,12,6,8,2,3,4,314,477,0,1,1143.30000001192
27,12,6,8,2,4,3,314,477,0,1,1210.19999998808
27,12,6,8,2,5,2,314,477,0,1,1006.89999997616
27,12,6,8,2,6,1,314,477,0,1,2704.5
27,12,6,8,2,7,0,314,477,0,1,1305.79999995232
27,12,6,8,2,8,0,314,477,0,1,1143
27,13,7,7,0,1,7,318,483,0,1,1160.39999997616
27,13,7,7,0,2,6,318,483,0,1,1207.39999997616
27,13,7,7,0,3,5,318,483,0,1,1372.80000001192
27,13,7,7,0,4,4,318,483,0,1,1539.60000002384
27,13,7,7,0,5,3,318,483,0,1,1176.60000002384
27,13,7,7,0,6,2,318,483,0,1,1309.79999995232
27,13,7,7,0,7,1,318,483,0,1,1110.60000002384
27,14,6,6,0,1,0,338,573,0,1,1356.79999995232
27,14,6,6,0,2,5,338,573,0,1,1206.5
27,14,6,6,0,3,4,338,573,0,1,1321.59999996424
27,14,6,6,0,4,3,338,573,0,1,1276.60000002384
27,14,6,6,0,5,2,338,573,0,1,1427.10000002384
27,14,6,6,0,6,1,338,573,0,1,1276.80000001192
27,15,5,5,0,1,0,127,285,0,1,1672.19999998808
27,15,5,5,0,2,4,127,285,0,1,1357.09999996424
27,15,5,5,0,3,3,127,285,0,1,1156
27,15,5,5,0,4,2,127,285,0,1,1089.5
27,15,5,5,0,5,1,127,285,0,1,1377.39999997616
27,16,6,6,0,1,0,293,491,0,1,1260.10000002384
27,16,6,6,0,2,5,293,491,0,1,1206.40000003576
27,16,6,6,0,3,4,293,491,0,1,1404.80000001192
27,16,6,6,0,4,3,293,491,0,1,1323
27,16,6,6,0,5,2,293,491,0,1,1327
27,16,6,6,0,6,1,293,491,0,1,1376.80000001192
27,17,5,5,0,1,0,360,512,0,1,1322.60000002384
27,17,5,5,0,2,4,360,512,0,1,1189.10000002384
27,17,5,5,0,3,3,360,512,0,1,1026
27,17,5,5,0,4,2,360,512,0,1,1460
27,17,5,5,0,5,1,360,512,0,1,1172.59999996424
27,18,6,2,-4,1,0,271,437,0,1,1260.40000003576
27,18,6,2,-4,2,5,271,437,0,1,1060.5
27,19,5,5,0,1,4,302,481,0,1,1038.89999997616
27,19,5,5,0,2,4,302,481,0,1,1173.90000003576
27,19,5,5,0,3,3,302,481,0,1,1123
27,19,5,5,0,4,2,302,481,0,1,1327.5
27,19,5,5,0,5,1,302,481,0,1,1176.30000001192
27,20,6,6,0,1,0,196,348,0,1,1306.5
27,20,6,6,0,2,5,196,348,0,1,1186.60000002384
27,20,6,6,0,3,4,196,348,0,1,1172.19999998808
27,20,6,6,0,4,3,196,348,0,1,1427.40000003576
27,20,6,6,0,5,2,196,348,0,1,1572.29999995232
27,20,6,6,0,6,1,196,348,0,1,1338
27,21,5,7,2,1,0,95,280,0,1,1177.09999996424
27,21,5,7,2,2,4,95,280,0,1,1193
27,21,5,7,2,3,3,95,280,0,1,1140.19999998808
27,21,5,7,2,4,2,95,280,0,1,1423.09999996424
27,21,5,7,2,5,1,95,280,0,1,1356.69999998808
27,21,5,7,2,6,0,95,280,0,1,1156.89999997616
27,21,5,7,2,7,0,95,280,0,1,1122.30000001192
27,22,7,7,0,1,7,307,498,0,1,1910.59999996424
27,22,7,7,0,2,6,307,498,0,1,1239.19999998808
27,22,7,7,0,3,5,307,498,0,1,1327
27,22,7,7,0,4,4,307,498,0,1,1293.5
27,22,7,7,0,5,3,307,498,0,1,993.300000011921
27,22,7,7,0,6,2,307,498,0,1,1056.29999995232
27,22,7,7,0,7,1,307,498,0,1,1090.29999995232
27,23,5,1,-4,1,0,273,444,0,1,1105.60000002384
27,24,6,6,0,1,6,156,333,0,1,1293.80000001192
27,24,6,6,0,2,5,156,333,0,1,2160.60000002384
27,24,6,6,0,3,4,156,333,0,1,1222.40000003576
27,24,6,6,0,4,3,156,333,0,1,1060.40000003576
27,24,6,6,0,5,2,156,333,0,1,1011
27,24,6,6,0,6,1,156,333,0,1,1507.70000004768
27,25,7,7,0,1,0,313,527,0,1,1338.89999997616
27,25,7,7,0,2,6,313,527,0,1,1572
27,25,7,7,0,3,5,313,527,0,1,1178
27,25,7,7,0,4,4,313,527,0,1,1227.60000002384
27,25,7,7,0,5,3,313,527,0,1,1193.39999997616
27,25,7,7,0,6,2,313,527,0,1,1072
27,25,7,7,0,7,1,313,527,0,1,1271.90000003576
27,26,6,5,-1,1,0,140,353,0,1,1239.30000001192
27,26,6,5,-1,2,5,140,353,0,1,1077
27,26,6,5,-1,3,4,140,353,0,1,1143.39999997616
27,26,6,5,-1,4,3,140,353,0,1,1223.69999998808
27,26,6,5,-1,5,2,140,353,0,1,1139.69999998808
27,27,6,3,-3,1,1,76,259,0,1,1105.79999995232
27,27,6,3,-3,2,5,76,259,0,1,1326.80000001192
27,27,6,3,-3,3,4,76,259,0,1,1110.89999997616
27,28,7,7,0,1,3,281,482,0,1,1206.69999998808
27,28,7,7,0,2,6,281,482,0,1,1223.69999998808
27,28,7,7,0,3,5,281,482,0,1,1105.39999997616
27,28,7,7,0,4,4,281,482,0,1,1226.69999998808
27,28,7,7,0,5,3,281,482,0,1,1201.89999997616
27,28,7,7,0,6,2,281,482,0,1,1732.29999995232
27,28,7,7,0,7,1,281,482,0,1,1305.80000001192
27,29,6,3,-3,1,0,6,158,0,1,1771
27,29,6,3,-3,2,5,6,158,0,1,1297.10000002384
27,29,6,3,-3,3,4,6,158,0,1,1551.60000002384
27,30,5,5,0,1,3,229,448,0,1,1206.20000004768
27,30,5,5,0,2,4,229,448,0,1,1123.19999998808
27,30,5,5,0,3,3,229,448,0,1,1577.5
27,30,5,5,0,4,2,229,448,0,1,1189.59999996424
27,30,5,5,0,5,1,229,448,0,1,1310.30000001192
27,31,7,7,0,1,0,73,224,0,1,1377.39999997616
27,31,7,7,0,2,6,73,224,0,1,1010.19999998808
27,31,7,7,0,3,5,73,224,0,1,1090.89999997616
27,31,7,7,0,4,4,73,224,0,1,1173.59999996424
27,31,7,7,0,5,3,73,224,0,1,1205.29999995232
27,31,7,7,0,6,2,73,224,0,1,1094.30000001192
27,31,7,7,0,7,1,73,224,0,1,960.700000047684
27,32,7,6,-1,1,0,353,581,0,1,1106.30000001192
27,32,7,6,-1,2,6,353,581,0,1,1104.30000001192
27,32,7,6,-1,3,5,353,581,0,1,1038.79999995232
27,32,7,6,-1,4,4,353,581,0,1,1110.90000003576
27,32,7,6,-1,5,3,353,581,0,1,1060.19999998808
27,32,7,6,-1,6,2,353,581,0,1,1290.30000001192
27,33,6,6,0,1,1,125,330,0,1,1170.89999997616
27,33,6,6,0,2,5,125,330,0,1,1227.30000001192
27,33,6,6,0,3,4,125,330,0,1,1210.30000001192
27,33,6,6,0,4,3,125,330,0,1,1060.30000001192
27,33,6,6,0,5,2,125,330,0,1,1656.5
27,33,6,6,0,6,1,125,330,0,1,1094
27,34,7,7,0,1,0,64,280,0,1,1056.5
27,34,7,7,0,2,6,64,280,0,1,1189
27,34,7,7,0,3,5,64,280,0,1,1039.30000001192
27,34,7,7,0,4,4,64,280,0,1,993.5
27,34,7,7,0,5,3,64,280,0,1,1055.20000004768
27,34,7,7,0,6,2,64,280,0,1,1105.19999998808
27,34,7,7,0,7,1,64,280,0,1,1106.80000001192
27,35,7,7,0,1,0,171,400,0,1,1410.30000001192
27,35,7,7,0,2,6,171,400,0,1,1210.19999998808
27,35,7,7,0,3,5,171,400,0,1,1156.20000004768
27,35,7,7,0,4,4,171,400,0,1,1256.40000003576
27,35,7,7,0,5,3,171,400,0,1,1122.89999997616
27,35,7,7,0,6,2,171,400,0,1,1226
27,35,7,7,0,7,1,171,400,0,1,1077.20000004768
27,36,7,3,-4,1,0,66,274,0,1,1357.09999996424
27,36,7,3,-4,2,6,66,274,0,1,1222.40000003576
27,36,7,3,-4,3,5,66,274,0,1,1372.40000003576
27,37,7,7,0,1,4,167,374,0,1,1388.79999995232
27,37,7,7,0,2,6,167,374,0,1,1744.10000002384
27,37,7,7,0,3,5,167,374,0,1,1222.89999997616
27,37,7,7,0,4,4,167,374,0,1,1477.20000004768
27,37,7,7,0,5,3,167,374,0,1,1010.40000003576
27,37,7,7,0,6,2,167,374,0,1,1390
27,37,7,7,0,7,1,167,374,0,1,1156.5
27,38,7,7,0,1,0,329,538,0,1,1773.79999995232
27,38,7,7,0,2,6,329,538,0,1,1657.5
27,38,7,7,0,3,5,329,538,0,1,1106.69999998808
27,38,7,7,0,4,4,329,538,0,1,1261.19999998808
27,38,7,7,0,5,3,329,538,0,1,1142.79999995232
27,38,7,7,0,6,2,329,538,0,1,1221.80000001192
27,38,7,7,0,7,1,329,538,0,1,1056.39999997616
27,39,5,5,0,1,0,245,431,0,1,1106.39999997616
27,39,5,5,0,2,4,245,431,0,1,1160.5
27,39,5,5,0,3,3,245,431,0,1,1377.09999996424
27,39,5,5,0,4,2,245,431,0,1,1407.69999998808
27,39,5,5,0,5,1,245,431,0,1,1044.40000003576
27,40,5,1,-4,1,0,66,293,0,1,1206.30000001192
27,41,5,5,0,1,5,307,474,0,1,1405.69999998808
27,41,5,5,0,2,4,307,474,0,1,1472.5
27,41,5,5,0,3,3,307,474,0,1,1356.39999997616
27,41,5,5,0,4,2,307,474,0,1,1209.39999997616
27,41,5,5,0,5,1,307,474,0,1,1094.30000001192
27,42,5,3,-2,1,0,3,166,0,1,1273.60000002384
27,42,5,3,-2,2,4,3,166,0,1,1106.89999997616
27,42,5,3,-2,3,3,3,166,0,1,1006.30000001192
27,43,5,5,0,1,2,60,242,0,1,1194.30000001192
27,43,5,5,0,2,4,60,242,0,1,1260.89999997616
27,43,5,5,0,3,3,60,242,0,1,1272.10000002384
27,43,5,5,0,4,2,60,242,0,1,1140.30000001192
27,43,5,5,0,5,1,60,242,0,1,1122.59999996424
27,44,6,4,-2,1,0,65,261,0,1,1126.60000002384
27,44,6,4,-2,2,5,65,261,0,1,1177.30000001192
27,44,6,4,-2,3,4,65,261,0,1,1190.20000004768
27,44,6,4,-2,4,3,65,261,0,1,1122.10000002384
27,45,7,7,0,1,2,329,532,0,1,2473.59999996424
27,45,7,7,0,2,6,329,532,0,1,1293.5
27,45,7,7,0,3,5,329,532,0,1,1260.69999998808
27,45,7,7,0,4,4,329,532,0,1,1089.39999997616
27,45,7,7,0,5,3,329,532,0,1,1340.30000001192
27,45,7,7,0,6,2,329,532,0,1,1122.80000001192
27,45,7,7,0,7,1,329,532,0,1,1277.69999998808
27,46,5,4,-1,1,0,186,362,0,1,1227.39999997616
27,46,5,4,-1,2,4,186,362,0,1,1189.29999995232
27,46,5,4,-1,3,3,186,362,0,1,1156
27,46,5,4,-1,4,2,186,362,0,1,1323.09999996424
27,47,7,10,3,1,1,234,417,0,1,1193.69999998808
27,47,7,10,3,2,6,234,417,0,1,1210.10000002384
27,47,7,10,3,3,5,234,417,0,1,1190.30000001192
27,47,7,10,3,4,4,234,417,0,1,1105.39999997616
27,47,7,10,3,5,3,234,417,0,1,1239.30000001192
27,47,7,10,3,6,2,234,417,0,1,1127.10000002384
27,47,7,10,3,7,1,234,417,0,1,1477.80000001192
27,47,7,10,3,8,0,234,417,0,1,1206.10000002384
27,47,7,10,3,9,0,234,417,0,1,1177.10000002384
27,47,7,10,3,10,0,234,417,0,1,1093.69999998808
27,48,6,6,0,1,6,197,399,0,1,1106.09999996424
27,48,6,6,0,2,5,197,399,0,1,1340
27,48,6,6,0,3,4,197,399,0,1,1188.29999995232
27,48,6,6,0,4,3,197,399,0,1,1276.89999997616
27,48,6,6,0,5,2,197,399,0,1,1278.19999998808
27,48,6,6,0,6,1,197,399,0,1,1021.89999997616
27,49,7,4,-3,1,0,63,275,0,1,1420.69999998808
27,49,7,4,-3,2,6,63,275,0,1,1439.40000003576
27,49,7,4,-3,3,5,63,275,0,1,1289.69999998808
27,49,7,4,-3,4,4,63,275,0,1,1105.79999995232
27,50,7,8,1,1,3,159,328,0,1,1177.69999998808
27,50,7,8,1,2,6,159,328,0,1,1010.5
27,50,7,8,1,3,5,159,328,0,1,1105.90000003576
27,50,7,8,1,4,4,159,328,0,1,1138.90000003576
27,50,7,8,1,5,3,159,328,0,1,1039.89999997616
27,50,7,8,1,6,2,159,328,0,1,1160.39999997616
27,50,7,8,1,7,1,159,328,0,1,1227
27,50,7,8,1,8,0,159,328,0,1,1090.5
27,51,5,9,4,1,5,17,171,0,1,1389.60000002384
27,51,5,9,4,2,4,17,171,0,1,1189.30000001192
27,51,5,9,4,3,3,17,171,0,1,1093.69999998808
27,51,5,9,4,4,2,17,171,0,1,1493.80000001192
27,51,5,9,4,5,1,17,171,0,1,1060.30000001192
27,51,5,9,4,6,0,17,171,0,1,1107.30000001192
27,51,5,9,4,7,0,17,171,0,1,1338
27,51,5,9,4,8,0,17,171,0,1,1073.59999996424
27,51,5,9,4,9,0,17,171,0,1,1143.90000003576
27,52,7,7,0,1,7,156,305,0,1,1393.10000002384
27,52,7,7,0,2,6,156,305,0,1,1672.5
27,52,7,7,0,3,5,156,305,0,1,1611
27,52,7,7,0,4,4,156,305,0,1,1055.79999995232
27,52,7,7,0,5,3,156,305,0,1,1144.5
27,52,7,7,0,6,2,156,305,0,1,1177.30000001192
27,52,7,7,0,7,1,156,305,0,1,1223.30000001192
27,53,6,6,0,1,0,127,353,0,1,1190.69999998808
27,53,6,6,0,2,5,127,353,0,1,1339.60000002384
27,53,6,6,0,3,4,127,353,0,1,1260.80000001192
27,53,6,6,0,4,3,127,353,0,1,976.5
27,53,6,6,0,5,2,127,353,0,1,1123.19999998808
27,53,6,6,0,6,1,127,353,0,1,1173.09999996424
27,54,7,8,1,1,0,290,480,0,1,1305.79999995232
27,54,7,8,1,2,6,290,480,0,1,1059.5
27,54,7,8,1,3,5,290,480,0,1,1043.69999998808
27,54,7,8,1,4,4,290,480,0,1,1589.39999997616
27,54,7,8,1,5,3,290,480,0,1,1188.69999998808
27,54,7,8,1,6,2,290,480,0,1,1140.30000001192
27,54,7,8,1,7,1,290,480,0,1,1426.90000003576
27,54,7,8,1,8,0,290,480,0,1,1111.10000002384
27,55,6,6,0,1,6,18,177,0,1,1174.10000002384
27,55,6,6,0,2,5,18,177,0,1,1155.89999997616
27,55,6,6,0,3,4,18,177,0,1,1089.5
27,55,6,6,0,4,3,18,177,0,1,1161.10000002384
27,55,6,6,0,5,2,18,177,0,1,1077.30000001192
27,55,6,6,0,6,1,18,177,0,1,990.099999964237
27,56,5,5,0,1,0,208,398,0,1,1240.39999997616
27,56,5,5,0,2,4,208,398,0,1,1088.90000003576
27,56,5,5,0,3,3,208,398,0,1,1711.20000004768
27,56,5,5,0,4,2,208,398,0,1,1138.70000004768
27,56,5,5,0,5,1,208,398,0,1,1109.69999998808
27,57,5,6,1,1,0,201,423,0,1,1143.39999997616
27,57,5,6,1,2,4,201,423,0,1,1107.19999998808
27,57,5,6,1,3,3,201,423,0,1,1057.5
27,57,5,6,1,4,2,201,423,0,1,1272.30000001192
27,57,5,6,1,5,1,201,423,0,1,1261.10000002384
27,57,5,6,1,6,0,201,423,0,1,1210.19999998808
27,58,7,7,0,1,7,196,408,0,1,1240.09999996424
27,58,7,7,0,2,6,196,408,0,1,1123.39999997616
27,58,7,7,0,3,5,196,408,0,1,1056.09999996424
27,58,7,7,0,4,4,196,408,0,1,1276.5
27,58,7,7,0,5,3,196,408,0,1,1293.69999998808
27,58,7,7,0,6,2,196,408,0,1,1120.69999998808
27,58,7,7,0,7,1,196,408,0,1,1473.19999998808
27,59,5,2,-3,1,0,22,238,0,1,1389
27,59,5,2,-3,2,4,22,238,0,1,1293.59999996424
27,60,5,5,0,1,3,63,246,0,1,1226.79999995232
27,60,5,5,0,2,4,63,246,0,1,1427.29999995232
27,60,5,5,0,3,3,63,246,0,1,1139.19999998808
27,60,5,5,0,4,2,63,246,0,1,1389.80000001192
27,60,5,5,0,5,1,63,246,0,1,1238.89999997616
27,61,6,6,0,1,0,25,187,0,1,1110.5
27,61,6,6,0,2,5,25,187,0,1,1193.70000004768
27,61,6,6,0,3,4,25,187,0,1,1405.59999996424
27,61,6,6,0,4,3,25,187,0,1,923
27,61,6,6,0,5,2,25,187,0,1,1356.19999998808
27,61,6,6,0,6,1,25,187,0,1,1243.80000001192
27,62,5,5,0,1,0,241,448,0,1,1193
27,62,5,5,0,2,4,241,448,0,1,1128.10000002384
27,62,5,5,0,3,3,241,448,0,1,990.099999964237
27,62,5,5,0,4,2,241,448,0,1,1040
27,62,5,5,0,5,1,241,448,0,1,1156.40000003576
27,63,7,6,-1,1,0,175,380,0,1,1077.09999996424
27,63,7,6,-1,2,6,175,380,0,1,993.599999964237
27,63,7,6,-1,3,5,175,380,0,1,1195.60000002384
27,63,7,6,-1,4,4,175,380,0,1,1581.69999998808
27,63,7,6,-1,5,3,175,380,0,1,1173.5
27,63,7,6,-1,6,2,175,380,0,1,1060.60000002384
27,64,6,9,3,1,1,91,286,0,1,1176.5
27,64,6,9,3,2,5,91,286,0,1,1122.70000004768
27,64,6,9,3,3,4,91,286,0,1,1190.20000004768
27,64,6,9,3,4,3,91,286,0,1,1522.40000003576
27,64,6,9,3,5,2,91,286,0,1,1290
27,64,6,9,3,6,1,91,286,0,1,1361.09999996424
27,64,6,9,3,7,0,91,286,0,1,1426.59999996424
27,64,6,9,3,8,0,91,286,0,1,1055.30000001192
27,64,6,9,3,9,0,91,286,0,1,1109.40000003576
27,65,5,5,0,1,5,227,414,0,1,1403.19999998808
27,65,5,5,0,2,4,227,414,0,1,1139.39999997616
27,65,5,5,0,3,3,227,414,0,1,1110.10000002384
27,65,5,5,0,4,2,227,414,0,1,1077.5
27,65,5,5,0,5,1,227,414,0,1,1173.10000002384
27,66,6,4,-2,1,0,183,371,0,1,1122.09999996424
27,66,6,4,-2,2,5,183,371,0,1,1006.39999997616
27,66,6,4,-2,3,4,183,371,0,1,1094.10000002384
27,66,6,4,-2,4,3,183,371,0,1,1510.20000004768
27,67,5,5,0,1,2,210,369,0,1,989.600000023842
27,67,5,5,0,2,4,210,369,0,1,1126.80000001192
27,67,5,5,0,3,3,210,369,0,1,1043.39999997616
27,67,5,5,0,4,2,210,369,0,1,1074.39999997616
27,67,5,5,0,5,1,210,369,0,1,1407.10000002384
27,68,6,6,0,1,0,339,562,0,1,1624.30000001192
27,68,6,6,0,2,5,339,562,0,1,1172.60000002384
27,68,6,6,0,3,4,339,562,0,1,1156.60000002384
27,68,6,6,0,4,3,339,562,0,1,1377.19999998808
27,68,6,6,0,5,2,339,562,0,1,1189.5
27,68,6,6,0,6,1,339,562,0,1,1161.10000002384
27,69,7,5,-2,1,0,247,399,0,1,1210.30000001192
27,69,7,5,-2,2,6,247,399,0,1,1339.5
27,69,7,5,-2,3,5,247,399,0,1,1274.30000001192
27,69,7,5,-2,4,4,247,399,0,1,1155.5
27,69,7,5,-2,5,3,247,399,0,1,994.399999976158
27,70,6,10,4,1,2,31,229,0,1,1311.30000001192
27,70,6,10,4,2,5,31,229,0,1,1239.5
27,70,6,10,4,3,4,31,229,0,1,1056.19999998808
27,70,6,10,4,4,3,31,229,0,1,1173
27,70,6,10,4,5,2,31,229,0,1,1104.60000002384
27,70,6,10,4,6,1,31,229,0,1,1189.39999997616
27,70,6,10,4,7,0,31,229,0,1,1377.19999998808
27,70,6,10,4,8,0,31,229,0,1,1227.5
27,70,6,10,4,9,0,31,229,0,1,992.400000035763
27,70,6,10,4,10,0,31,229,0,1,1073.19999998808
27,71,7,9,2,1,7,60,252,0,1,1188.59999996424
27,71,7,9,2,2,6,60,252,0,1,1105.69999998808
27,71,7,9,2,3,5,60,252,0,1,1194.59999996424
27,71,7,9,2,4,4,60,252,0,1,1277
27,71,7,9,2,5,3,60,252,0,1,1339.69999998808
27,71,7,9,2,6,2,60,252,0,1,1122.60000002384
27,71,7,9,2,7,1,60,252,0,1,1438.90000003576
27,71,7,9,2,8,0,60,252,0,1,1110.30000001192
27,71,7,9,2,9,0,60,252,0,1,1061.19999998808
27,72,6,2,-4,1,6,154,328,0,1,1090.10000002384
27,72,6,2,-4,2,5,154,328,0,1,1297.59999996424
27,73,7,5,-2,1,4,103,264,0,1,1864.39999997616
27,73,7,5,-2,2,6,103,264,0,1,1226
27,73,7,5,-2,3,5,103,264,0,1,1210.80000001192
27,73,7,5,-2,4,4,103,264,0,1,1827
27,73,7,5,-2,5,3,103,264,0,1,1073.10000002384
27,74,6,6,0,1,2,227,401,0,1,1277.60000002384
27,74,6,6,0,2,5,227,401,0,1,1160.19999998808
27,74,6,6,0,3,4,227,401,0,1,1339.80000001192
27,74,6,6,0,4,3,227,401,0,1,1223
27,74,6,6,0,5,2,227,401,0,1,1156
27,74,6,6,0,6,1,227,401,0,1,1194
27,75,6,8,2,1,0,61,239,0,1,1243.5
27,75,6,8,2,2,5,61,239,0,1,1006.69999998808
27,75,6,8,2,3,4,61,239,0,1,1072.10000002384
27,75,6,8,2,4,3,61,239,0,1,1290.19999998808
27,75,6,8,2,5,2,61,239,0,1,1009.39999997616
27,75,6,8,2,6,1,61,239,0,1,943.5
27,75,6,8,2,7,0,61,239,0,1,1005.20000004768
27,75,6,8,2,8,0,61,239,0,1,1323.79999995232
27,76,7,7,0,1,7,227,455,0,1,1238.79999995232
27,76,7,7,0,2,6,227,455,0,1,1043.89999997616
27,76,7,7,0,3,5,227,455,0,1,1411.10000002384
27,76,7,7,0,4,4,227,455,0,1,1061.30000001192
27,76,7,7,0,5,3,227,455,0,1,1355.09999996424
27,76,7,7,0,6,2,227,455,0,1,1372
27,76,7,7,0,7,1,227,455,0,1,1022.30000001192
27,77,5,5,0,1,0,195,426,0,1,1426.39999997616
27,77,5,5,0,2,4,195,426,0,1,1222.5
27,77,5,5,0,3,3,195,426,0,1,1109.90000003576
27,77,5,5,0,4,2,195,426,0,1,1026.70000004768
27,77,5,5,0,5,1,195,426,0,1,1122.69999998808
27,78,6,7,1,1,0,106,312,0,1,1139.10000002384
27,78,6,7,1,2,5,106,312,0,1,1072.69999998808
27,78,6,7,1,3,4,106,312,0,1,1060
27,78,6,7,1,4,3,106,312,0,1,1027
27,78,6,7,1,5,2,106,312,0,1,1073.10000002384
27,78,6,7,1,6,1,106,312,0,1,1123.10000002384
27,78,6,7,1,7,0,106,312,0,1,1056.10000002384
27,79,5,5,0,1,5,292,492,0,1,1359.79999995232
27,79,5,5,0,2,4,292,492,0,1,1227.40000003576
27,79,5,5,0,3,3,292,492,0,1,1180.09999996424
27,79,5,5,0,4,2,292,492,0,1,1457.80000001192
27,79,5,5,0,5,1,292,492,0,1,1094
27,80,5,2,-3,1,0,2,220,0,1,1388.80000001192
27,80,5,2,-3,2,4,2,220,0,1,1272.30000001192
27,81,5,9,4,1,3,99,333,0,1,1729.69999998808
27,81,5,9,4,2,4,99,333,0,1,1193.30000001192
27,81,5,9,4,3,3,99,333,0,1,1055.80000001192
27,81,5,9,4,4,2,99,333,0,1,1023.09999996424
27,81,5,9,4,5,1,99,333,0,1,1222.29999995232
27,81,5,9,4,6,0,99,333,0,1,1510.5
27,81,5,9,4,7,0,99,333,0,1,1171.89999997616
27,81,5,9,4,8,0,99,333,0,1,1326.69999998808
27,81,5,9,4,9,0,99,333,0,1,1143.40000003576
27,82,5,4,-1,1,5,46,272,0,1,1460.60000002384
27,82,5,4,-1,2,4,46,272,0,1,1088.39999997616
27,82,5,4,-1,3,3,46,272,0,1,1293.89999997616
27,82,5,4,-1,4,2,46,272,0,1,1314.89999997616
27,83,5,8,3,1,1,13,168,0,1,1789.69999998808
27,83,5,8,3,2,4,13,168,0,1,1159.69999998808
27,83,5,8,3,3,3,13,168,0,1,1255.89999997616
27,83,5,8,3,4,2,13,168,0,1,1005.5
27,83,5,8,3,5,1,13,168,0,1,1156.39999997616
27,83,5,8,3,6,0,13,168,0,1,1176.40000003576
27,83,5,8,3,7,0,13,168,0,1,1943.60000002384
27,83,5,8,3,8,0,13,168,0,1,1172
27,84,5,5,0,1,5,341,541,0,1,1177
27,84,5,5,0,2,4,341,541,0,1,1060.10000002384
27,84,5,5,0,3,3,341,541,0,1,1223
27,84,5,5,0,4,2,341,541,0,1,1323.30000001192
27,84,5,5,0,5,1,341,541,0,1,1439.39999997616
27,85,7,4,-3,1,0,253,436,0,1,1277.30000001192
27,85,7,4,-3,2,6,253,436,0,1,1194
27,85,7,4,-3,3,5,253,436,0,1,1060.30000001192
27,85,7,4,-3,4,4,253,436,0,1,1339.39999997616
27,86,6,10,4,1,3,243,427,0,1,1206.10000002384
27,86,6,10,4,2,5,243,427,0,1,1122
27,86,6,10,4,3,4,243,427,0,1,1076.59999996424
27,86,6,10,4,4,3,243,427,0,1,1361.19999998808
27,86,6,10,4,5,2,243,427,0,1,1192.39999997616
27,86,6,10,4,6,1,243,427,0,1,1155.19999998808
27,86,6,10,4,7,0,243,427,0,1,1206.40000003576
27,86,6,10,4,8,0,243,427,0,1,1253.80000001192
27,86,6,10,4,9,0,243,427,0,1,1460.10000002384
27,86,6,10,4,10,0,243,427,0,1,1144.20000004768
27,87,5,5,0,1,5,281,476,0,1,1126.5
27,87,5,5,0,2,4,281,476,0,1,1206.80000001192
27,87,5,5,0,3,3,281,476,0,1,1155.59999996424
27,87,5,5,0,4,2,281,476,0,1,1255.69999998808
27,87,5,5,0,5,1,281,476,0,1,1126.10000002384
27,88,6,6,0,1,0,17,214,0,1,1426.80000001192
27,88,6,6,0,2,5,17,214,0,1,1027.19999998808
27,88,6,6,0,3,4,17,214,0,1,1457.20000004768
27,88,6,6,0,4,3,17,214,0,1,1243.80000001192
27,88,6,6,0,5,2,17,214,0,1,1392.89999997616
27,88,6,6,0,6,1,17,214,0,1,1191
27,89,5,7,2,1,0,289,480,0,1,1189.5
27,89,5,7,2,2,4,289,480,0,1,1171.30000001192
27,89,5,7,2,3,3,289,480,0,1,1243.29999995232
27,89,5,7,2,4,2,289,480,0,1,1110.40000003576
27,89,5,7,2,5,1,289,480,0,1,1094.60000002384
27,89,5,7,2,6,0,289,480,0,1,1156.90000003576
27,89,5,7,2,7,0,289,480,0,1,1172.30000001192
27,90,6,7,1,1,6,189,339,0,1,2038.39999997616
27,90,6,7,1,2,5,189,339,0,1,1188.70000004768
27,90,6,7,1,3,4,189,339,0,1,959.5
27,90,6,7,1,4,3,189,339,0,1,1143.80000001192
27,90,6,7,1,5,2,189,339,0,1,1039.5
27,90,6,7,1,6,1,189,339,0,1,1072.5
27,90,6,7,1,7,0,189,339,0,1,1288.89999997616
27,91,7,7,0,1,7,34,253,0,1,1044.10000002384
27,91,7,7,0,2,6,34,253,0,1,1076.80000001192
27,91,7,7,0,3,5,34,253,0,1,1106.20000004768
27,91,7,7,0,4,4,34,253,0,1,1104.20000004768
27,91,7,7,0,5,3,34,253,0,1,1289.30000001192
27,91,7,7,0,6,2,34,253,0,1,1143.5
27,91,7,7,0,7,1,34,253,0,1,1243.60000002384
27,92,7,9,2,1,0,90,276,0,1,1227.59999996424
27,92,7,9,2,2,6,90,276,0,1,1507.09999996424
27,92,7,9,2,3,5,90,276,0,1,1373.09999996424
27,92,7,9,2,4,4,90,276,0,1,1173.10000002384
27,92,7,9,2,5,3,90,276,0,1,1172.80000001192
27,92,7,9,2,6,2,90,276,0,1,1237.40000003576
27,92,7,9,2,7,1,90,276,0,1,1144
27,92,7,9,2,8,0,90,276,0,1,1211.69999998808
27,92,7,9,2,9,0,90,276,0,1,1109.89999997616
27,93,6,6,0,1,6,256,451,0,1,1440.39999997616
27,93,6,6,0,2,5,256,451,0,1,1255.10000002384
27,93,6,6,0,3,4,256,451,0,1,1239.5
27,93,6,6,0,4,3,256,451,0,1,1144.30000001192
27,93,6,6,0,5,2,256,451,0,1,1061.09999996424
27,93,6,6,0,6,1,256,451,0,1,1122.90000003576
27,94,6,6,0,1,0,14,194,0,1,1022.80000001192
27,94,6,6,0,2,5,14,194,0,1,1221.39999997616
27,94,6,6,0,3,4,14,194,0,1,1160.89999997616
27,94,6,6,0,4,3,14,194,0,1,1109.60000002384
27,94,6,6,0,5,2,14,194,0,1,1055.30000001192
27,94,6,6,0,6,1,14,194,0,1,1139.20000004768
27,95,5,6,1,1,0,104,338,0,1,1239.69999998808
27,95,5,6,1,2,4,104,338,0,1,1143.89999997616
27,95,5,6,1,3,3,104,338,0,1,1459.69999998808
27,95,5,6,1,4,2,104,338,0,1,1122
27,95,5,6,1,5,1,104,338,0,1,1176.39999997616
27,95,5,6,1,6,0,104,338,0,1,1260.89999997616
27,96,7,11,4,1,7,354,568,0,1,1494.40000003576
27,96,7,11,4,2,6,354,568,0,1,957.300000011921
27,96,7,11,4,3,5,354,568,0,1,1207
27,96,7,11,4,4,4,354,568,0,1,1155.19999998808
27,96,7,11,4,5,3,354,568,0,1,1077
27,96,7,11,4,6,2,354,568,0,1,1177.10000002384
27,96,7,11,4,7,1,354,568,0,1,1039.5
27,96,7,11,4,8,0,354,568,0,1,1138.59999996424
27,96,7,11,4,9,0,354,568,0,1,1156.29999995232
27,96,7,11,4,10,0,354,568,0,1,1110.70000004768
27,96,7,11,4,11,0,354,568,0,1,1026.59999996424
39,1,6,6,0,1,6,269,488,0,1,1576.69999999926
39,1,6,6,0,2,5,269,488,0,1,1209.80000000075
39,1,6,6,0,3,4,269,488,0,1,1107.39999999851
39,1,6,6,0,4,3,269,488,0,1,1016.59999999776
39,1,6,6,0,5,2,269,488,0,1,909.800000000745
39,1,6,6,0,6,1,269,488,0,1,1067.5
39,2,6,6,0,1,0,274,429,0,1,1756.70000000298
39,2,6,6,0,2,5,274,429,0,1,1081.89999999851
39,2,6,6,0,3,4,274,429,0,1,1178.5
39,2,6,6,0,4,3,274,429,0,1,1018.80000000075
39,2,6,6,0,5,2,274,429,0,1,1314
39,2,6,6,0,6,1,274,429,0,1,1204.10000000149
39,3,7,7,0,1,0,23,237,2,0,2205.60000000149
39,,,,,,,,,,,
39,3,7,7,0,2,6,23,237,0,1,1228.30000000075
39,3,7,7,0,3,5,23,237,0,1,1096.69999999926
39,3,7,7,0,4,4,23,237,0,1,1018.39999999851
39,3,7,7,0,5,3,23,237,0,1,1067.10000000149
39,3,7,7,0,6,2,23,237,0,1,1008.39999999851
39,3,7,7,0,7,1,23,237,0,1,1659.90000000224
39,4,6,3,-3,1,0,206,376,0,1,1508.89999999851
39,4,6,3,-3,2,5,206,376,0,1,2351
39,4,6,3,-3,3,4,206,376,0,1,1091.10000000149
39,5,6,10,4,1,3,246,472,0,1,1194.79999999702
39,5,6,10,4,2,5,246,472,0,1,1217.30000000075
39,5,6,10,4,3,4,246,472,0,1,1128.80000000075
39,5,6,10,4,4,3,246,472,0,1,1275.19999999926
39,5,6,10,4,5,2,246,472,0,1,1060.60000000149
39,5,6,10,4,6,1,246,472,0,1,980.79999999702
39,5,6,10,4,7,0,246,472,0,1,1056.10000000149
39,5,6,10,4,8,0,246,472,0,1,1135.60000000149
39,5,6,10,4,9,0,246,472,0,1,1131.60000000149
39,5,6,10,4,10,0,246,472,0,1,1303.10000000149
39,6,7,6,-1,1,7,222,419,0,1,2479.90000000224
39,6,7,6,-1,2,6,222,419,0,1,1639.60000000149
39,6,7,6,-1,3,5,222,419,0,1,1700.89999999851
39,6,7,6,-1,4,4,222,419,0,1,2209.69999999926
39,6,7,6,-1,5,3,222,419,0,1,1173.90000000224
39,6,7,6,-1,6,2,222,419,0,1,1573.89999999851
39,7,7,7,0,1,1,279,509,0,1,2106.40000000224
39,7,7,7,0,2,6,279,509,0,1,1181.5
39,7,7,7,0,3,5,279,509,0,1,1321.10000000149
39,7,7,7,0,4,4,279,509,0,1,985.5
39,7,7,7,0,5,3,279,509,0,1,973.79999999702
39,7,7,7,0,6,2,279,509,0,1,1222
39,7,7,7,0,7,1,279,509,0,1,1065.70000000298
39,8,7,5,-2,1,0,190,421,0,1,1987.10000000149
39,8,7,5,-2,2,6,190,421,0,1,1070.69999999926
39,8,7,5,-2,3,5,190,421,0,1,995.099999997765
39,8,7,5,-2,4,4,190,421,0,1,1037.10000000149
39,8,7,5,-2,5,3,190,421,0,1,1070
39,9,5,4,-1,1,2,26,227,0,1,2056.79999999702
39,9,5,4,-1,2,4,26,227,0,1,1078.70000000298
39,9,5,4,-1,3,3,26,227,0,1,1073.5
39,9,5,4,-1,4,2,26,227,0,1,1269.59999999777
39,10,6,5,-1,1,1,353,538,0,1,1476.80000000075
39,10,6,5,-1,2,5,353,538,0,1,1736.39999999851
39,10,6,5,-1,3,4,353,538,0,1,1517.20000000298
39,10,6,5,-1,4,3,353,538,0,1,1394.5
39,10,6,5,-1,5,2,353,538,0,1,1235.69999999926
39,11,6,3,-3,1,1,49,205,0,1,1068.10000000149
39,11,6,3,-3,2,5,49,205,0,1,1039.5
39,11,6,3,-3,3,4,49,205,0,1,1153.69999999926
39,12,5,5,0,1,3,115,299,0,1,1004.19999999926
39,12,5,5,0,2,4,115,299,0,1,1045
39,12,5,5,0,3,3,115,299,0,1,980.099999997765
39,12,5,5,0,4,2,115,299,0,1,1012.80000000075
39,12,5,5,0,5,1,115,299,0,1,1222.89999999851
39,13,7,7,0,1,0,328,526,0,1,1225.69999999926
39,13,7,7,0,2,6,328,526,0,1,1126.5
39,13,7,7,0,3,5,328,526,0,1,2603.69999999926
39,13,7,7,0,4,4,328,526,0,1,1067.80000000075
39,13,7,7,0,5,3,328,526,0,1,1022.90000000224
39,13,7,7,0,6,2,328,526,0,1,1382.69999999926
39,13,7,7,0,7,1,328,526,0,1,1042.39999999851
39,14,7,7,0,1,0,310,457,0,1,1102
39,14,7,7,0,2,6,310,457,0,1,1501.69999999926
39,14,7,7,0,3,5,310,457,0,1,1017.19999999925
39,14,7,7,0,4,4,310,457,0,1,1024.19999999926
39,14,7,7,0,5,3,310,457,0,1,1380.30000000075
39,14,7,7,0,6,2,310,457,0,1,969.29999999702
39,14,7,7,0,7,1,310,457,0,1,1160.90000000224
39,15,6,6,0,1,0,187,345,0,1,1412.19999999926
39,15,6,6,0,2,5,187,345,0,1,1202.5
39,15,6,6,0,3,4,187,345,0,1,1203.5
39,15,6,6,0,4,3,187,345,0,1,1025.09999999776
39,15,6,6,0,5,2,187,345,0,1,1518.60000000149
39,15,6,6,0,6,1,187,345,0,1,1741.10000000149
39,16,5,9,4,1,0,61,253,0,1,1398.69999999925
39,16,5,9,4,2,4,61,253,0,1,1121.60000000149
39,16,5,9,4,3,3,61,253,0,1,1075.40000000224
39,16,5,9,4,4,2,61,253,0,1,1169.79999999702
39,16,5,9,4,5,1,61,253,0,1,1104.30000000075
39,16,5,9,4,6,0,61,253,0,1,1215.59999999777
39,16,5,9,4,7,0,61,253,0,1,1207.80000000075
39,16,5,9,4,8,0,61,253,0,1,1069.60000000149
39,16,5,9,4,9,0,61,253,0,1,1104.90000000224
39,17,6,6,0,1,6,201,347,0,1,2116.09999999776
39,17,6,6,0,2,5,201,347,0,1,1113.59999999776
39,17,6,6,0,3,4,201,347,0,1,952.29999999702
39,17,6,6,0,4,3,201,347,0,1,1050.30000000075
39,17,6,6,0,5,2,201,347,0,1,1072.89999999851
39,17,6,6,0,6,1,201,347,0,1,949.300000000745
39,18,6,6,0,1,0,199,347,0,1,1017.60000000149
39,18,6,6,0,2,5,199,347,0,1,1055.89999999851
39,18,6,6,0,3,4,199,347,0,1,1121.19999999926
39,18,6,6,0,4,3,199,347,0,1,1137.69999999926
39,18,6,6,0,5,2,199,347,0,1,981.70000000298
39,18,6,6,0,6,1,199,347,0,1,1099.09999999776
39,19,6,6,0,1,0,60,265,0,1,1123.09999999776
39,19,6,6,0,2,5,60,265,0,1,1065.5
39,19,6,6,0,3,4,60,265,0,1,1430.5
39,19,6,6,0,4,3,60,265,0,1,989.800000000745
39,19,6,6,0,5,2,60,265,0,1,953.300000000745
39,19,6,6,0,6,1,60,265,0,1,1042.5
39,20,5,5,0,1,0,183,352,0,1,1085.80000000075
39,20,5,5,0,2,4,183,352,0,1,1154.60000000149
39,20,5,5,0,3,3,183,352,0,1,1110.19999999925
39,20,5,5,0,4,2,183,352,0,1,1490.30000000075
39,20,5,5,0,5,1,183,352,0,1,1454.39999999851
39,21,6,6,0,1,0,320,486,3,0,165.300000000745
39,,,,,,,,,,,
39,21,6,6,0,2,5,320,486,0,1,1164.5
39,21,6,6,0,3,4,320,486,0,1,1036.39999999851
39,21,6,6,0,4,3,320,486,0,1,963
39,21,6,6,0,5,2,320,486,0,1,1369.10000000149
39,21,6,6,0,6,1,320,486,0,1,997.29999999702
39,22,5,4,-1,1,0,283,437,0,1,1121
39,22,5,4,-1,2,4,283,437,0,1,1083.69999999925
39,22,5,4,-1,3,3,283,437,0,1,1376.80000000075
39,22,5,4,-1,4,2,283,437,0,1,972.10000000149
39,23,7,7,0,1,1,127,346,0,1,1108.40000000224
39,23,7,7,0,2,6,127,346,0,1,1027
39,23,7,7,0,3,5,127,346,0,1,942.300000000745
39,23,7,7,0,4,4,127,346,0,1,1019.09999999776
39,23,7,7,0,5,3,127,346,0,1,1034.19999999926
39,23,7,7,0,6,2,127,346,0,1,1301.80000000075
39,23,7,7,0,7,1,127,346,0,1,997
39,24,7,7,0,1,0,134,304,0,1,1003.89999999851
39,24,7,7,0,2,6,134,304,0,1,1104
39,24,7,7,0,3,5,134,304,0,1,966.199999999255
39,24,7,7,0,4,4,134,304,0,1,1140.39999999851
39,24,7,7,0,5,3,134,304,0,1,1047.40000000224
39,24,7,7,0,6,2,134,304,0,1,1023
39,24,7,7,0,7,1,134,304,0,1,1041.5
39,25,6,6,0,1,0,63,244,0,1,954.300000000745
39,25,6,6,0,2,5,63,244,0,1,1062.60000000149
39,25,6,6,0,3,4,63,244,0,1,1153.09999999777
39,25,6,6,0,4,3,63,244,0,1,1659.5
39,25,6,6,0,5,2,63,244,0,1,1042
39,25,6,6,0,6,1,63,244,0,1,973.5
39,26,6,2,-4,1,0,195,401,0,1,1099
39,26,6,2,-4,2,5,195,401,0,1,975.199999999255
39,27,5,5,0,1,4,355,552,0,1,1325.80000000075
39,27,5,5,0,2,4,355,552,0,1,1096
39,27,5,5,0,3,3,355,552,0,1,1083.69999999925
39,27,5,5,0,4,2,355,552,0,1,1326.19999999925
39,27,5,5,0,5,1,355,552,0,1,1045.09999999776
39,28,7,7,0,1,0,135,328,0,1,1319
39,28,7,7,0,2,6,135,328,0,1,1091.09999999776
39,28,7,7,0,3,5,135,328,0,1,1002
39,28,7,7,0,4,4,135,328,0,1,1625.80000000075
39,28,7,7,0,5,3,135,328,0,1,1155.40000000224
39,28,7,7,0,6,2,135,328,0,1,1004.19999999926
39,28,7,7,0,7,1,135,328,0,1,1275.59999999776
39,29,6,9,3,1,0,33,215,0,1,1117.59999999776
39,29,6,9,3,2,5,33,215,0,1,1004.19999999926
39,29,6,9,3,3,4,33,215,0,1,1020
39,29,6,9,3,4,3,33,215,0,1,1059.5
39,29,6,9,3,5,2,33,215,0,1,1085.80000000075
39,29,6,9,3,6,1,33,215,0,1,1571.19999999926
39,29,6,9,3,7,0,33,215,0,1,955.400000002235
39,29,6,9,3,8,0,33,215,0,1,1183.19999999926
39,29,6,9,3,9,0,33,215,0,1,960.199999999255
39,30,6,6,0,1,6,63,231,0,1,1014.39999999851
39,30,6,6,0,2,5,63,231,0,1,1104.5
39,30,6,6,0,3,4,63,231,0,1,1140.30000000075
39,30,6,6,0,4,3,63,231,0,1,1066.20000000298
39,30,6,6,0,5,2,63,231,0,1,1059.39999999851
39,30,6,6,0,6,1,63,231,0,1,1065.09999999776
39,31,5,5,0,1,0,126,313,0,1,979
39,31,5,5,0,2,4,126,313,0,1,960.199999999255
39,31,5,5,0,3,3,126,313,0,1,1026.89999999851
39,31,5,5,0,4,2,126,313,0,1,1079.09999999776
39,31,5,5,0,5,1,126,313,0,1,986
39,32,5,5,0,1,0,235,441,0,1,1427.89999999851
39,32,5,5,0,2,4,235,441,0,1,1043.30000000075
39,32,5,5,0,3,3,235,441,0,1,1547.30000000075
39,32,5,5,0,4,2,235,441,0,1,987.10000000149
39,32,5,5,0,5,1,235,441,0,1,1006.5
39,33,6,6,0,1,0,230,379,0,1,1231.10000000149
39,33,6,6,0,2,5,230,379,0,1,1074
39,33,6,6,0,3,4,230,379,0,1,2161
39,33,6,6,0,4,3,230,379,0,1,1025.30000000075
39,33,6,6,0,5,2,230,379,0,1,1256.89999999851
39,33,6,6,0,6,1,230,379,0,1,1033.30000000075
39,34,6,5,-1,1,0,277,504,0,1,1004.59999999776
39,34,6,5,-1,2,5,277,504,0,1,1020.19999999926
39,34,6,5,-1,3,4,277,504,0,1,1013.80000000075
39,34,6,5,-1,4,3,277,504,0,1,1239.89999999851
39,34,6,5,-1,5,2,277,504,0,1,1084
39,35,6,6,0,1,1,295,502,0,1,1163.20000000298
39,35,6,6,0,2,5,295,502,0,1,1659.60000000149
39,35,6,6,0,3,4,295,502,0,1,1177.30000000075
39,35,6,6,0,4,3,295,502,0,1,1031.29999999702
39,35,6,6,0,5,2,295,502,0,1,1199.40000000224
39,35,6,6,0,6,1,295,502,0,1,1006.69999999926
39,36,6,6,0,1,0,354,512,0,1,1148.5
39,36,6,6,0,2,5,354,512,0,1,1053.09999999776
39,36,6,6,0,3,4,354,512,0,1,1153.80000000075
39,36,6,6,0,4,3,354,512,0,1,1517.19999999926
39,36,6,6,0,5,2,354,512,0,1,1452.69999999926
39,36,6,6,0,6,1,354,512,0,1,1568.30000000075
39,37,7,7,0,1,0,187,339,0,1,1118.10000000149
39,37,7,7,0,2,6,187,339,0,1,1041.60000000149
39,37,7,7,0,3,5,187,339,0,1,1121.5
39,37,7,7,0,4,4,187,339,0,1,1009.5
39,37,7,7,0,5,3,187,339,0,1,1094.89999999851
39,37,7,7,0,6,2,187,339,0,1,1037.60000000149
39,37,7,7,0,7,1,187,339,0,1,1098
39,38,7,6,-1,1,0,166,373,0,1,1112.30000000075
39,38,7,6,-1,2,6,166,373,0,1,1108.10000000149
39,38,7,6,-1,3,5,166,373,0,1,1158.5
39,38,7,6,-1,4,4,166,373,0,1,1088.59999999776
39,38,7,6,-1,5,3,166,373,0,1,1076.89999999851
39,38,7,6,-1,6,2,166,373,0,1,1557.5
39,39,5,5,0,1,1,248,429,0,1,1126.89999999851
39,39,5,5,0,2,4,248,429,0,1,1122.90000000224
39,39,5,5,0,3,3,248,429,0,1,977.300000000745
39,39,5,5,0,4,2,248,429,0,1,1826
39,39,5,5,0,5,1,248,429,0,1,1053.09999999776
39,40,6,4,-2,1,0,258,480,0,1,1128.10000000149
39,40,6,4,-2,2,5,258,480,0,1,1394.5
39,40,6,4,-2,3,4,258,480,0,1,1008.40000000224
39,40,6,4,-2,4,3,258,480,0,1,1479
39,41,6,6,0,1,2,218,453,0,1,1023.39999999851
39,41,6,6,0,2,5,218,453,0,1,1155.89999999851
39,41,6,6,0,3,4,218,453,0,1,1424.59999999776
39,41,6,6,0,4,3,218,453,0,1,1041.60000000149
39,41,6,6,0,5,2,218,453,0,1,1141.40000000224
39,41,6,6,0,6,1,218,453,0,1,1072
39,42,6,6,0,1,0,249,459,0,1,1232.69999999926
39,42,6,6,0,2,5,249,459,0,1,931.800000000745
39,42,6,6,0,3,4,249,459,0,1,1029.19999999925
39,42,6,6,0,4,3,249,459,0,1,1975.40000000224
39,42,6,6,0,5,2,249,459,0,1,1113.30000000075
39,42,6,6,0,6,1,249,459,0,1,1047.80000000075
39,43,7,7,0,1,0,168,392,0,1,1115.39999999851
39,43,7,7,0,2,6,168,392,0,1,1282.5
39,43,7,7,0,3,5,168,392,0,1,1067.59999999776
39,43,7,7,0,4,4,168,392,0,1,1005.19999999925
39,43,7,7,0,5,3,168,392,0,1,987.800000000745
39,43,7,7,0,6,2,168,392,0,1,1428.39999999851
39,43,7,7,0,7,1,168,392,0,1,1191.80000000075
39,44,6,7,1,1,0,252,475,0,1,1005.39999999851
39,44,6,7,1,2,5,252,475,0,1,1068.5
39,44,6,7,1,3,4,252,475,0,1,941.79999999702
39,44,6,7,1,4,3,252,475,0,1,954.699999999255
39,44,6,7,1,5,2,252,475,0,1,959.099999997765
39,44,6,7,1,6,1,252,475,0,1,931.5
39,44,6,7,1,7,0,252,475,0,1,1506.69999999926
39,45,7,4,-3,1,7,309,495,0,1,1008.19999999925
39,45,7,4,-3,2,6,309,495,0,1,1025.60000000149
39,45,7,4,-3,3,5,309,495,0,1,1134
39,45,7,4,-3,4,4,309,495,0,1,1075.60000000149
39,46,7,7,0,1,3,278,509,0,1,992.5
39,46,7,7,0,2,6,278,509,0,1,1034.5
39,46,7,7,0,3,5,278,509,0,1,1159.60000000149
39,46,7,7,0,4,4,278,509,0,1,1147.69999999926
39,46,7,7,0,5,3,278,509,0,1,1076.10000000149
39,46,7,7,0,6,2,278,509,0,1,999.20000000298
39,46,7,7,0,7,1,278,509,0,1,1110.39999999851
39,47,6,6,0,1,0,242,391,0,1,1015.80000000075
39,47,6,6,0,2,5,242,391,0,1,1042.19999999926
39,47,6,6,0,3,4,242,391,0,1,1537.39999999851
39,47,6,6,0,4,3,242,391,0,1,1083.09999999776
39,47,6,6,0,5,2,242,391,0,1,1098
39,47,6,6,0,6,1,242,391,0,1,1091.20000000298
39,48,5,1,-4,1,0,83,254,0,1,1053.39999999851
39,49,5,5,0,1,5,331,477,0,1,968.79999999702
39,49,5,5,0,2,4,331,477,0,1,967.400000002235
39,49,5,5,0,3,3,331,477,0,1,938.099999997765
39,49,5,5,0,4,2,331,477,0,1,1034
39,49,5,5,0,5,1,331,477,0,1,1116.39999999851
39,50,6,6,0,1,0,104,251,0,1,1119.19999999926
39,50,6,6,0,2,5,104,251,0,1,1221.09999999776
39,50,6,6,0,3,4,104,251,0,1,1063.5
39,50,6,6,0,4,3,104,251,0,1,992.29999999702
39,50,6,6,0,5,2,104,251,0,1,1104.10000000149
39,50,6,6,0,6,1,104,251,0,1,1407.70000000298
39,51,7,8,1,1,0,169,352,0,1,1082.29999999702
39,51,7,8,1,2,6,169,352,0,1,1727.19999999926
39,51,7,8,1,3,5,169,352,0,1,1585.5
39,51,7,8,1,4,4,169,352,0,1,960.400000002235
39,51,7,8,1,5,3,169,352,0,1,1051.89999999851
39,51,7,8,1,6,2,169,352,0,1,914.699999999255
39,51,7,8,1,7,1,169,352,0,1,1277.70000000298
39,51,7,8,1,8,0,169,352,0,1,999.099999997765
39,52,7,7,0,1,7,296,497,0,1,1402.5
39,52,7,7,0,2,6,296,497,0,1,1454.19999999926
39,52,7,7,0,3,5,296,497,0,1,1979.80000000075
39,52,7,7,0,4,4,296,497,0,1,1019.30000000075
39,52,7,7,0,5,3,296,497,0,1,935.10000000149
39,52,7,7,0,6,2,296,497,0,1,947.89999999851
39,52,7,7,0,7,1,296,497,0,1,1103.19999999926
39,53,5,5,0,1,0,79,272,0,1,1029.69999999925
39,53,5,5,0,2,4,79,272,0,1,1047.09999999776
39,53,5,5,0,3,3,79,272,0,1,1060
39,53,5,5,0,4,2,79,272,0,1,1213.80000000075
39,53,5,5,0,5,1,79,272,0,1,1709
39,54,5,5,0,1,0,32,227,0,1,986.39999999851
39,54,5,5,0,2,4,32,227,0,1,1025.30000000075
39,54,5,5,0,3,3,32,227,0,1,1100.80000000075
39,54,5,5,0,4,2,32,227,0,1,1141.19999999926
39,54,5,5,0,5,1,32,227,0,1,1349.09999999776
39,55,5,5,0,1,0,27,186,0,1,1136.60000000149
39,55,5,5,0,2,4,27,186,0,1,1521.89999999851
39,55,5,5,0,3,3,27,186,0,1,1141.40000000224
39,55,5,5,0,4,2,27,186,0,1,1194.59999999776
39,55,5,5,0,5,1,27,186,0,1,1553.80000000075
39,56,5,5,0,1,0,250,472,0,1,1124.19999999925
39,56,5,5,0,2,4,250,472,0,1,1208.19999999926
39,56,5,5,0,3,3,250,472,0,1,1045.70000000298
39,56,5,5,0,4,2,250,472,0,1,1246.09999999777
39,56,5,5,0,5,1,250,472,0,1,1145.19999999926
39,57,5,5,0,1,0,52,258,0,1,1471.30000000075
39,57,5,5,0,2,4,52,258,0,1,1635.89999999851
39,57,5,5,0,3,3,52,258,0,1,1024.5
39,57,5,5,0,4,2,52,258,0,1,1053.10000000149
39,57,5,5,0,5,1,52,258,0,1,1164.5
39,58,7,4,-3,1,0,291,444,0,1,1078.90000000224
39,58,7,4,-3,2,6,291,444,0,1,1329.80000000075
39,58,7,4,-3,3,5,291,444,0,1,999.199999999255
39,58,7,4,-3,4,4,291,444,0,1,1114.30000000075
39,59,5,5,0,1,3,188,353,0,1,1581.79999999702
39,59,5,5,0,2,4,188,353,0,1,1151.40000000224
39,59,5,5,0,3,3,188,353,0,1,1635.5
39,59,5,5,0,4,2,188,353,0,1,1083.79999999702
39,59,5,5,0,5,1,188,353,0,1,1081.29999999702
39,60,6,6,0,1,0,155,333,0,1,1176.60000000149
39,60,6,6,0,2,5,155,333,0,1,1026.59999999776
39,60,6,6,0,3,4,155,333,0,1,1156.19999999926
39,60,6,6,0,4,3,155,333,0,1,1098.20000000298
39,60,6,6,0,5,2,155,333,0,1,1164.10000000149
39,60,6,6,0,6,1,155,333,0,1,1003
39,61,5,5,0,1,0,181,329,0,1,1144.80000000075
39,61,5,5,0,2,4,181,329,0,1,1654.80000000075
39,61,5,5,0,3,3,181,329,0,1,1062.90000000224
39,61,5,5,0,4,2,181,329,0,1,1162.10000000149
39,61,5,5,0,5,1,181,329,0,1,1165.70000000298
39,62,7,7,0,1,0,98,274,0,1,1636.09999999776
39,62,7,7,0,2,6,98,274,0,1,1109.60000000149
39,62,7,7,0,3,5,98,274,0,1,1092.90000000224
39,62,7,7,0,4,4,98,274,0,1,1173.39999999851
39,62,7,7,0,5,3,98,274,0,1,1172.09999999776
39,62,7,7,0,6,2,98,274,0,1,1689.29999999702
39,62,7,7,0,7,1,98,274,0,1,2024.19999999925
39,63,6,10,4,1,0,94,329,2,0,256.5
39,,,,,,,,,,,
39,63,6,10,4,2,5,94,329,0,1,1349
39,63,6,10,4,3,4,94,329,0,1,1608.40000000224
39,63,6,10,4,4,3,94,329,0,1,1066.90000000224
39,63,6,10,4,5,2,94,329,0,1,1425.5
39,63,6,10,4,6,1,94,329,0,1,1331.80000000075
39,63,6,10,4,7,0,94,329,0,1,1300.79999999702
39,63,6,10,4,8,0,94,329,0,1,1146
39,63,6,10,4,9,0,94,329,0,1,1085.89999999851
39,63,6,10,4,10,0,94,329,0,1,1120.10000000149
39,64,7,7,0,1,7,93,297,0,1,1005.19999999925
39,64,7,7,0,2,6,93,297,0,1,1439.10000000149
39,64,7,7,0,3,5,93,297,0,1,1123.79999999702
39,64,7,7,0,4,4,93,297,0,1,1478.30000000075
39,64,7,7,0,5,3,93,297,0,1,1060.89999999851
39,64,7,7,0,6,2,93,297,0,1,940.400000002235
39,64,7,7,0,7,1,93,297,0,1,1024.69999999926
39,65,7,3,-4,1,0,226,419,0,1,1132.80000000075
39,65,7,3,-4,2,6,226,419,0,1,1043.39999999851
39,65,7,3,-4,3,5,226,419,0,1,1038.69999999926
39,66,6,6,0,1,4,112,274,0,1,1189.89999999851
39,66,6,6,0,2,5,112,274,0,1,1039.09999999776
39,66,6,6,0,3,4,112,274,0,1,1347.10000000149
39,66,6,6,0,4,3,112,274,0,1,1054.29999999702
39,66,6,6,0,5,2,112,274,0,1,1527.39999999851
39,66,6,6,0,6,1,112,274,0,1,999
39,67,5,5,0,1,0,104,296,0,1,1452.59999999776
39,67,5,5,0,2,4,104,296,0,1,962.300000000745
39,67,5,5,0,3,3,104,296,0,1,963.300000000745
39,67,5,5,0,4,2,104,296,0,1,979.900000002235
39,67,5,5,0,5,1,104,296,0,1,1630.19999999926
39,68,5,5,0,1,0,49,277,0,1,1226.09999999776
39,68,5,5,0,2,4,49,277,0,1,1129.19999999926
39,68,5,5,0,3,3,49,277,0,1,1126.5
39,68,5,5,0,4,2,49,277,0,1,957.10000000149
39,68,5,5,0,5,1,49,277,0,1,1050.19999999926
39,69,5,5,0,1,0,90,279,0,1,1095.90000000224
39,69,5,5,0,2,4,90,279,0,1,1660.09999999776
39,69,5,5,0,3,3,90,279,0,1,1016.90000000224
39,69,5,5,0,4,2,90,279,0,1,1068
39,69,5,5,0,5,1,90,279,0,1,1009.69999999925
39,70,6,6,0,1,0,295,444,0,1,1700.80000000075
39,70,6,6,0,2,5,295,444,0,1,1075.80000000075
39,70,6,6,0,3,4,295,444,0,1,953
39,70,6,6,0,4,3,295,444,0,1,1074.69999999926
39,70,6,6,0,5,2,295,444,0,1,1004.5
39,70,6,6,0,6,1,295,444,0,1,1004.39999999851
39,71,6,7,1,1,0,97,313,0,1,1088.69999999926
39,71,6,7,1,2,5,97,313,0,1,1024.09999999776
39,71,6,7,1,3,4,97,313,0,1,1198.19999999926
39,71,6,7,1,4,3,97,313,0,1,1097.70000000298
39,71,6,7,1,5,2,97,313,0,1,1129.79999999702
39,71,6,7,1,6,1,97,313,0,1,1014.20000000298
39,71,6,7,1,7,0,97,313,0,1,1143.70000000298
39,72,5,9,4,1,5,329,561,0,1,1376.30000000075
39,72,5,9,4,2,4,329,561,0,1,965.800000000745
39,72,5,9,4,3,3,329,561,0,1,1065.60000000149
39,72,5,9,4,4,2,329,561,0,1,1065.80000000075
39,72,5,9,4,5,1,329,561,0,1,1207.89999999851
39,72,5,9,4,6,0,329,561,0,1,1052.80000000075
39,72,5,9,4,7,0,329,561,0,1,1179
39,72,5,9,4,8,0,329,561,0,1,968.5
39,72,5,9,4,9,0,329,561,0,1,1064
39,73,5,5,0,1,5,275,446,3,0,1065.89999999851
39,,,,,,,,,,,
39,73,5,5,0,2,4,275,446,0,1,1639.5
39,73,5,5,0,3,3,275,446,0,1,1012.69999999926
39,73,5,5,0,4,2,275,446,0,1,1622
39,73,5,5,0,5,1,275,446,0,1,1000.60000000149
39,74,5,5,0,1,0,180,392,0,1,2249.80000000075
39,74,5,5,0,2,4,180,392,0,1,1025.10000000149
39,74,5,5,0,3,3,180,392,0,1,1021.20000000298
39,74,5,5,0,4,2,180,392,0,1,991.20000000298
39,74,5,5,0,5,1,180,392,0,1,1730.89999999851
39,75,5,5,0,1,0,124,284,0,1,1541.70000000298
39,75,5,5,0,2,4,124,284,0,1,1151.90000000224
39,75,5,5,0,3,3,124,284,0,1,1021.80000000075
39,75,5,5,0,4,2,124,284,0,1,1025.90000000224
39,75,5,5,0,5,1,124,284,0,1,1079.19999999926
39,76,7,7,0,1,0,260,454,0,1,1683.30000000075
39,76,7,7,0,2,6,260,454,0,1,1003.39999999851
39,76,7,7,0,3,5,260,454,0,1,1126.19999999926
39,76,7,7,0,4,4,260,454,0,1,1100
39,76,7,7,0,5,3,260,454,0,1,1138.39999999851
39,76,7,7,0,6,2,260,454,0,1,1613.69999999926
39,76,7,7,0,7,1,260,454,0,1,1098.09999999776
39,77,6,9,3,1,0,353,532,0,1,1161.5
39,77,6,9,3,2,5,353,532,0,1,1177
39,77,6,9,3,3,4,353,532,0,1,1358.40000000224
39,77,6,9,3,4,3,353,532,0,1,1059
39,77,6,9,3,5,2,353,532,0,1,1135.90000000224
39,77,6,9,3,6,1,353,532,0,1,1084.5
39,77,6,9,3,7,0,353,532,0,1,1104.40000000224
39,77,6,9,3,8,0,353,532,0,1,1073.80000000075
39,77,6,9,3,9,0,353,532,0,1,1116.59999999776
39,78,6,6,0,1,6,302,530,0,1,1847.69999999926
39,78,6,6,0,2,5,302,530,0,1,1012.80000000075
39,78,6,6,0,3,4,302,530,0,1,988.099999997765
39,78,6,6,0,4,3,302,530,0,1,1140.39999999851
39,78,6,6,0,5,2,302,530,0,1,995.60000000149
39,78,6,6,0,6,1,302,530,0,1,1498.40000000224
39,79,6,6,0,1,0,146,356,0,1,1425.20000000298
39,79,6,6,0,2,5,146,356,0,1,1130
39,79,6,6,0,3,4,146,356,0,1,1510.70000000298
39,79,6,6,0,4,3,146,356,0,1,971
39,79,6,6,0,5,2,146,356,0,1,1139.09999999777
39,79,6,6,0,6,1,146,356,0,1,1064.19999999925
39,80,5,5,0,1,0,83,262,0,1,1479.19999999926
39,80,5,5,0,2,4,83,262,0,1,986.400000002235
39,80,5,5,0,3,3,83,262,0,1,1388.30000000075
39,80,5,5,0,4,2,83,262,0,1,1038.60000000149
39,80,5,5,0,5,1,83,262,0,1,1188.69999999926
39,81,7,3,-4,1,0,95,328,0,1,1086.5
39,81,7,3,-4,2,6,95,328,0,1,941.400000002235
39,81,7,3,-4,3,5,95,328,0,1,932.89999999851
39,82,6,6,0,1,4,160,388,0,1,1171.59999999776
39,82,6,6,0,2,5,160,388,0,1,1375.40000000224
39,82,6,6,0,3,4,160,388,0,1,1045.10000000149
39,82,6,6,0,4,3,160,388,0,1,1627.60000000149
39,82,6,6,0,5,2,160,388,0,1,1078.19999999925
39,82,6,6,0,6,1,160,388,0,1,1467.5
39,83,7,7,0,1,0,307,462,0,1,1244.90000000224
39,83,7,7,0,2,6,307,462,0,1,1008.5
39,83,7,7,0,3,5,307,462,0,1,1235.60000000149
39,83,7,7,0,4,4,307,462,0,1,1082.30000000075
39,83,7,7,0,5,3,307,462,0,1,1121.19999999926
39,83,7,7,0,6,2,307,462,0,1,995.60000000149
39,83,7,7,0,7,1,307,462,0,1,958.10000000149
39,84,7,9,2,1,0,248,465,0,1,1060.90000000224
39,84,7,9,2,2,6,248,465,0,1,1555.5
39,84,7,9,2,3,5,248,465,0,1,1012.89999999851
39,84,7,9,2,4,4,248,465,0,1,1185.60000000149
39,84,7,9,2,5,3,248,465,0,1,1233.59999999777
39,84,7,9,2,6,2,248,465,0,1,1118
39,84,7,9,2,7,1,248,465,0,1,1417.40000000224
39,84,7,9,2,8,0,248,465,0,1,1130.19999999926
39,84,7,9,2,9,0,248,465,0,1,1198.5
39,85,5,2,-3,1,5,188,421,0,1,1187.30000000075
39,85,5,2,-3,2,4,188,421,0,1,1105
39,86,7,7,0,1,3,27,235,0,1,1366.29999999702
39,86,7,7,0,2,6,27,235,0,1,1077.39999999851
39,86,7,7,0,3,5,27,235,0,1,1044
39,86,7,7,0,4,4,27,235,0,1,1392.40000000224
39,86,7,7,0,5,3,27,235,0,1,1061.60000000149
39,86,7,7,0,6,2,27,235,0,1,1176.89999999851
39,86,7,7,0,7,1,27,235,0,1,971.10000000149
39,87,6,4,-2,1,0,282,434,0,1,1444.19999999926
39,87,6,4,-2,2,5,282,434,0,1,1038.89999999851
39,87,6,4,-2,3,4,282,434,0,1,1223
39,87,6,4,-2,4,3,282,434,0,1,1064.30000000075
39,88,5,5,0,1,2,85,287,0,1,1103.89999999851
39,88,5,5,0,2,4,85,287,0,1,1171.30000000075
39,88,5,5,0,3,3,85,287,0,1,1714.70000000298
39,88,5,5,0,4,2,85,287,0,1,1045
39,88,5,5,0,5,1,85,287,0,1,1100.69999999926
39,89,7,7,0,1,0,192,400,0,1,1604.79999999702
39,89,7,7,0,2,6,192,400,0,1,1101
39,89,7,7,0,3,5,192,400,0,1,1131.89999999851
39,89,7,7,0,4,4,192,400,0,1,1072.80000000075
39,89,7,7,0,5,3,192,400,0,1,1300
39,89,7,7,0,6,2,192,400,0,1,1224.09999999776
39,89,7,7,0,7,1,192,400,0,1,1015.59999999777
39,90,5,7,2,1,0,281,511,0,1,1135.19999999926
39,90,5,7,2,2,4,281,511,0,1,1846.80000000075
39,90,5,7,2,3,3,281,511,0,1,1300.90000000224
39,90,5,7,2,4,2,281,511,0,1,1046.90000000224
39,90,5,7,2,5,1,281,511,0,1,975.5
39,90,5,7,2,6,0,281,511,0,1,996.199999999255
39,90,5,7,2,7,0,281,511,0,1,1168.09999999776
39,91,6,2,-4,1,6,123,348,0,1,1240.29999999702
39,91,6,2,-4,2,5,123,348,0,1,1084.19999999925
39,92,5,5,0,1,4,104,257,0,1,1078.80000000075
39,92,5,5,0,2,4,104,257,0,1,1562.5
39,92,5,5,0,3,3,104,257,0,1,1021.30000000075
39,92,5,5,0,4,2,104,257,0,1,1053.5
39,92,5,5,0,5,1,104,257,0,1,1056.10000000149
39,93,7,10,3,1,0,146,325,0,1,1052.29999999702
39,93,7,10,3,2,6,146,325,0,1,2541.19999999926
39,93,7,10,3,3,5,146,325,0,1,1042.69999999926
39,93,7,10,3,4,4,146,325,0,1,1069.69999999925
39,93,7,10,3,5,3,146,325,0,1,1134.59999999777
39,93,7,10,3,6,2,146,325,0,1,1323.90000000224
39,93,7,10,3,7,1,146,325,0,1,1051.10000000149
39,93,7,10,3,8,0,146,325,0,1,1123.5
39,93,7,10,3,9,0,146,325,0,1,1258.40000000224
39,93,7,10,3,10,0,146,325,0,1,1129.30000000075
39,94,5,3,-2,1,5,342,567,0,1,1864.80000000075
39,94,5,3,-2,2,4,342,567,0,1,997.10000000149
39,94,5,3,-2,3,3,342,567,0,1,1125.60000000149
39,95,7,7,0,1,2,313,463,0,1,1595.60000000149
39,95,7,7,0,2,6,313,463,0,1,1056.90000000224
39,95,7,7,0,3,5,313,463,0,1,1074.09999999777
39,95,7,7,0,4,4,313,463,0,1,1053.10000000149
39,95,7,7,0,5,3,313,463,0,1,1074.5
39,95,7,7,0,6,2,313,463,0,1,1011
39,95,7,7,0,7,1,313,463,0,1,990.699999999255
39,96,6,6,0,1,0,37,262,0,1,1113.69999999926
39,96,6,6,0,2,5,37,262,0,1,1018.60000000149
39,96,6,6,0,3,4,37,262,0,1,1032.09999999776
39,96,6,6,0,4,3,37,262,0,1,1131.69999999926
39,96,6,6,0,5,2,37,262,0,1,1118.29999999702
39,96,6,6,0,6,1,37,262,0,1,1053.89999999851
39,97,6,8,2,1,0,338,485,0,1,1029.10000000149
39,97,6,8,2,2,5,338,485,0,1,1597.69999999926
39,97,6,8,2,3,4,338,485,0,1,1461.10000000149
39,97,6,8,2,4,3,338,485,0,1,914.800000000745
39,97,6,8,2,5,2,338,485,0,1,1058.60000000149
39,97,6,8,2,6,1,338,485,0,1,963.300000000745
39,97,6,8,2,7,0,338,485,0,1,1578.30000000075
39,97,6,8,2,8,0,338,485,0,1,1199.5
39,98,6,6,0,1,6,62,259,0,1,1187.29999999702
39,98,6,6,0,2,5,62,259,0,1,1349.69999999926
39,98,6,6,0,3,4,62,259,0,1,940.699999999255
39,98,6,6,0,4,3,62,259,0,1,1098.59999999776
39,98,6,6,0,5,2,62,259,0,1,1190.5
39,98,6,6,0,6,1,62,259,0,1,1370
39,99,7,5,-2,1,0,349,556,0,1,1199.29999999702
39,99,7,5,-2,2,6,349,556,0,1,1065.69999999925
39,99,7,5,-2,3,5,349,556,0,1,1140.60000000149
39,99,7,5,-2,4,4,349,556,0,1,1085.80000000075
39,99,7,5,-2,5,3,349,556,0,1,1106.19999999925
39,100,5,5,0,1,2,212,406,0,1,1165.10000000149
39,100,5,5,0,2,4,212,406,0,1,1069
39,100,5,5,0,3,3,212,406,0,1,1202.10000000149
39,100,5,5,0,4,2,212,406,0,1,1093.30000000075
39,100,5,5,0,5,1,212,406,0,1,1083.79999999702
39,101,5,6,1,1,0,256,442,0,1,993.800000000745
39,101,5,6,1,2,4,256,442,0,1,1056.30000000075
39,101,5,6,1,3,3,256,442,0,1,969.900000002235
39,101,5,6,1,4,2,256,442,0,1,1125.30000000075
39,101,5,6,1,5,1,256,442,0,1,1429.69999999926
39,101,5,6,1,6,0,256,442,0,1,1173.69999999926
39,102,6,6,0,1,6,278,434,0,1,1104.59999999776
39,102,6,6,0,2,5,278,434,0,1,1363.79999999702
39,102,6,6,0,3,4,278,434,0,1,992.89999999851
39,102,6,6,0,4,3,278,434,0,1,1097.09999999776
39,102,6,6,0,5,2,278,434,0,1,1173.19999999926
39,102,6,6,0,6,1,278,434,0,1,1360.60000000149
39,103,7,7,0,1,0,101,330,0,1,1835.5
39,103,7,7,0,2,6,101,330,0,1,1188.59999999776
39,103,7,7,0,3,5,101,330,0,1,1137.5
39,103,7,7,0,4,4,101,330,0,1,1041.30000000075
39,103,7,7,0,5,3,101,330,0,1,1121.40000000224
39,103,7,7,0,6,2,101,330,0,1,1139.39999999851
39,103,7,7,0,7,1,101,330,0,1,1115.10000000149
39,104,5,5,0,1,0,276,496,0,1,1554
39,104,5,5,0,2,4,276,496,0,1,1349.69999999926
39,104,5,5,0,3,3,276,496,0,1,1226.10000000149
39,104,5,5,0,4,2,276,496,0,1,1007
39,104,5,5,0,5,1,276,496,0,1,982.599999997765
39,105,6,6,0,1,0,340,505,0,1,974.89999999851
39,105,6,6,0,2,5,340,505,0,1,1007.80000000075
39,105,6,6,0,3,4,340,505,0,1,943.5
39,105,6,6,0,4,3,340,505,0,1,984.800000000745
39,105,6,6,0,5,2,340,505,0,1,1513.80000000075
39,105,6,6,0,6,1,340,505,0,1,962.60000000149
39,106,6,6,0,1,0,280,472,0,1,1177.5
39,106,6,6,0,2,5,280,472,0,1,1447.80000000075
39,106,6,6,0,3,4,280,472,0,1,1082.09999999776
39,106,6,6,0,4,3,280,472,0,1,1116.60000000149
39,106,6,6,0,5,2,280,472,0,1,915.800000000745
39,106,6,6,0,6,1,280,472,0,1,1067.59999999776
39,107,5,1,-4,1,0,149,364,0,1,1493.10000000149
39,108,7,11,4,1,7,342,529,0,1,1442.19999999926
39,108,7,11,4,2,6,342,529,0,1,1226
39,108,7,11,4,3,5,342,529,0,1,993.800000000745
39,108,7,11,4,4,4,342,529,0,1,1145.10000000149
39,108,7,11,4,5,3,342,529,0,1,1659.80000000075
39,108,7,11,4,6,2,342,529,0,1,1029.30000000075
39,108,7,11,4,7,1,342,529,0,1,1021.80000000075
39,108,7,11,4,8,0,342,529,0,1,1115
39,108,7,11,4,9,0,342,529,0,1,1116
39,108,7,11,4,10,0,342,529,0,1,1038.10000000149
39,108,7,11,4,11,0,342,529,0,1,1026.5
39,109,5,3,-2,1,5,120,323,0,1,1503.40000000224
39,109,5,3,-2,2,4,120,323,0,1,1078.19999999925
39,109,5,3,-2,3,3,120,323,0,1,1094.39999999851
39,110,7,7,0,1,2,65,298,0,1,1116.30000000075
39,110,7,7,0,2,6,65,298,0,1,1488.80000000075
39,110,7,7,0,3,5,65,298,0,1,1175
39,110,7,7,0,4,4,65,298,0,1,1009
39,110,7,7,0,5,3,65,298,0,1,992.10000000149
39,110,7,7,0,6,2,65,298,0,1,1600
39,110,7,7,0,7,1,65,298,0,1,1004.39999999851
39,111,7,8,1,1,0,154,352,1,0,1041.39999999851
39,,,,,,,,,,,
39,111,7,8,1,2,6,154,352,0,1,1116.60000000149
39,111,7,8,1,3,5,154,352,0,1,1015.40000000224
39,111,7,8,1,4,4,154,352,0,1,1378.69999999926
39,111,7,8,1,5,3,154,352,0,1,994.5
39,111,7,8,1,6,2,154,352,0,1,2176.19999999926
39,111,7,8,1,7,1,154,352,0,1,1195.89999999851
39,111,7,8,1,8,0,154,352,0,1,1511.5
39,112,5,5,0,1,5,224,440,0,1,1682.59999999776
39,112,5,5,0,2,4,224,440,0,1,1465.09999999776
39,112,5,5,0,3,3,224,440,0,1,1145.30000000075
39,112,5,5,0,4,2,224,440,0,1,1048.5
39,112,5,5,0,5,1,224,440,0,1,1146.39999999851
39,113,5,5,0,1,0,286,440,0,1,1218.69999999926
39,113,5,5,0,2,4,286,440,0,1,1160.29999999702
39,113,5,5,0,3,3,286,440,0,1,1795.80000000075
39,113,5,5,0,4,2,286,440,0,1,1071.39999999851
39,113,5,5,0,5,1,286,440,0,1,1135.80000000075
39,114,5,6,1,1,0,18,206,0,1,1032.30000000075
39,114,5,6,1,2,4,18,206,0,1,1944.90000000224
39,114,5,6,1,3,3,18,206,0,1,1141.19999999926
39,114,5,6,1,4,2,18,206,0,1,1044.80000000075
39,114,5,6,1,5,1,18,206,0,1,1115.5
39,114,5,6,1,6,0,18,206,0,1,1078.29999999702
39,115,6,6,0,1,6,92,312,0,1,1234.19999999926
39,115,6,6,0,2,5,92,312,0,1,1050.89999999851
39,115,6,6,0,3,4,92,312,0,1,1029.69999999925
39,115,6,6,0,4,3,92,312,0,1,1063
39,115,6,6,0,5,2,92,312,0,1,993
39,115,6,6,0,6,1,92,312,0,1,1566.09999999777
39,116,7,7,0,1,0,111,336,0,1,1069.5
39,116,7,7,0,2,6,111,336,0,1,1194.59999999776
39,116,7,7,0,3,5,111,336,0,1,1128.69999999925
39,116,7,7,0,4,4,111,336,0,1,1119.19999999926
39,116,7,7,0,5,3,111,336,0,1,1147.19999999926
39,116,7,7,0,6,2,111,336,0,1,1025.5
39,116,7,7,0,7,1,111,336,0,1,1141.10000000149
39,117,6,6,0,1,0,332,495,0,1,1545.30000000075
39,117,6,6,0,2,5,332,495,0,1,1716.39999999851
39,117,6,6,0,3,4,332,495,0,1,1037.5
39,117,6,6,0,4,3,332,495,0,1,2063.5
39,117,6,6,0,5,2,332,495,0,1,1099.10000000149
39,117,6,6,0,6,1,332,495,0,1,1081.80000000075
39,118,6,6,0,1,0,86,265,0,1,1193.60000000149
39,118,6,6,0,2,5,86,265,0,1,1097.69999999926
39,118,6,6,0,3,4,86,265,0,1,1093
39,118,6,6,0,4,3,86,265,0,1,1117.40000000224
39,118,6,6,0,5,2,86,265,0,1,1144.80000000075
39,118,6,6,0,6,1,86,265,0,1,1569.5
39,119,7,7,0,1,0,122,318,0,1,1762.80000000075
39,119,7,7,0,2,6,122,318,0,1,1145
39,119,7,7,0,3,5,122,318,0,1,1088.69999999926
39,119,7,7,0,4,4,122,318,0,1,1120.69999999926
39,119,7,7,0,5,3,122,318,0,1,1668.70000000298
39,119,7,7,0,6,2,122,318,0,1,1713
39,119,7,7,0,7,1,122,318,0,1,1070.19999999925
39,120,7,7,0,1,0,41,223,0,1,1075.80000000075
39,120,7,7,0,2,6,41,223,0,1,1082
39,120,7,7,0,3,5,41,223,0,1,1417.5
39,120,7,7,0,4,4,41,223,0,1,1027.10000000149
39,120,7,7,0,5,3,41,223,0,1,1211.30000000075
39,120,7,7,0,6,2,41,223,0,1,1186.40000000224
39,120,7,7,0,7,1,41,223,0,1,1110.90000000224
39,121,7,7,0,1,0,49,223,0,1,1102.29999999702
39,121,7,7,0,2,6,49,223,0,1,1111
39,121,7,7,0,3,5,49,223,0,1,1019.69999999925
39,121,7,7,0,4,4,49,223,0,1,1083.19999999926
39,121,7,7,0,5,3,49,223,0,1,1624.80000000075
39,121,7,7,0,6,2,49,223,0,1,1069.30000000075
39,121,7,7,0,7,1,49,223,0,1,1549.10000000149
39,122,7,11,4,1,0,180,394,0,1,1546.60000000149
39,122,7,11,4,2,6,180,394,0,1,1093.80000000075
39,122,7,11,4,3,5,180,394,0,1,1172.20000000298
39,122,7,11,4,4,4,180,394,0,1,1168.30000000075
39,122,7,11,4,5,3,180,394,0,1,1091.19999999926
39,122,7,11,4,6,2,180,394,0,1,1061.59999999776
39,122,7,11,4,7,1,180,394,0,1,1078.39999999851
39,122,7,11,4,8,0,180,394,0,1,1066.20000000298
39,122,7,11,4,9,0,180,394,0,1,1047.30000000075
39,122,7,11,4,10,0,180,394,0,1,1046.10000000149
39,122,7,11,4,11,0,180,394,0,1,1042.30000000075
39,123,5,5,0,1,5,50,284,0,1,1133.90000000224
39,123,5,5,0,2,4,50,284,0,1,1123.39999999851
39,123,5,5,0,3,3,50,284,0,1,1077.09999999776
39,123,5,5,0,4,2,50,284,0,1,1138.30000000075
39,123,5,5,0,5,1,50,284,0,1,1628.90000000224
39,124,6,8,2,1,0,251,440,0,1,1180.89999999851
39,124,6,8,2,2,5,251,440,0,1,1165.69999999926
39,124,6,8,2,3,4,251,440,0,1,1145.60000000149
39,124,6,8,2,4,3,251,440,0,1,1742.60000000149
39,124,6,8,2,5,2,251,440,0,1,1690.09999999776
39,124,6,8,2,6,1,251,440,0,1,1017.59999999776
39,124,6,8,2,7,0,251,440,0,1,1112.40000000224
39,124,6,8,2,8,0,251,440,0,1,1169.5
39,125,7,7,0,1,7,133,361,0,1,1077.69999999925
39,125,7,7,0,2,6,133,361,0,1,1163.39999999851
39,125,7,7,0,3,5,133,361,0,1,1262.80000000075
39,125,7,7,0,4,4,133,361,0,1,1013.09999999776
39,125,7,7,0,5,3,133,361,0,1,1132.19999999926
39,125,7,7,0,6,2,133,361,0,1,1098.90000000224
39,125,7,7,0,7,1,133,361,0,1,1034.89999999851
39,126,7,7,0,1,0,221,428,0,1,1026.80000000075
39,126,7,7,0,2,6,221,428,0,1,1114.19999999925
39,126,7,7,0,3,5,221,428,0,1,1007
39,126,7,7,0,4,4,221,428,0,1,1046.89999999851
39,126,7,7,0,5,3,221,428,0,1,1063.39999999851
39,126,7,7,0,6,2,221,428,0,1,975.599999997765
39,126,7,7,0,7,1,221,428,0,1,1601.39999999851
39,127,5,5,0,1,0,324,474,0,1,1177.69999999926
39,127,5,5,0,2,4,324,474,0,1,989.699999999255
39,127,5,5,0,3,3,324,474,0,1,1007.80000000075
39,127,5,5,0,4,2,324,474,0,1,1057.5
39,127,5,5,0,5,1,324,474,0,1,1055.69999999925
39,128,6,6,0,1,0,263,486,0,1,2102.69999999925
39,128,6,6,0,2,5,263,486,0,1,1068.5
39,128,6,6,0,3,4,263,486,0,1,1061.69999999925
39,128,6,6,0,4,3,263,486,0,1,987.39999999851
39,128,6,6,0,5,2,263,486,0,1,1068.60000000149
39,128,6,6,0,6,1,263,486,0,1,1153.30000000075
39,129,5,5,0,1,0,109,258,0,1,1260.10000000149
39,129,5,5,0,2,4,109,258,0,1,1129.09999999777
39,129,5,5,0,3,3,109,258,0,1,922.60000000149
39,129,5,5,0,4,2,109,258,0,1,1553.59999999776
39,129,5,5,0,5,1,109,258,0,1,911.300000000745
39,130,7,7,0,1,0,228,435,0,1,1317.19999999926
39,130,7,7,0,2,6,228,435,0,1,960.10000000149
39,130,7,7,0,3,5,228,435,0,1,1103.80000000075
39,130,7,7,0,4,4,228,435,0,1,948.39999999851
39,130,7,7,0,5,3,228,435,0,1,1048
39,130,7,7,0,6,2,228,435,0,1,900.099999997765
39,130,7,7,0,7,1,228,435,0,1,1023.80000000075
39,131,7,7,0,1,0,209,420,0,1,1004.30000000075
39,131,7,7,0,2,6,209,420,0,1,1097.19999999926
39,131,7,7,0,3,5,209,420,0,1,1201.5
39,131,7,7,0,4,4,209,420,0,1,1065.40000000224
39,131,7,7,0,5,3,209,420,0,1,1959.19999999926
39,131,7,7,0,6,2,209,420,0,1,1052.39999999851
39,131,7,7,0,7,1,209,420,0,1,1056.5
39,132,7,7,0,1,0,329,546,0,1,1252.09999999777
39,132,7,7,0,2,6,329,546,0,1,1139.80000000075
39,132,7,7,0,3,5,329,546,0,1,999.599999997765
39,132,7,7,0,4,4,329,546,0,1,1124.69999999926
39,132,7,7,0,5,3,329,546,0,1,1016.30000000075
39,132,7,7,0,6,2,329,546,0,1,983.20000000298
39,132,7,7,0,7,1,329,546,0,1,1028.19999999926
39,133,5,8,3,1,0,355,555,0,1,1028.69999999926
39,133,5,8,3,2,4,355,555,0,1,1056.30000000075
39,133,5,8,3,3,3,355,555,0,1,1032.89999999851
39,133,5,8,3,4,2,355,555,0,1,1055.19999999926
39,133,5,8,3,5,1,355,555,0,1,1094.60000000149
39,133,5,8,3,6,0,355,555,0,1,1209.60000000149
39,133,5,8,3,7,0,355,555,0,1,1093.5
39,133,5,8,3,8,0,355,555,0,1,997.70000000298
39,134,5,2,-3,1,5,180,386,0,1,2345
39,134,5,2,-3,2,4,180,386,0,1,1599
39,135,5,5,0,1,3,264,434,8,0,178
39,,,,,,,,,,,
39,135,5,5,0,2,4,264,434,0,1,1588.19999999925
39,135,5,5,0,3,3,264,434,0,1,1023.29999999702
39,135,5,5,0,4,2,264,434,0,1,970.699999999255
39,135,5,5,0,5,1,264,434,0,1,959.39999999851
39,136,5,5,0,1,0,9,220,0,1,1306.80000000075
39,136,5,5,0,2,4,9,220,0,1,1259
39,136,5,5,0,3,3,9,220,0,1,965.70000000298
39,136,5,5,0,4,2,9,220,0,1,1109.90000000224
39,136,5,5,0,5,1,9,220,0,1,1185.80000000075
39,137,7,7,0,1,0,323,529,0,1,1185.5
39,137,7,7,0,2,6,323,529,0,1,1046
39,137,7,7,0,3,5,323,529,0,1,1071.89999999851
39,137,7,7,0,4,4,323,529,0,1,1527.59999999777
39,137,7,7,0,5,3,323,529,0,1,1130.09999999776
39,137,7,7,0,6,2,323,529,0,1,1003.10000000149
39,137,7,7,0,7,1,323,529,0,1,2088.69999999926
39,138,7,7,0,1,0,6,212,0,1,1257.89999999851
39,138,7,7,0,2,6,6,212,0,1,1678.5
39,138,7,7,0,3,5,6,212,0,1,1335.09999999776
39,138,7,7,0,4,4,6,212,0,1,1109.90000000224
39,138,7,7,0,5,3,6,212,0,1,1022
39,138,7,7,0,6,2,6,212,0,1,1219.90000000224
39,138,7,7,0,7,1,6,212,0,1,1043.79999999702
39,139,6,6,0,1,0,272,497,0,1,1640.80000000075
39,139,6,6,0,2,5,272,497,0,1,1260.60000000149
39,139,6,6,0,3,4,272,497,0,1,1092.79999999702
39,139,6,6,0,4,3,272,497,0,1,1053.19999999926
39,139,6,6,0,5,2,272,497,0,1,1151.29999999702
39,139,6,6,0,6,1,272,497,0,1,1090
39,140,7,7,0,1,0,136,308,0,1,1253.09999999776
39,140,7,7,0,2,6,136,308,0,1,1683.39999999851
39,140,7,7,0,3,5,136,308,0,1,1104.89999999851
39,140,7,7,0,4,4,136,308,0,1,1103.80000000075
39,140,7,7,0,5,3,136,308,0,1,996.400000002235
39,140,7,7,0,6,2,136,308,0,1,1054.10000000149
39,140,7,7,0,7,1,136,308,0,1,1615.5
39,141,5,8,3,1,0,241,399,0,1,2014.39999999851
39,141,5,8,3,2,4,241,399,0,1,1482.19999999926
39,141,5,8,3,3,3,241,399,0,1,1045.39999999851
39,141,5,8,3,4,2,241,399,0,1,992.400000002235
39,141,5,8,3,5,1,241,399,0,1,1617.90000000224
39,141,5,8,3,6,0,241,399,0,1,1022.69999999926
39,141,5,8,3,7,0,241,399,0,1,1028.5
39,141,5,8,3,8,0,241,399,0,1,1064.19999999925
39,142,5,7,2,1,5,305,522,0,1,2150.69999999925
39,142,5,7,2,2,4,305,522,0,1,1284.09999999777
39,142,5,7,2,3,3,305,522,0,1,1513.69999999925
39,142,5,7,2,4,2,305,522,0,1,1042.5
39,142,5,7,2,5,1,305,522,0,1,1302.80000000075
39,142,5,7,2,6,0,305,522,0,1,1061.10000000149
39,142,5,7,2,7,0,305,522,0,1,1418.5
39,143,7,9,2,1,7,313,535,0,1,1341
39,143,7,9,2,2,6,313,535,0,1,1352.10000000149
39,143,7,9,2,3,5,313,535,0,1,1298
39,143,7,9,2,4,4,313,535,0,1,1113.60000000149
39,143,7,9,2,5,3,313,535,9,0,1177.70000000298
39,,,,,,,,,,,
39,143,7,9,2,6,2,313,535,0,1,991
39,143,7,9,2,7,1,313,535,0,1,1980.59999999776
39,143,7,9,2,8,0,313,535,0,1,1101.09999999776
39,143,7,9,2,9,0,313,535,0,1,1197
39,144,7,10,3,1,7,61,253,0,1,1158.5
39,144,7,10,3,2,6,61,253,0,1,1165.29999999702
39,144,7,10,3,3,5,61,253,0,1,992
39,144,7,10,3,4,4,61,253,0,1,1064.59999999776
39,144,7,10,3,5,3,61,253,0,1,958.60000000149
39,144,7,10,3,6,2,61,253,0,1,1132.80000000075
39,144,7,10,3,7,1,61,253,0,1,1013.79999999702
39,144,7,10,3,8,0,61,253,0,1,1077.39999999851
39,144,7,10,3,9,0,61,253,0,1,1116.60000000149
39,144,7,10,3,10,0,61,253,0,1,1060.30000000075
18,1,5,7,2,1,5,83,264,0,1,1731.5
18,1,5,7,2,2,4,83,264,0,1,1253.40000000596
18,1,5,7,2,3,3,83,264,0,1,1309.39999999106
18,1,5,7,2,4,2,83,264,0,1,1210.29999999702
18,1,5,7,2,5,1,83,264,0,1,1491.59999999404
18,1,5,7,2,6,0,83,264,0,1,1824.5
18,1,5,7,2,7,0,83,264,0,1,1259.69999998808
18,2,6,6,0,1,6,87,254,0,1,1375.19999998808
18,2,6,6,0,2,5,87,254,0,1,1309
18,2,6,6,0,3,4,87,254,0,1,1343.40000000596
18,2,6,6,0,4,3,87,254,0,1,1446
18,2,6,6,0,5,2,87,254,0,1,1539
18,2,6,6,0,6,1,87,254,0,1,1459.89999999106
18,3,7,7,0,1,0,90,274,0,1,1358.70000000298
18,3,7,7,0,2,6,90,274,0,1,1356.79999999702
18,3,7,7,0,3,5,90,274,0,1,1310
18,3,7,7,0,4,4,90,274,0,1,1308.79999999702
18,3,7,7,0,5,3,90,274,0,1,1277.39999999106
18,3,7,7,0,6,2,90,274,0,1,1309.5
18,3,7,7,0,7,1,90,274,0,1,1361.09999999404
18,4,7,6,-1,1,0,110,267,0,1,1621.29999999702
18,4,7,6,-1,2,6,110,267,0,1,1210.39999999106
18,4,7,6,-1,3,5,110,267,0,1,1494.10000000894
18,4,7,6,-1,4,4,110,267,0,1,1327
18,4,7,6,-1,5,3,110,267,0,1,1341.79999999702
18,4,7,6,-1,6,2,110,267,0,1,1175.70000000298
18,5,7,7,0,1,1,267,475,0,1,1959.69999998808
18,5,7,7,0,2,6,267,475,0,1,1294.59999999404
18,5,7,7,0,3,5,267,475,0,1,1241.10000000894
18,5,7,7,0,4,4,267,475,0,1,1326.10000000894
18,5,7,7,0,5,3,267,475,0,1,1259.79999999702
18,5,7,7,0,6,2,267,475,0,1,1442
18,5,7,7,0,7,1,267,475,0,1,1309.89999999106
18,6,7,7,0,1,0,208,421,0,1,1343.29999999702
18,6,7,7,0,2,6,208,421,0,1,1260.79999999702
18,6,7,7,0,3,5,208,421,0,1,1440.90000000596
18,6,7,7,0,4,4,208,421,0,1,1210.60000000894
18,6,7,7,0,5,3,208,421,0,1,1312.5
18,6,7,7,0,6,2,208,421,0,1,1158.79999999702
18,6,7,7,0,7,1,208,421,0,1,1290.5
18,7,6,6,0,1,0,34,260,0,1,1393.60000000894
18,7,6,6,0,2,5,34,260,0,1,1326.5
18,7,6,6,0,3,4,34,260,0,1,1310.79999999702
18,7,6,6,0,4,3,34,260,0,1,1108.70000000298
18,7,6,6,0,5,2,34,260,0,1,1191.70000000298
18,7,6,6,0,6,1,34,260,0,1,1228.10000000894
18,8,5,5,0,1,0,192,423,0,1,1307.79999999702
18,8,5,5,0,2,4,192,423,0,1,1278.5
18,8,5,5,0,3,3,192,423,0,1,1159.59999999404
18,8,5,5,0,4,2,192,423,0,1,1223.90000000596
18,8,5,5,0,5,1,192,423,0,1,1243.60000000894
18,9,5,3,-2,1,0,63,235,0,1,1208.40000000596
18,9,5,3,-2,2,4,63,235,0,1,1192
18,9,5,3,-2,3,3,63,235,0,1,1244.70000000298
18,10,6,3,-3,1,2,357,535,0,1,1275.40000000596
18,10,6,3,-3,2,5,357,535,0,1,1209.10000000894
18,10,6,3,-3,3,4,357,535,0,1,1128.5
18,11,7,7,0,1,3,60,239,0,1,1055.89999999106
18,11,7,7,0,2,6,60,239,0,1,1160
18,11,7,7,0,3,5,60,239,0,1,992.09999999404
18,11,7,7,0,4,4,60,239,0,1,1127.10000000894
18,11,7,7,0,5,3,60,239,0,1,1109
18,11,7,7,0,6,2,60,239,0,1,1243.40000000596
18,11,7,7,0,7,1,60,239,0,1,1179.29999999702
18,12,6,6,0,1,0,147,341,0,1,1242.30000001192
18,12,6,6,0,2,5,147,341,0,1,1192.5
18,12,6,6,0,3,4,147,341,0,1,1175.09999999404
18,12,6,6,0,4,3,147,341,0,1,1045.10000000894
18,12,6,6,0,5,2,147,341,0,1,1111.20000000298
18,12,6,6,0,6,1,147,341,0,1,2340.59999999404
18,13,7,9,2,1,0,174,346,0,1,1092.09999999404
18,13,7,9,2,2,6,174,346,0,1,1075.89999999106
18,13,7,9,2,3,5,174,346,0,1,1257.20000000298
18,13,7,9,2,4,4,174,346,0,1,1143.70000000298
18,13,7,9,2,5,3,174,346,0,1,1275.89999999106
18,13,7,9,2,6,2,174,346,0,1,1011.90000000596
18,13,7,9,2,7,1,174,346,0,1,1208.79999999702
18,13,7,9,2,8,0,174,346,0,1,1194.79999999702
18,13,7,9,2,9,0,174,346,0,1,1177.29999999702
18,14,7,7,0,1,7,333,482,0,1,1507.69999998808
18,14,7,7,0,2,6,333,482,0,1,1208.5
18,14,7,7,0,3,5,333,482,0,1,1210.79999999702
18,14,7,7,0,4,4,333,482,0,1,1107.90000000596
18,14,7,7,0,5,3,333,482,0,1,1094.19999998808
18,14,7,7,0,6,2,333,482,0,1,1164.70000000298
18,14,7,7,0,7,1,333,482,0,1,1658.20000000298
18,15,7,7,0,1,0,297,494,0,1,1527
18,15,7,7,0,2,6,297,494,0,1,1562
18,15,7,7,0,3,5,297,494,0,1,1255.89999999106
18,15,7,7,0,4,4,297,494,0,1,1446.79999999702
18,15,7,7,0,5,3,297,494,0,1,1074.5
18,15,7,7,0,6,2,297,494,0,1,1277.09999999404
18,15,7,7,0,7,1,297,494,0,1,1142.09999999404
18,16,7,10,3,1,0,321,529,0,1,1727.5
18,16,7,10,3,2,6,321,529,0,1,1261.40000000596
18,16,7,10,3,3,5,321,529,0,1,1242
18,16,7,10,3,4,4,321,529,0,1,1141.39999999106
18,16,7,10,3,5,3,321,529,0,1,1173.79999999702
18,16,7,10,3,6,2,321,529,0,1,1414.29999999702
18,16,7,10,3,7,1,321,529,0,1,1474
18,16,7,10,3,8,0,321,529,0,1,1426.70000000298
18,16,7,10,3,9,0,321,529,0,1,1327
18,16,7,10,3,10,0,321,529,0,1,1490.5
18,17,7,5,-2,1,7,103,334,0,1,1449.20000000298
18,17,7,5,-2,2,6,103,334,0,1,1257.80000001192
18,17,7,5,-2,3,5,103,334,0,1,1174.69999998808
18,17,7,5,-2,4,4,103,334,0,1,1327.40000000596
18,17,7,5,-2,5,3,103,334,0,1,1161.20000000298
18,18,7,10,3,1,2,309,542,0,1,1492.89999999106
18,18,7,10,3,2,6,309,542,0,1,1528
18,18,7,10,3,3,5,309,542,0,1,1160.40000000596
18,18,7,10,3,4,4,309,542,0,1,1164.09999999404
18,18,7,10,3,5,3,309,542,0,1,1179
18,18,7,10,3,6,2,309,542,0,1,1292.30000001192
18,18,7,10,3,7,1,309,542,0,1,1059.5
18,18,7,10,3,8,0,309,542,0,1,1608.89999999106
18,18,7,10,3,9,0,309,542,0,1,1194.90000000596
18,18,7,10,3,10,0,309,542,0,1,1226.5
18,19,5,7,2,1,5,218,420,0,1,1298
18,19,5,7,2,2,4,218,420,0,1,1107.69999998808
18,19,5,7,2,3,3,218,420,0,1,1309.70000000298
18,19,5,7,2,4,2,218,420,0,1,1159
18,19,5,7,2,5,1,218,420,0,1,1160.29999999702
18,19,5,7,2,6,0,218,420,0,1,1108.79999999702
18,19,5,7,2,7,0,218,420,0,1,1146.80000001192
18,20,6,6,0,1,6,255,426,0,1,1274.90000000596
18,20,6,6,0,2,5,255,426,0,1,1228.40000000596
18,20,6,6,0,3,4,255,426,0,1,1175.79999999702
18,20,6,6,0,4,3,255,426,0,1,1126.20000000298
18,20,6,6,0,5,2,255,426,0,1,1291
18,20,6,6,0,6,1,255,426,0,1,1345.40000000596
18,21,7,7,0,1,0,65,284,0,1,1226.89999999106
18,21,7,7,0,2,6,65,284,0,1,1176.59999999404
18,21,7,7,0,3,5,65,284,0,1,1193.29999999702
18,21,7,7,0,4,4,65,284,0,1,1294.40000000596
18,21,7,7,0,5,3,65,284,0,1,1244
18,21,7,7,0,6,2,65,284,0,1,1524
18,21,7,7,0,7,1,65,284,0,1,1242.89999999106
18,22,6,4,-2,1,0,7,179,0,1,1294.79999999702
18,22,6,4,-2,2,5,7,179,0,1,1174.20000000298
18,22,6,4,-2,3,4,7,179,0,1,1075.79999999702
18,22,6,4,-2,4,3,7,179,0,1,1210.60000000894
18,23,7,7,0,1,2,83,255,0,1,1157.60000000894
18,23,7,7,0,2,6,83,255,0,1,1176.5
18,23,7,7,0,3,5,83,255,0,1,1176.5
18,23,7,7,0,4,4,83,255,0,1,1210.70000000298
18,23,7,7,0,5,3,83,255,0,1,1041
18,23,7,7,0,6,2,83,255,0,1,1293.89999999106
18,23,7,7,0,7,1,83,255,0,1,1124.29999999702
18,24,5,6,1,1,0,183,402,0,1,1126.89999999106
18,24,5,6,1,2,4,183,402,0,1,1108.29999999702
18,24,5,6,1,3,3,183,402,0,1,1209.5
18,24,5,6,1,4,2,183,402,0,1,1094.29999999702
18,24,5,6,1,5,1,183,402,0,1,1126.09999999404
18,24,5,6,1,6,0,183,402,0,1,1275.39999999106
18,25,5,5,0,1,5,241,446,0,1,1340.29999999702
18,25,5,5,0,2,4,241,446,0,1,1210
18,25,5,5,0,3,3,241,446,0,1,1091.79999999702
18,25,5,5,0,4,2,241,446,0,1,1026.40000000596
18,25,5,5,0,5,1,241,446,0,1,1641.10000000894
18,26,6,6,0,1,0,119,275,0,1,1814.80000001192
18,26,6,6,0,2,5,119,275,0,1,1145.09999999404
18,26,6,6,0,3,4,119,275,0,1,1261.20000000298
18,26,6,6,0,4,3,119,275,0,1,1024.70000000298
18,26,6,6,0,5,2,119,275,0,1,1109.10000000894
18,26,6,6,0,6,1,119,275,0,1,1124.70000000298
18,27,7,4,-3,1,0,179,414,0,1,1076.60000000894
18,27,7,4,-3,2,6,179,414,0,1,1278.89999999106
18,27,7,4,-3,3,5,179,414,0,1,1061
18,27,7,4,-3,4,4,179,414,0,1,1107.09999999404
18,28,6,6,0,1,3,94,278,0,1,1073.20000000298
18,28,6,6,0,2,5,94,278,0,1,1065.20000000298
18,28,6,6,0,3,4,94,278,0,1,1242.20000000298
18,28,6,6,0,4,3,94,278,0,1,1181.39999999106
18,28,6,6,0,5,2,94,278,0,1,1042.39999999106
18,28,6,6,0,6,1,94,278,0,1,1357.89999999106
18,29,6,2,-4,1,0,82,252,0,1,1143.70000000298
18,29,6,2,-4,2,5,82,252,0,1,1325
18,30,5,5,0,1,4,190,413,0,1,1295.20000000298
18,30,5,5,0,2,4,190,413,0,1,1143.60000000894
18,30,5,5,0,3,3,190,413,0,1,1157.89999999106
18,30,5,5,0,4,2,190,413,0,1,1726.79999999702
18,30,5,5,0,5,1,190,413,0,1,1093.69999998808
18,31,5,9,4,1,0,205,435,0,1,1526
18,31,5,9,4,2,4,205,435,0,1,1143.70000000298
18,31,5,9,4,3,3,205,435,0,1,1607.79999999702
18,31,5,9,4,4,2,205,435,0,1,1409.5
18,31,5,9,4,5,1,205,435,0,1,1095.09999999404
18,31,5,9,4,6,0,205,435,0,1,1573.70000000298
18,31,5,9,4,7,0,205,435,0,1,962.899999991059
18,31,5,9,4,8,0,205,435,0,1,1127.59999999404
18,31,5,9,4,9,0,205,435,0,1,1077.29999999702
18,32,6,6,0,1,6,189,413,0,1,1210.30000001192
18,32,6,6,0,2,5,189,413,0,1,1593.40000000596
18,32,6,6,0,3,4,189,413,0,1,1092.79999999702
18,32,6,6,0,4,3,189,413,0,1,1242.19999998808
18,32,6,6,0,5,2,189,413,0,1,1309.29999999702
18,32,6,6,0,6,1,189,413,0,1,1057.80000001192
18,33,6,6,0,1,0,233,429,0,1,1111.09999999404
18,33,6,6,0,2,5,233,429,0,1,961.29999999702
18,33,6,6,0,3,4,233,429,0,1,1093.09999999404
18,33,6,6,0,4,3,233,429,0,1,1173.59999999404
18,33,6,6,0,5,2,233,429,0,1,1042.79999999702
18,33,6,6,0,6,1,233,429,0,1,1060.29999999702
18,34,7,7,0,1,0,124,320,0,1,1626.39999999106
18,34,7,7,0,2,6,124,320,0,1,1122.10000000894
18,34,7,7,0,3,5,124,320,0,1,1178.39999999106
18,34,7,7,0,4,4,124,320,0,1,1111.59999999404
18,34,7,7,0,5,3,124,320,0,1,1440.70000000298
18,34,7,7,0,6,2,124,320,0,1,1209.30000001192
18,34,7,7,0,7,1,124,320,0,1,1023.70000000298
18,35,6,6,0,1,0,212,446,0,1,1210.5
18,35,6,6,0,2,5,212,446,0,1,1293.59999999404
18,35,6,6,0,3,4,212,446,0,1,1159.5
18,35,6,6,0,4,3,212,446,0,1,1028.40000000596
18,35,6,6,0,5,2,212,446,0,1,1142.90000000596
18,35,6,6,0,6,1,212,446,0,1,1091.20000000298
18,36,6,6,0,1,0,38,249,0,1,1775.90000000596
18,36,6,6,0,2,5,38,249,0,1,1026.5
18,36,6,6,0,3,4,38,249,0,1,1173.89999999106
18,36,6,6,0,4,3,38,249,0,1,1277.79999999702
18,36,6,6,0,5,2,38,249,0,1,1924.90000000596
18,36,6,6,0,6,1,38,249,0,1,928.100000008941
18,37,6,9,3,1,0,146,299,0,1,1075.30000001192
18,37,6,9,3,2,5,146,299,0,1,1125.29999999702
18,37,6,9,3,3,4,146,299,0,1,1212.09999999404
18,37,6,9,3,4,3,146,299,0,1,1160.39999999106
18,37,6,9,3,5,2,146,299,0,1,1114.39999999106
18,37,6,9,3,6,1,146,299,0,1,1477.20000000298
18,37,6,9,3,7,0,146,299,0,1,1208
18,37,6,9,3,8,0,146,299,0,1,1259.70000000298
18,37,6,9,3,9,0,146,299,0,1,1159.59999999404
18,38,7,7,0,1,7,315,527,0,1,1658.19999998808
18,38,7,7,0,2,6,315,527,0,1,1190.60000000894
18,38,7,7,0,3,5,315,527,0,1,1177
18,38,7,7,0,4,4,315,527,0,1,1076
18,38,7,7,0,5,3,315,527,0,1,1209.90000000596
18,38,7,7,0,6,2,315,527,0,1,1324.70000000298
18,38,7,7,0,7,1,315,527,0,1,1293.10000000894
18,39,5,5,0,1,0,82,237,0,1,1610.10000000894
18,39,5,5,0,2,4,82,237,0,1,1292.20000000298
18,39,5,5,0,3,3,82,237,0,1,1225.10000000894
18,39,5,5,0,4,2,82,237,0,1,1076.70000000298
18,39,5,5,0,5,1,82,237,0,1,1443.5
18,40,7,8,1,1,0,214,399,0,1,1443.20000000298
18,40,7,8,1,2,6,214,399,0,1,1209
18,40,7,8,1,3,5,214,399,0,1,1276.5
18,40,7,8,1,4,4,214,399,0,1,1644.09999999404
18,40,7,8,1,5,3,214,399,0,1,1042.5
18,40,7,8,1,6,2,214,399,0,1,1108.90000000596
18,40,7,8,1,7,1,214,399,0,1,1294.70000000298
18,40,7,8,1,8,0,214,399,0,1,1413.89999999106
18,41,5,5,0,1,5,276,438,0,1,1195
18,41,5,5,0,2,4,276,438,0,1,1207.89999999106
18,41,5,5,0,3,3,276,438,0,1,1242.30000001192
18,41,5,5,0,4,2,276,438,0,1,1258
18,41,5,5,0,5,1,276,438,0,1,1448
18,42,5,5,0,1,0,39,184,0,1,1592.59999999404
18,42,5,5,0,2,4,39,184,0,1,1361.60000000894
18,42,5,5,0,3,3,39,184,0,1,1444.09999999404
18,42,5,5,0,4,2,39,184,0,1,1224.09999999404
18,42,5,5,0,5,1,39,184,0,1,1294.20000000298
18,43,6,6,0,1,0,228,460,0,1,1378.60000000894
18,43,6,6,0,2,5,228,460,0,1,1224.30000001192
18,43,6,6,0,3,4,228,460,0,1,1410
18,43,6,6,0,4,3,228,460,0,1,1345.5
18,43,6,6,0,5,2,228,460,0,1,1308
18,43,6,6,0,6,1,228,460,0,1,1142.40000000596
18,44,6,6,0,1,0,344,567,0,1,1142
18,44,6,6,0,2,5,344,567,0,1,1093.5
18,44,6,6,0,3,4,344,567,0,1,1045.89999999106
18,44,6,6,0,4,3,344,567,0,1,1125.30000001192
18,44,6,6,0,5,2,344,567,0,1,1192.29999999702
18,44,6,6,0,6,1,344,567,0,1,1258.40000000596
18,45,6,6,0,1,0,21,202,0,1,1144.20000000298
18,45,6,6,0,2,5,21,202,0,1,961.70000000298
18,45,6,6,0,3,4,21,202,0,1,1307.60000000894
18,45,6,6,0,4,3,21,202,0,1,1076.79999999702
18,45,6,6,0,5,2,21,202,0,1,1895.79999999702
18,45,6,6,0,6,1,21,202,0,1,1189
18,46,7,8,1,1,0,343,549,0,1,1144.40000000596
18,46,7,8,1,2,6,343,549,0,1,1309.10000000894
18,46,7,8,1,3,5,343,549,0,1,1324.79999999702
18,46,7,8,1,4,4,343,549,0,1,1210.59999999404
18,46,7,8,1,5,3,343,549,0,1,1126.10000000894
18,46,7,8,1,6,2,343,549,0,1,1209.79999999702
18,46,7,8,1,7,1,343,549,0,1,1224.70000000298
18,46,7,8,1,8,0,343,549,0,1,1561.79999999702
18,47,5,8,3,1,5,332,509,0,1,1291.59999999404
18,47,5,8,3,2,4,332,509,0,1,1177.20000000298
18,47,5,8,3,3,3,332,509,0,1,1212.09999999404
18,47,5,8,3,4,2,332,509,0,1,1607.40000000596
18,47,5,8,3,5,1,332,509,0,1,1028.60000000894
18,47,5,8,3,6,0,332,509,0,1,1143.09999999404
18,47,5,8,3,7,0,332,509,0,1,1342.70000000298
18,47,5,8,3,8,0,332,509,0,1,1241.89999999106
18,48,7,7,0,1,7,67,278,0,1,1492.29999999702
18,48,7,7,0,2,6,67,278,0,1,1211
18,48,7,7,0,3,5,67,278,0,1,1226
18,48,7,7,0,4,4,67,278,0,1,1261.79999999702
18,48,7,7,0,5,3,67,278,0,1,1160.5
18,48,7,7,0,6,2,67,278,0,1,1259.29999999702
18,48,7,7,0,7,1,67,278,0,1,1193.79999999702
18,49,5,5,0,1,0,193,347,0,1,1409.10000000894
18,49,5,5,0,2,4,193,347,0,1,1359.60000000894
18,49,5,5,0,3,3,193,347,0,1,1759.40000000596
18,49,5,5,0,4,2,193,347,0,1,1112.59999999404
18,49,5,5,0,5,1,193,347,0,1,1193
18,50,5,5,0,1,0,179,377,0,1,1077.10000000894
18,50,5,5,0,2,4,179,377,0,1,1194.5
18,50,5,5,0,3,3,179,377,0,1,1125.09999999404
18,50,5,5,0,4,2,179,377,0,1,1127.60000000894
18,50,5,5,0,5,1,179,377,0,1,1126.19999998808
18,51,5,5,0,1,0,249,394,0,1,1027.40000000596
18,51,5,5,0,2,4,249,394,0,1,1010.39999999106
18,51,5,5,0,3,3,249,394,0,1,995.79999999702
18,51,5,5,0,4,2,249,394,0,1,1674.89999999106
