participant,trial_counter,condition,target_to_competitor,decoy_reduction,decoy_on,chosen_item,correct,rt
1,1,perceptual,0.1,0.05,competitor,competitor,0,8.192
1,2,numeric,0.03,0.2,target,target,1,7.961
1,3,perceptual,0.1,0.05,target,decoy,0,4.555
1,4,perceptual,0.03,0.05,target,target,1,6.876
1,5,perceptual,0.1,0.05,target,target,1,4.967
1,6,perceptual,0.03,0.05,competitor,decoy,0,4.981
1,7,numeric,0.1,0.2,competitor,competitor,0,9.484
1,8,perceptual,0.03,0.05,competitor,target,1,6.649
1,9,perceptual,0.1,0.2,target,target,1,3.687
1,10,perceptual,0.1,0.2,target,target,1,5.258
1,11,perceptual,0.1,0.05,target,decoy,0,5.081
1,12,perceptual,0.1,0.05,competitor,decoy,0,4.074
1,13,perceptual,0.1,0.2,target,competitor,0,4.509
1,14,numeric,0.03,0.05,target,target,1,8.826
1,15,perceptual,0.03,0.05,target,decoy,0,6.653
1,16,numeric,0.1,0.2,target,target,1,6.523
1,17,perceptual,0.1,0.05,target,decoy,0,4.135
1,18,numeric,0.03,0.05,competitor,competitor,0,10.007
1,19,perceptual,0.03,0.05,competitor,target,1,7.846
1,20,perceptual,0.1,0.05,target,target,1,7.36
1,21,perceptual,0.1,0.05,target,competitor,0,5.031
1,22,numeric,0.1,0.2,competitor,target,1,8.544
1,23,perceptual,0.1,0.2,target,target,1,4.52
1,24,perceptual,0.1,0.2,target,competitor,0,5.189
1,25,numeric,0.03,0.05,competitor,competitor,0,17.614
1,26,perceptual,0.03,0.05,competitor,target,1,7.33
1,27,perceptual,0.03,0.05,target,target,1,3.945
1,28,numeric,0.1,0.2,competitor,target,1,10.477
1,29,perceptual,0.1,0.05,target,target,1,4.862
1,30,numeric,0.1,0.2,competitor,target,1,7.451
1,31,numeric,0.03,0.05,competitor,target,1,7.762
1,32,numeric,0.03,0.2,target,competitor,0,10.778
1,33,numeric,0.1,0.05,competitor,target,1,7.46
1,34,perceptual,0.1,0.2,competitor,competitor,0,6.502
1,35,numeric,0.03,0.05,target,target,1,7.526
1,36,numeric,0.1,0.05,target,target,1,13.18
1,37,perceptual,0.03,0.2,competitor,competitor,0,8.888
1,38,perceptual,0.1,0.2,competitor,competitor,0,5.996
1,39,numeric,0.03,0.2,competitor,target,1,12.153
1,40,perceptual,0.03,0.05,target,decoy,0,3.689
1,41,perceptual,0.1,0.05,competitor,decoy,0,6.961
1,42,numeric,0.1,0.2,target,target,1,6.062
1,43,perceptual,0.03,0.05,competitor,competitor,0,4.309
1,44,numeric,0.1,0.05,competitor,target,1,8.154
1,45,numeric,0.1,0.05,target,target,1,9.817
1,46,numeric,0.03,0.05,target,competitor,0,14.11
1,47,perceptual,0.03,0.05,competitor,target,1,4.362
1,48,numeric,0.03,0.2,competitor,competitor,0,9.931
1,49,perceptual,0.1,0.2,target,competitor,0,6.757
1,50,perceptual,0.03,0.2,competitor,target,1,4.935
1,51,numeric,0.1,0.05,competitor,target,1,7.912
1,52,numeric,0.03,0.2,competitor,competitor,0,14.655
1,53,numeric,0.03,0.2,target,target,1,6.374
1,54,perceptual,0.03,0.2,competitor,competitor,0,4.312
1,55,numeric,0.03,0.2,competitor,target,1,11.392
1,56,numeric,0.03,0.05,competitor,competitor,0,7.001
1,57,numeric,0.1,0.05,target,target,1,17.241
1,58,perceptual,0.1,0.05,target,competitor,0,5.96
1,59,perceptual,0.1,0.2,competitor,target,1,3.586
1,60,numeric,0.1,0.2,target,target,1,17.518
1,61,perceptual,0.03,0.05,competitor,target,1,5.04
1,62,numeric,0.03,0.2,target,target,1,12.144
1,63,perceptual,0.03,0.05,target,competitor,0,6.103
1,64,perceptual,0.03,0.2,competitor,target,1,4.373
1,65,perceptual,0.03,0.05,target,decoy,0,4.587
1,66,perceptual,0.1,0.05,target,decoy,0,3.751
1,67,numeric,0.03,0.05,competitor,target,1,4.639
1,68,perceptual,0.1,0.2,target,competitor,0,3.725
1,69,numeric,0.03,0.05,competitor,target,1,13.446
1,70,numeric,0.1,0.2,target,target,1,7.416
1,71,numeric,0.1,0.05,competitor,competitor,0,11.24
1,72,perceptual,0.03,0.2,target,competitor,0,4.512
1,73,numeric,0.03,0.2,competitor,target,1,6.856
1,74,perceptual,0.1,0.2,competitor,target,1,7.22
1,75,perceptual,0.1,0.2,target,target,1,4.634
1,76,perceptual,0.03,0.2,target,target,1,3.286
1,77,perceptual,0.1,0.2,competitor,competitor,0,6.495
1,78,numeric,0.03,0.2,target,competitor,0,5.353
1,79,perceptual,0.03,0.2,target,target,1,16.503
1,80,numeric,0.03,0.05,target,target,1,10.699
1,81,perceptual,0.1,0.2,target,competitor,0,4.114
1,82,perceptual,0.1,0.2,target,competitor,0,6.592
1,83,numeric,0.1,0.05,competitor,competitor,0,9.291
1,84,perceptual,0.03,0.2,target,decoy,0,6.538
1,85,perceptual,0.1,0.05,competitor,decoy,0,6.015
1,86,numeric,0.03,0.2,competitor,target,1,10.175
1,87,numeric,0.03,0.2,target,target,1,8.181
1,88,perceptual,0.1,0.2,competitor,target,1,5.461
1,89,numeric,0.1,0.05,target,target,1,6.606
1,90,numeric,0.1,0.2,competitor,target,1,11.908
1,91,numeric,0.03,0.05,competitor,competitor,0,8.703
1,92,perceptual,0.03,0.05,target,competitor,0,4.542
1,93,numeric,0.03,0.2,target,target,1,6.27
1,94,numeric,0.1,0.2,target,target,1,14.2
1,95,numeric,0.1,0.05,competitor,target,1,6.757
1,96,numeric,0.1,0.05,target,target,1,6.357
1,97,perceptual,0.03,0.05,competitor,competitor,0,6.727
1,98,numeric,0.03,0.05,target,target,1,7.225
1,99,numeric,0.03,0.2,competitor,competitor,0,5.664
1,100,numeric,0.1,0.05,target,target,1,14.498
1,101,numeric,0.03,0.05,target,target,1,7.369
1,102,perceptual,0.03,0.2,target,target,1,4.019
1,103,perceptual,0.03,0.2,competitor,competitor,0,5.04
1,104,numeric,0.1,0.05,target,target,1,6.426
1,105,perceptual,0.03,0.2,target,competitor,0,3.889
1,106,numeric,0.03,0.05,competitor,competitor,0,9.921
1,107,numeric,0.1,0.2,target,target,1,10.93
1,108,perceptual,0.1,0.05,competitor,decoy,0,5.238
1,109,perceptual,0.03,0.05,target,decoy,0,5.791
1,110,perceptual,0.1,0.2,competitor,decoy,0,5.524
1,111,numeric,0.03,0.2,target,target,1,7.869
1,112,numeric,0.03,0.2,competitor,target,1,6.524
1,113,perceptual,0.1,0.05,competitor,target,1,9.53
1,114,perceptual,0.1,0.2,competitor,decoy,0,6.169
1,115,numeric,0.03,0.05,target,target,1,6.44
1,116,perceptual,0.03,0.05,competitor,target,1,6.574
1,117,numeric,0.03,0.2,competitor,competitor,0,11.061
1,118,perceptual,0.03,0.2,target,competitor,0,3.488
1,119,numeric,0.1,0.2,target,target,1,10.502
1,120,numeric,0.1,0.05,competitor,target,1,8.048
1,121,numeric,0.1,0.2,competitor,competitor,0,14.122
1,122,numeric,0.1,0.05,competitor,target,1,6.53
1,123,numeric,0.1,0.2,competitor,competitor,0,10.139
1,124,perceptual,0.1,0.2,target,competitor,0,4.534
1,125,perceptual,0.1,0.2,competitor,competitor,0,3.968
1,126,numeric,0.03,0.2,target,competitor,0,6.16
1,127,numeric,0.1,0.2,competitor,target,1,7.9
1,128,numeric,0.03,0.05,competitor,target,1,7.175
1,129,numeric,0.03,0.2,target,target,1,5.594
1,130,perceptual,0.03,0.2,target,decoy,0,4.36
1,131,numeric,0.03,0.05,competitor,competitor,0,6.33
1,132,numeric,0.03,0.2,target,target,1,10.689
1,133,numeric,0.03,0.05,target,target,1,9.749
1,134,numeric,0.1,0.05,competitor,competitor,0,10.317
1,135,perceptual,0.03,0.05,competitor,target,1,3.562
1,136,perceptual,0.03,0.05,competitor,competitor,0,4.433
1,137,numeric,0.1,0.05,target,target,1,10.26
1,138,numeric,0.1,0.05,target,target,1,10.307
1,139,numeric,0.03,0.2,competitor,competitor,0,6.599
1,140,perceptual,0.03,0.2,target,competitor,0,3.315
1,141,perceptual,0.1,0.05,competitor,decoy,0,4.708
1,142,numeric,0.1,0.2,target,target,1,9.445
1,143,perceptual,0.03,0.2,competitor,target,1,4.39
1,144,numeric,0.1,0.2,competitor,competitor,0,8.509
1,145,perceptual,0.1,0.05,competitor,competitor,0,6.331
1,146,perceptual,0.1,0.05,competitor,decoy,0,5.971
1,147,perceptual,0.03,0.05,target,competitor,0,4.734
1,148,numeric,0.1,0.2,target,competitor,0,9.053
1,149,perceptual,0.1,0.2,target,decoy,0,4.421
1,150,perceptual,0.1,0.05,competitor,target,1,4.548
1,151,numeric,0.03,0.05,competitor,target,1,7.36
1,152,perceptual,0.1,0.05,competitor,decoy,0,5.256
1,153,perceptual,0.03,0.05,target,target,1,5.353
1,154,numeric,0.03,0.05,target,target,1,8.619
1,155,perceptual,0.03,0.2,competitor,target,1,4.078
1,156,numeric,0.1,0.2,target,target,1,13.341
1,157,numeric,0.1,0.2,target,target,1,7.465
1,158,numeric,0.03,0.05,target,target,1,8.549
1,159,numeric,0.1,0.05,target,target,1,9.288
1,160,perceptual,0.1,0.2,competitor,target,1,5.943
1,161,perceptual,0.03,0.2,competitor,competitor,0,4.357
1,162,perceptual,0.03,0.2,competitor,competitor,0,2.805
1,163,perceptual,0.03,0.2,target,competitor,0,4.751
1,164,perceptual,0.1,0.05,target,target,1,3.953
1,165,perceptual,0.03,0.2,competitor,competitor,0,6.019
1,166,numeric,0.03,0.2,target,competitor,0,15.167
1,167,numeric,0.1,0.2,competitor,target,1,9.355
1,168,perceptual,0.03,0.05,target,decoy,0,4.347
1,169,perceptual,0.03,0.2,competitor,competitor,0,3.95
1,170,perceptual,0.03,0.05,target,competitor,0,3.174
1,171,numeric,0.1,0.05,competitor,competitor,0,6.48
1,172,numeric,0.1,0.05,target,target,1,6.985
1,173,numeric,0.1,0.2,target,target,1,6.931
1,174,perceptual,0.03,0.2,target,target,1,3.942
1,175,perceptual,0.03,0.05,competitor,target,1,3.037
1,176,perceptual,0.03,0.2,target,target,1,3.69
1,177,perceptual,0.1,0.05,competitor,target,1,3.527
1,178,numeric,0.1,0.05,target,target,1,9.845
1,179,numeric,0.03,0.2,competitor,competitor,0,8.875
1,180,perceptual,0.1,0.05,target,decoy,0,4.097
1,181,numeric,0.03,0.2,competitor,competitor,0,7.305
1,182,numeric,0.1,0.05,competitor,target,1,6.69
1,183,numeric,0.03,0.05,target,competitor,0,6.865
1,184,perceptual,0.1,0.2,competitor,target,1,5.147
1,185,perceptual,0.03,0.2,competitor,competitor,0,5.446
1,186,perceptual,0.1,0.05,target,target,1,4.407
1,187,numeric,0.1,0.2,competitor,target,1,8.307
1,188,perceptual,0.1,0.2,competitor,competitor,0,3.371
1,189,numeric,0.03,0.05,target,target,1,5.757
1,190,numeric,0.1,0.2,competitor,competitor,0,8.531
1,191,numeric,0.03,0.05,competitor,target,1,11.791
1,192,numeric,0.1,0.05,competitor,target,1,11.284
2,1,numeric,0.1,0.05,target,competitor,0,8.545
2,2,perceptual,0.1,0.05,competitor,target,1,6.388
2,3,perceptual,0.03,0.05,target,target,1,9.68
2,4,perceptual,0.03,0.2,competitor,competitor,0,7.358
2,5,numeric,0.03,0.05,target,target,1,8.042
2,6,numeric,0.1,0.2,target,target,1,5.797
2,7,numeric,0.03,0.2,competitor,competitor,0,9.622
2,8,perceptual,0.1,0.2,competitor,decoy,0,5.94
2,9,perceptual,0.1,0.2,competitor,target,1,8.737
2,10,numeric,0.1,0.05,target,target,1,9.966
2,11,perceptual,0.03,0.05,competitor,competitor,0,8.727
2,12,numeric,0.1,0.2,target,target,1,10.429
2,13,numeric,0.03,0.2,target,competitor,0,7.993
2,14,perceptual,0.1,0.05,target,competitor,0,5.134
2,15,numeric,0.03,0.2,competitor,competitor,0,8.351
2,16,numeric,0.03,0.2,competitor,competitor,0,13.189
2,17,numeric,0.1,0.05,competitor,target,1,7.711
2,18,numeric,0.03,0.2,competitor,decoy,0,12.012
2,19,perceptual,0.03,0.05,competitor,target,1,6.189
2,20,perceptual,0.1,0.2,target,competitor,0,4.81
2,21,perceptual,0.03,0.05,target,target,1,7.507
2,22,perceptual,0.03,0.05,competitor,competitor,0,7.578
2,23,numeric,0.1,0.05,target,target,1,10.039
2,24,numeric,0.1,0.05,competitor,competitor,0,8.644
2,25,perceptual,0.1,0.05,competitor,competitor,0,6.646
2,26,perceptual,0.03,0.05,target,target,1,8.539
2,27,numeric,0.1,0.2,competitor,target,1,6.466
2,28,perceptual,0.03,0.05,target,target,1,9.036
2,29,perceptual,0.1,0.2,competitor,decoy,0,5.455
2,30,numeric,0.1,0.2,target,competitor,0,12.371
2,31,numeric,0.1,0.05,target,decoy,0,8.279
2,32,perceptual,0.03,0.2,target,decoy,0,4.427
2,33,numeric,0.1,0.2,competitor,competitor,0,5.889
2,34,numeric,0.03,0.05,competitor,competitor,0,10.661
2,35,perceptual,0.1,0.2,target,target,1,4.204
2,36,perceptual,0.1,0.2,target,decoy,0,6.561
2,37,numeric,0.1,0.2,competitor,target,1,7.021
2,38,perceptual,0.03,0.2,competitor,competitor,0,7.127
2,39,numeric,0.03,0.05,target,target,1,7.195
2,40,numeric,0.1,0.05,target,target,1,8.032
2,41,numeric,0.03,0.2,target,target,1,8.435
2,42,numeric,0.03,0.05,target,target,1,15.076
2,43,numeric,0.03,0.2,target,target,1,8.363
2,44,numeric,0.03,0.2,target,target,1,7.094
2,45,numeric,0.03,0.05,target,competitor,0,5.043
2,46,numeric,0.1,0.2,competitor,target,1,11.115
2,47,perceptual,0.1,0.05,competitor,target,1,5.818
2,48,perceptual,0.1,0.2,target,target,1,6.738
2,49,perceptual,0.03,0.05,target,decoy,0,5.238
2,50,perceptual,0.1,0.05,target,decoy,0,5.778
2,51,perceptual,0.1,0.05,competitor,decoy,0,4.845
2,52,numeric,0.1,0.2,target,competitor,0,6.26
2,53,numeric,0.03,0.2,target,target,1,9.966
2,54,numeric,0.03,0.05,competitor,target,1,8.093
2,55,perceptual,0.1,0.05,target,decoy,0,4.855
2,56,perceptual,0.03,0.2,competitor,decoy,0,5.309
2,57,numeric,0.03,0.05,competitor,target,1,11.291
2,58,numeric,0.1,0.05,target,target,1,8.196
2,59,numeric,0.03,0.2,target,competitor,0,6.449
2,60,numeric,0.03,0.2,target,target,1,14.003
2,61,perceptual,0.03,0.05,target,target,1,5.904
2,62,perceptual,0.03,0.2,competitor,target,1,4.324
2,63,perceptual,0.03,0.05,competitor,target,1,3.584
2,64,numeric,0.1,0.2,competitor,target,1,12.457
2,65,perceptual,0.03,0.05,competitor,competitor,0,6.22
2,66,perceptual,0.1,0.2,competitor,competitor,0,6.841
2,67,perceptual,0.1,0.05,target,decoy,0,5.212
2,68,numeric,0.03,0.2,competitor,competitor,0,5.849
2,69,numeric,0.03,0.2,target,target,1,4.256
2,70,numeric,0.03,0.05,competitor,target,1,12.032
2,71,perceptual,0.03,0.2,target,target,1,6.626
2,72,perceptual,0.1,0.2,target,target,1,9.792
2,73,numeric,0.03,0.05,competitor,competitor,0,6.589
2,74,perceptual,0.03,0.05,competitor,decoy,0,4.383
2,75,perceptual,0.1,0.2,competitor,target,1,3.506
2,76,numeric,0.03,0.2,competitor,target,1,6.893
2,77,numeric,0.03,0.2,target,target,1,9.093
2,78,numeric,0.03,0.2,competitor,target,1,6.134
2,79,numeric,0.1,0.05,competitor,target,1,10.987
2,80,perceptual,0.1,0.05,target,decoy,0,6.938
2,81,numeric,0.1,0.05,competitor,target,1,5.719
2,82,numeric,0.03,0.05,target,competitor,0,5.665
2,83,perceptual,0.1,0.2,target,target,1,8.937
2,84,perceptual,0.03,0.2,target,target,1,4.296
2,85,numeric,0.1,0.2,target,target,1,6.297
2,86,numeric,0.1,0.05,competitor,target,1,10.109
2,87,perceptual,0.1,0.05,competitor,target,1,7.179
2,88,perceptual,0.03,0.2,competitor,target,1,5.291
2,89,perceptual,0.1,0.05,competitor,target,1,9.689
2,90,perceptual,0.1,0.05,competitor,target,1,7.925
2,91,perceptual,0.03,0.05,competitor,target,1,11.615
2,92,numeric,0.03,0.05,target,competitor,0,7.454
2,93,perceptual,0.03,0.2,competitor,target,1,13.968
2,94,perceptual,0.1,0.2,competitor,target,1,4.173
2,95,perceptual,0.03,0.2,competitor,competitor,0,6.455
2,96,numeric,0.03,0.2,target,competitor,0,5.194
2,97,numeric,0.1,0.2,competitor,competitor,0,8.586
2,98,numeric,0.1,0.05,target,competitor,0,9.904
2,99,perceptual,0.03,0.05,target,target,1,5.567
2,100,perceptual,0.1,0.05,target,target,1,5.28
2,101,perceptual,0.03,0.2,target,competitor,0,6.553
2,102,numeric,0.03,0.05,competitor,competitor,0,9.32
2,103,numeric,0.03,0.2,competitor,competitor,0,5.98
2,104,perceptual,0.03,0.05,target,target,1,4.04
2,105,numeric,0.1,0.2,target,target,1,13.142
2,106,numeric,0.03,0.2,competitor,competitor,0,8.697
2,107,numeric,0.1,0.05,competitor,target,1,5.565
2,108,numeric,0.1,0.2,competitor,competitor,0,11.707
2,109,perceptual,0.1,0.2,competitor,target,1,6.052
2,110,numeric,0.03,0.05,target,target,1,6.733
2,111,numeric,0.03,0.05,target,target,1,11.063
2,112,perceptual,0.1,0.05,competitor,target,1,8.293
2,113,perceptual,0.03,0.05,target,competitor,0,6.351
2,114,perceptual,0.1,0.05,target,target,1,8.939
2,115,numeric,0.1,0.05,competitor,decoy,0,9.826
2,116,perceptual,0.03,0.05,competitor,decoy,0,4.482
2,117,numeric,0.1,0.05,competitor,target,1,7.735
2,118,perceptual,0.1,0.2,competitor,target,1,8.185
2,119,perceptual,0.1,0.05,target,target,1,9.142
2,120,numeric,0.1,0.05,target,target,1,5.06
2,121,numeric,0.1,0.2,target,competitor,0,15.421
2,122,perceptual,0.1,0.2,target,target,1,3.946
2,123,perceptual,0.03,0.2,target,competitor,0,7.281
2,124,perceptual,0.03,0.2,target,target,1,7.092
2,125,perceptual,0.03,0.05,competitor,competitor,0,4.565
2,126,perceptual,0.1,0.05,competitor,target,1,3.459
2,127,numeric,0.1,0.05,competitor,target,1,6.141
2,128,numeric,0.03,0.2,competitor,competitor,0,10.506
2,129,numeric,0.03,0.2,target,competitor,0,10.961
2,130,numeric,0.03,0.05,competitor,target,1,5.536
2,131,numeric,0.03,0.05,target,target,1,8.906
2,132,numeric,0.1,0.05,competitor,target,1,9.509
2,133,numeric,0.03,0.2,competitor,target,1,7.351
2,134,numeric,0.03,0.05,competitor,competitor,0,5.124
2,135,perceptual,0.1,0.05,target,target,1,5.383
2,136,perceptual,0.03,0.05,target,target,1,5.926
2,137,perceptual,0.03,0.05,target,target,1,4.71
2,138,numeric,0.1,0.05,target,target,1,5.687
2,139,perceptual,0.03,0.2,target,target,1,8.115
2,140,numeric,0.1,0.2,competitor,competitor,0,6.423
2,141,numeric,0.1,0.05,target,target,1,10.57
2,142,perceptual,0.03,0.05,competitor,target,1,6.299
2,143,numeric,0.1,0.2,competitor,competitor,0,6.668
2,144,perceptual,0.1,0.2,target,target,1,4.118
2,145,perceptual,0.1,0.05,competitor,target,1,4.237
2,146,numeric,0.03,0.2,competitor,target,1,4.383
2,147,perceptual,0.03,0.2,target,competitor,0,4.962
2,148,numeric,0.1,0.2,target,target,1,5.475
2,149,perceptual,0.1,0.2,competitor,target,1,2.934
2,150,perceptual,0.03,0.2,competitor,target,1,4.142
2,151,numeric,0.1,0.2,target,competitor,0,4.348
2,152,numeric,0.1,0.2,competitor,target,1,7.77
2,153,perceptual,0.03,0.2,competitor,target,1,2.916
2,154,perceptual,0.03,0.2,target,competitor,0,5.08
2,155,numeric,0.03,0.05,target,competitor,0,4.205
2,156,numeric,0.1,0.2,competitor,target,1,8.134
2,157,perceptual,0.1,0.2,target,target,1,5.267
2,158,numeric,0.1,0.2,target,target,1,7.141
2,159,numeric,0.03,0.05,target,competitor,0,5.675
2,160,perceptual,0.03,0.05,competitor,competitor,0,4.816
2,161,perceptual,0.1,0.05,target,target,1,5.991
2,162,numeric,0.03,0.05,competitor,competitor,0,6.389
2,163,perceptual,0.1,0.05,target,decoy,0,6.74
2,164,numeric,0.1,0.2,competitor,target,1,7.17
2,165,numeric,0.1,0.2,target,target,1,6.604
2,166,perceptual,0.1,0.05,competitor,target,1,5.314
2,167,perceptual,0.1,0.2,target,competitor,0,4.487
2,168,perceptual,0.03,0.2,target,competitor,0,15.022
2,169,perceptual,0.03,0.2,competitor,competitor,0,4.163
2,170,perceptual,0.03,0.2,competitor,competitor,0,2.703
2,171,numeric,0.1,0.2,target,competitor,0,5.254
2,172,perceptual,0.1,0.2,competitor,target,1,6.841
2,173,numeric,0.03,0.05,target,competitor,0,6.438
2,174,numeric,0.03,0.05,competitor,target,1,5.036
2,175,numeric,0.1,0.05,competitor,competitor,0,7.773
2,176,numeric,0.03,0.05,competitor,target,1,4.815
2,177,perceptual,0.1,0.2,target,competitor,0,4.762
2,178,perceptual,0.03,0.05,competitor,target,1,3.251
2,179,numeric,0.03,0.05,competitor,target,1,7.313
2,180,numeric,0.1,0.05,competitor,competitor,0,6.427
2,181,numeric,0.1,0.05,target,competitor,0,6.345
2,182,perceptual,0.03,0.2,competitor,target,1,5.484
2,183,perceptual,0.03,0.2,target,target,1,3.822
2,184,perceptual,0.1,0.05,competitor,target,1,4.82
2,185,perceptual,0.1,0.05,target,competitor,0,4.437
2,186,perceptual,0.03,0.2,target,decoy,0,5.66
2,187,perceptual,0.1,0.2,competitor,target,1,3.284
2,188,perceptual,0.03,0.05,target,competitor,0,4.613
2,189,perceptual,0.1,0.2,competitor,target,1,3.017
2,190,numeric,0.03,0.2,target,competitor,0,5.079
2,191,numeric,0.1,0.05,target,target,1,5.928
2,192,perceptual,0.1,0.2,target,competitor,0,3.828
3,1,perceptual,0.03,0.05,competitor,target,1,8.749
3,2,numeric,0.1,0.2,target,target,1,8.484
3,3,numeric,0.03,0.05,competitor,competitor,0,6.033
3,4,numeric,0.03,0.05,competitor,target,1,5.743
3,5,numeric,0.1,0.05,competitor,competitor,0,6.316
3,6,numeric,0.03,0.2,competitor,decoy,0,4.903
3,7,numeric,0.1,0.2,target,target,1,9.339
3,8,perceptual,0.1,0.2,target,decoy,0,3.768
3,9,perceptual,0.03,0.2,target,target,1,3.112
3,10,numeric,0.1,0.05,competitor,target,1,3.738
3,11,numeric,0.03,0.05,target,target,1,2.636
3,12,numeric,0.03,0.2,competitor,competitor,0,3.355
3,13,numeric,0.1,0.05,competitor,competitor,0,4.63
3,14,perceptual,0.03,0.05,target,competitor,0,4.985
3,15,numeric,0.1,0.2,competitor,target,1,3.863
3,16,numeric,0.03,0.2,target,target,1,2.131
3,17,numeric,0.03,0.05,competitor,competitor,0,3.002
3,18,perceptual,0.03,0.2,competitor,competitor,0,3.076
3,19,perceptual,0.1,0.2,target,competitor,0,3.607
3,20,numeric,0.1,0.05,target,competitor,0,6.863
3,21,perceptual,0.03,0.05,competitor,target,1,3.301
3,22,perceptual,0.1,0.05,target,target,1,3.364
3,23,numeric,0.1,0.05,competitor,target,1,6.848
3,24,perceptual,0.03,0.05,target,decoy,0,5.157
3,25,numeric,0.1,0.05,competitor,decoy,0,5.5
3,26,numeric,0.1,0.2,competitor,competitor,0,1.853
3,27,numeric,0.1,0.2,target,competitor,0,1.293
3,28,perceptual,0.1,0.2,competitor,target,1,1.276
3,29,numeric,0.1,0.2,competitor,competitor,0,1.277
3,30,perceptual,0.03,0.2,competitor,competitor,0,2.287
3,31,perceptual,0.03,0.2,competitor,decoy,0,2.202
3,32,perceptual,0.03,0.2,target,target,1,2.25
3,33,numeric,0.1,0.2,competitor,target,1,3.49
3,34,numeric,0.1,0.05,target,decoy,0,2.321
3,35,perceptual,0.1,0.2,target,decoy,0,2.137
3,36,perceptual,0.1,0.2,competitor,target,1,1.896
3,37,perceptual,0.03,0.05,target,decoy,0,2.356
3,38,perceptual,0.03,0.05,competitor,competitor,0,3.133
3,39,numeric,0.1,0.05,competitor,target,1,6.078
3,40,perceptual,0.1,0.05,target,decoy,0,4.428
3,41,perceptual,0.1,0.05,target,target,1,4.358
3,42,perceptual,0.1,0.05,competitor,target,1,3.018
3,43,perceptual,0.1,0.2,competitor,target,1,3.586
3,44,perceptual,0.03,0.05,competitor,competitor,0,3.635
3,45,perceptual,0.1,0.05,target,target,1,4.437
3,46,numeric,0.03,0.2,competitor,target,1,7.449
3,47,numeric,0.1,0.2,target,target,1,6.745
3,48,perceptual,0.03,0.2,competitor,target,1,3.228
3,49,numeric,0.03,0.05,competitor,competitor,0,6.042
3,50,perceptual,0.1,0.2,competitor,target,1,3.757
3,51,numeric,0.03,0.05,competitor,target,1,3.858
3,52,perceptual,0.03,0.2,competitor,competitor,0,4.137
3,53,numeric,0.03,0.05,target,target,1,4.181
3,54,perceptual,0.03,0.2,competitor,target,1,2.602
3,55,numeric,0.03,0.2,target,decoy,0,3.149
3,56,numeric,0.1,0.05,target,decoy,0,3.326
3,57,perceptual,0.1,0.05,competitor,target,1,3.149
3,58,numeric,0.1,0.2,target,target,1,2.869
3,59,perceptual,0.1,0.05,competitor,competitor,0,2.138
3,60,perceptual,0.1,0.05,target,competitor,0,3.1
3,61,numeric,0.03,0.2,target,competitor,0,3.757
3,62,numeric,0.1,0.05,target,target,1,3.062
3,63,numeric,0.03,0.05,target,competitor,0,3.001
3,64,numeric,0.03,0.2,target,competitor,0,2.866
3,65,perceptual,0.1,0.2,target,competitor,0,3.195
3,66,perceptual,0.03,0.05,competitor,decoy,0,3.467
3,67,numeric,0.03,0.05,competitor,competitor,0,3.05
3,68,perceptual,0.1,0.2,competitor,target,1,2.696
3,69,perceptual,0.03,0.05,competitor,target,1,3.104
3,70,numeric,0.1,0.2,competitor,target,1,2.723
3,71,numeric,0.03,0.2,competitor,competitor,0,2.845
3,72,numeric,0.03,0.05,target,competitor,0,4.827
3,73,numeric,0.03,0.05,competitor,target,1,5.269
3,74,perceptual,0.1,0.05,competitor,target,1,4.943
3,75,perceptual,0.1,0.2,target,target,1,4.449
3,76,perceptual,0.1,0.05,target,target,1,5.127
3,77,perceptual,0.1,0.05,target,target,1,6.631
3,78,numeric,0.1,0.2,target,competitor,0,4.934
3,79,perceptual,0.03,0.2,competitor,target,1,3.875
3,80,numeric,0.1,0.05,target,decoy,0,14.882
3,81,perceptual,0.03,0.2,target,target,1,4.25
3,82,perceptual,0.1,0.2,target,target,1,3.493
3,83,numeric,0.03,0.2,target,target,1,16.68
3,84,numeric,0.1,0.2,target,competitor,0,9.113
3,85,perceptual,0.03,0.05,competitor,decoy,0,5.108
3,86,numeric,0.03,0.05,target,competitor,0,9.085
3,87,perceptual,0.1,0.2,target,target,1,6.209
3,88,numeric,0.1,0.2,target,target,1,11.559
3,89,numeric,0.03,0.05,target,competitor,0,17.19
3,90,numeric,0.03,0.2,competitor,target,1,7.635
3,91,numeric,0.03,0.2,target,competitor,0,8.092
3,92,numeric,0.03,0.2,competitor,competitor,0,4.84
3,93,perceptual,0.03,0.05,target,target,1,5.073
3,94,perceptual,0.1,0.05,competitor,competitor,0,6.699
3,95,perceptual,0.03,0.2,competitor,competitor,0,6.416
3,96,perceptual,0.1,0.2,competitor,target,1,5.859
3,97,perceptual,0.1,0.05,competitor,target,1,8.997
3,98,perceptual,0.03,0.2,target,competitor,0,10.468
3,99,numeric,0.1,0.05,target,competitor,0,12.025
3,100,numeric,0.03,0.2,target,target,1,6.536
3,101,numeric,0.1,0.2,target,target,1,4.232
3,102,numeric,0.1,0.05,competitor,target,1,10.927
3,103,numeric,0.03,0.2,target,target,1,4.429
3,104,numeric,0.03,0.2,competitor,target,1,3.669
3,105,numeric,0.03,0.2,competitor,competitor,0,8.622
3,106,perceptual,0.03,0.2,target,target,1,4.45
3,107,numeric,0.03,0.2,competitor,competitor,0,5.959
3,109,numeric,0.1,0.05,competitor,target,1,9.643
3,110,numeric,0.1,0.2,competitor,target,1,6.281
3,111,numeric,0.03,0.2,target,target,1,7.875
3,112,numeric,0.03,0.05,target,competitor,0,7.481
3,113,perceptual,0.1,0.2,competitor,target,1,3.463
3,114,perceptual,0.03,0.05,competitor,target,1,4.183
3,115,numeric,0.1,0.2,target,target,1,8.483
3,116,numeric,0.03,0.05,target,competitor,0,5.236
3,117,numeric,0.1,0.05,competitor,competitor,0,8.409
3,118,perceptual,0.03,0.2,target,target,1,8.037
3,119,perceptual,0.1,0.2,competitor,competitor,0,5.293
3,120,perceptual,0.03,0.05,target,competitor,0,9.902
3,121,numeric,0.1,0.2,competitor,competitor,0,9.893
3,122,perceptual,0.1,0.05,competitor,target,1,3.669
3,123,perceptual,0.1,0.2,target,target,1,5.449
3,124,numeric,0.03,0.05,target,target,1,5.405
3,125,numeric,0.1,0.2,competitor,competitor,0,4.419
3,126,numeric,0.03,0.2,target,competitor,0,4.304
3,127,numeric,0.1,0.2,competitor,target,1,4.953
3,128,perceptual,0.03,0.05,competitor,target,1,4.355
3,129,perceptual,0.03,0.2,competitor,target,1,3.55
3,130,numeric,0.1,0.05,target,competitor,0,3.969
3,131,numeric,0.03,0.05,target,target,1,4.399
3,132,perceptual,0.03,0.05,target,decoy,0,3.337
3,133,perceptual,0.1,0.05,competitor,competitor,0,4.443
3,134,numeric,0.03,0.2,competitor,competitor,0,6.324
3,135,perceptual,0.1,0.05,target,target,1,4.693
3,136,perceptual,0.03,0.2,target,decoy,0,4.057
3,137,perceptual,0.03,0.05,target,decoy,0,7.94
3,138,numeric,0.1,0.05,target,target,1,4.787
3,139,perceptual,0.03,0.2,competitor,competitor,0,3.64
3,140,numeric,0.1,0.2,competitor,competitor,0,6.925
3,141,numeric,0.03,0.05,competitor,competitor,0,9.176
3,142,perceptual,0.03,0.05,target,decoy,0,4.469
3,143,perceptual,0.1,0.05,target,target,1,4.224
3,144,perceptual,0.1,0.2,competitor,target,1,4.489
3,145,numeric,0.1,0.05,target,target,1,6.075
3,146,numeric,0.1,0.05,target,target,1,9.741
3,147,perceptual,0.1,0.2,competitor,target,1,4.119
3,148,perceptual,0.1,0.2,target,competitor,0,6.019
3,149,perceptual,0.1,0.05,target,target,1,4.79
3,150,numeric,0.03,0.2,competitor,competitor,0,4.796
3,151,perceptual,0.03,0.05,competitor,competitor,0,3.741
3,152,perceptual,0.03,0.05,target,decoy,0,3.861
3,153,numeric,0.1,0.05,competitor,target,1,4.968
3,154,numeric,0.03,0.2,competitor,competitor,0,4.731
3,155,perceptual,0.1,0.05,competitor,decoy,0,4.091
3,156,perceptual,0.1,0.2,target,target,1,4.345
3,157,numeric,0.03,0.05,competitor,competitor,0,5.199
3,158,perceptual,0.03,0.05,target,target,1,4.912
3,159,perceptual,0.03,0.2,target,target,1,4.449
3,160,perceptual,0.1,0.05,competitor,target,1,4.068
3,161,numeric,0.03,0.05,competitor,target,1,4.932
3,162,numeric,0.1,0.2,competitor,competitor,0,4.683
3,163,perceptual,0.03,0.05,target,competitor,0,4.318
3,164,perceptual,0.1,0.05,competitor,competitor,0,4.984
3,165,numeric,0.03,0.05,target,target,1,6.001
3,166,numeric,0.1,0.05,target,competitor,0,3.549
3,167,perceptual,0.03,0.2,target,competitor,0,3.19
3,168,perceptual,0.03,0.05,competitor,competitor,0,5.179
3,169,numeric,0.03,0.05,competitor,target,1,6.959
3,170,perceptual,0.1,0.2,competitor,competitor,0,4.435
3,171,perceptual,0.03,0.2,target,target,1,3.166
3,172,perceptual,0.1,0.05,competitor,target,1,5.199
3,173,perceptual,0.03,0.2,competitor,target,1,6.859
3,174,numeric,0.03,0.2,target,target,1,4.607
3,175,numeric,0.1,0.05,competitor,target,1,5.216
3,176,perceptual,0.03,0.2,competitor,target,1,3.609
3,177,perceptual,0.1,0.2,target,target,1,5.883
3,178,perceptual,0.1,0.05,target,competitor,0,2.56
3,179,perceptual,0.03,0.05,competitor,target,1,4.579
3,180,perceptual,0.1,0.05,target,decoy,0,10.821
3,181,numeric,0.03,0.05,competitor,competitor,0,5.859
3,182,numeric,0.1,0.2,target,target,1,8.185
3,183,perceptual,0.1,0.2,target,target,1,8.876
3,184,numeric,0.03,0.2,target,competitor,0,14.047
3,185,numeric,0.1,0.05,competitor,target,1,17.793
3,186,perceptual,0.03,0.05,target,competitor,0,4.397
3,187,perceptual,0.03,0.2,target,target,1,4.848
3,188,numeric,0.1,0.2,competitor,competitor,0,5.543
3,189,numeric,0.1,0.05,target,competitor,0,5.743
3,190,perceptual,0.1,0.2,competitor,target,1,4.711
3,191,perceptual,0.03,0.2,target,target,1,4.245
3,192,numeric,0.1,0.2,target,competitor,0,13.454
4,1,perceptual,0.03,0.05,target,decoy,0,5.349
4,2,numeric,0.1,0.2,target,target,1,5.342
4,3,numeric,0.03,0.05,target,target,1,8.585
4,4,numeric,0.1,0.05,competitor,target,1,6.642
4,5,numeric,0.03,0.2,competitor,competitor,0,7.642
4,6,numeric,0.03,0.2,target,target,1,6.527
4,7,numeric,0.03,0.05,target,target,1,9.795
4,8,numeric,0.03,0.2,target,target,1,5.972
4,9,perceptual,0.1,0.2,competitor,target,1,3.214
4,10,numeric,0.1,0.05,target,decoy,0,5.609
4,11,numeric,0.1,0.05,target,target,1,5.1
4,12,perceptual,0.03,0.2,competitor,target,1,7.41
4,13,perceptual,0.1,0.2,target,competitor,0,3.853
4,14,numeric,0.03,0.05,competitor,competitor,0,6.314
4,15,numeric,0.03,0.05,competitor,competitor,0,8.062
4,16,perceptual,0.1,0.05,competitor,competitor,0,4.633
4,17,numeric,0.03,0.2,competitor,target,1,4.668
4,18,perceptual,0.1,0.2,competitor,target,1,3.534
4,19,numeric,0.1,0.05,target,target,1,4.636
4,20,numeric,0.03,0.2,competitor,target,1,7.596
4,21,perceptual,0.1,0.05,competitor,decoy,0,3.889
4,22,numeric,0.1,0.2,competitor,target,1,5.69
4,23,perceptual,0.1,0.05,target,target,1,5.117
4,24,perceptual,0.03,0.05,competitor,target,1,3.425
4,25,perceptual,0.1,0.2,target,decoy,0,5.278
4,26,perceptual,0.03,0.05,competitor,decoy,0,6.642
4,27,numeric,0.1,0.2,competitor,target,1,3.903
4,28,perceptual,0.03,0.2,competitor,target,1,3.878
4,29,numeric,0.03,0.05,competitor,competitor,0,5.938
4,30,numeric,0.1,0.05,target,target,1,6.475
4,31,perceptual,0.03,0.05,competitor,target,1,2.569
4,32,numeric,0.03,0.05,competitor,target,1,6.352
4,33,numeric,0.1,0.2,competitor,target,1,6.495
4,34,numeric,0.1,0.2,competitor,competitor,0,5.609
4,35,perceptual,0.03,0.2,target,decoy,0,3.091
4,36,numeric,0.1,0.05,competitor,target,1,4.101
4,37,perceptual,0.1,0.2,competitor,competitor,0,3.159
4,38,numeric,0.1,0.2,competitor,target,1,7.758
4,39,perceptual,0.1,0.2,target,target,1,3.417
4,40,perceptual,0.03,0.05,target,target,1,5.806
4,41,numeric,0.1,0.05,target,target,1,6.206
4,42,numeric,0.1,0.2,target,target,1,4.792
4,43,perceptual,0.03,0.2,competitor,target,1,4.651
4,44,perceptual,0.03,0.05,target,competitor,0,5.392
4,45,perceptual,0.03,0.05,target,competitor,0,3.527
4,46,perceptual,0.1,0.05,competitor,decoy,0,3.881
4,47,perceptual,0.1,0.05,target,competitor,0,2.612
4,48,perceptual,0.1,0.2,target,decoy,0,3.181
4,49,numeric,0.03,0.05,competitor,target,1,5.304
4,50,perceptual,0.03,0.2,competitor,competitor,0,3.247
4,51,numeric,0.03,0.2,target,target,1,4.292
4,52,perceptual,0.1,0.2,competitor,competitor,0,2.787
4,53,perceptual,0.1,0.05,target,decoy,0,2.883
4,54,perceptual,0.03,0.05,target,decoy,0,2.861
4,55,numeric,0.03,0.2,competitor,target,1,4.841
4,56,numeric,0.03,0.05,competitor,competitor,0,8.176
4,57,numeric,0.03,0.05,competitor,target,1,6.139
4,58,perceptual,0.1,0.05,target,decoy,0,3.68
4,59,numeric,0.03,0.2,target,target,1,6.779
4,60,numeric,0.1,0.2,target,target,1,7.08
4,61,perceptual,0.03,0.05,target,target,1,3.513
4,62,perceptual,0.1,0.2,target,competitor,0,3.155
4,63,perceptual,0.03,0.2,target,competitor,0,3.302
4,64,perceptual,0.1,0.05,target,target,1,3.242
4,65,numeric,0.03,0.05,target,target,1,6.584
4,66,numeric,0.03,0.05,competitor,competitor,0,9.858
4,67,perceptual,0.03,0.05,competitor,competitor,0,2.926
4,68,perceptual,0.03,0.2,competitor,target,1,3.783
4,69,perceptual,0.03,0.2,competitor,decoy,0,3.225
4,70,numeric,0.1,0.2,competitor,target,1,4.136
4,71,numeric,0.1,0.2,target,target,1,3.974
4,72,numeric,0.03,0.05,target,target,1,8.881
4,73,perceptual,0.03,0.05,target,decoy,0,3.362
4,74,numeric,0.03,0.2,competitor,competitor,0,6.012
4,75,perceptual,0.03,0.2,target,competitor,0,2.621
4,76,perceptual,0.03,0.2,target,target,1,5.685
4,77,perceptual,0.03,0.05,competitor,decoy,0,4.561
4,78,perceptual,0.1,0.05,target,decoy,0,4.906
4,79,numeric,0.1,0.05,competitor,target,1,4.713
4,80,numeric,0.1,0.2,target,target,1,6.522
4,81,numeric,0.1,0.2,target,decoy,0,4.28
4,82,numeric,0.1,0.05,competitor,competitor,0,3.812
4,83,numeric,0.03,0.2,competitor,target,1,6.774
4,84,perceptual,0.1,0.2,target,decoy,0,2.316
4,85,perceptual,0.03,0.2,target,competitor,0,3.884
4,86,perceptual,0.03,0.05,target,competitor,0,2.962
4,87,perceptual,0.1,0.2,target,decoy,0,3.51
4,88,numeric,0.1,0.05,target,target,1,5.28
4,89,numeric,0.03,0.2,competitor,target,1,7.827
4,90,numeric,0.03,0.05,competitor,competitor,0,7.081
4,91,numeric,0.1,0.2,target,target,1,5.187
4,92,perceptual,0.1,0.05,competitor,target,1,3.758
4,93,numeric,0.1,0.05,competitor,target,1,4.622
4,94,perceptual,0.1,0.05,competitor,decoy,0,6.934
4,95,numeric,0.1,0.05,target,target,1,5.885
4,96,numeric,0.1,0.05,competitor,target,1,6.594
4,97,numeric,0.03,0.2,target,competitor,0,3.599
4,98,numeric,0.03,0.2,target,target,1,8.501
4,99,numeric,0.03,0.2,target,competitor,0,5.408
4,100,numeric,0.03,0.05,target,target,1,4.778
4,101,numeric,0.1,0.2,target,target,1,4.003
4,102,perceptual,0.03,0.05,target,competitor,0,3.437
4,103,perceptual,0.03,0.2,competitor,target,1,2.239
4,104,numeric,0.1,0.05,target,competitor,0,3.05
4,105,numeric,0.1,0.05,target,competitor,0,2.901
4,106,perceptual,0.03,0.2,competitor,target,1,2.095
4,107,numeric,0.03,0.2,target,target,1,4.843
4,108,perceptual,0.03,0.2,target,target,1,2.965
4,109,perceptual,0.1,0.2,competitor,competitor,0,6.379
4,110,perceptual,0.1,0.05,competitor,competitor,0,4.112
4,111,numeric,0.03,0.05,target,target,1,7.127
4,112,perceptual,0.1,0.2,target,decoy,0,2.548
4,113,perceptual,0.1,0.2,competitor,target,1,2.5
4,114,numeric,0.03,0.05,target,competitor,0,2.404
4,115,perceptual,0.1,0.2,target,decoy,0,2.407
4,116,perceptual,0.1,0.05,competitor,decoy,0,2.372
4,117,perceptual,0.03,0.2,competitor,competitor,0,4.965
4,118,perceptual,0.1,0.2,competitor,decoy,0,3.347
4,119,perceptual,0.1,0.2,competitor,competitor,0,6.875
4,120,numeric,0.03,0.2,competitor,competitor,0,3.201
4,121,numeric,0.1,0.05,competitor,target,1,2.896
4,122,numeric,0.1,0.05,target,target,1,4.878
4,123,perceptual,0.1,0.2,competitor,decoy,0,4.282
4,124,perceptual,0.1,0.2,target,target,1,3.185
4,125,numeric,0.1,0.2,competitor,competitor,0,4.046
4,126,numeric,0.03,0.05,target,target,1,5.85
4,127,perceptual,0.03,0.05,target,decoy,0,2.381
4,128,perceptual,0.1,0.05,competitor,decoy,0,2.612
4,129,numeric,0.03,0.2,competitor,competitor,0,6.161
4,130,perceptual,0.1,0.05,target,target,1,4.266
4,131,numeric,0.1,0.2,competitor,target,1,5.336
4,132,numeric,0.1,0.2,target,target,1,6.977
4,133,numeric,0.1,0.2,target,target,1,8.737
4,134,perceptual,0.1,0.2,competitor,decoy,0,2.636
4,135,perceptual,0.03,0.2,target,target,1,3.146
4,136,numeric,0.03,0.2,competitor,competitor,0,8.17
4,137,numeric,0.03,0.2,target,target,1,5.121
4,138,perceptual,0.1,0.2,competitor,target,1,2.807
4,139,numeric,0.03,0.05,competitor,competitor,0,4.447
4,140,numeric,0.1,0.2,competitor,target,1,5.379
4,141,perceptual,0.1,0.05,target,competitor,0,2.49
4,142,perceptual,0.1,0.05,target,competitor,0,2.896
4,143,perceptual,0.03,0.05,target,decoy,0,4.846
4,144,numeric,0.1,0.2,target,target,1,3.997
4,145,numeric,0.03,0.2,competitor,target,1,5.298
4,146,numeric,0.1,0.05,competitor,target,1,3.965
4,147,numeric,0.1,0.05,competitor,target,1,4.282
4,148,numeric,0.03,0.05,target,target,1,5.228
4,149,perceptual,0.03,0.05,competitor,target,1,4.652
4,150,numeric,0.03,0.2,competitor,competitor,0,6.315
4,151,perceptual,0.1,0.05,competitor,decoy,0,3.469
4,152,perceptual,0.03,0.05,competitor,target,1,4.402
4,153,numeric,0.03,0.05,target,target,1,4.774
4,154,numeric,0.03,0.05,target,target,1,5.805
4,155,numeric,0.03,0.05,target,target,1,5.451
4,156,perceptual,0.03,0.2,competitor,target,1,3.298
4,157,perceptual,0.03,0.2,competitor,competitor,0,2.294
4,158,perceptual,0.03,0.05,competitor,target,1,3.37
4,159,numeric,0.03,0.05,competitor,competitor,0,5.919
4,160,numeric,0.1,0.05,target,target,1,4.931
4,161,perceptual,0.03,0.2,target,competitor,0,5.935
4,162,perceptual,0.03,0.2,target,target,1,2.511
4,163,numeric,0.1,0.05,competitor,target,1,5.116
4,164,numeric,0.1,0.2,competitor,target,1,3.643
4,165,perceptual,0.03,0.2,target,competitor,0,2.504
4,166,perceptual,0.03,0.05,competitor,competitor,0,3.843
4,167,perceptual,0.1,0.05,competitor,competitor,0,3.268
4,168,numeric,0.1,0.05,target,target,1,6.648
4,169,perceptual,0.1,0.05,target,target,1,5.898
4,170,perceptual,0.1,0.05,competitor,target,1,2.888
4,171,numeric,0.1,0.2,target,competitor,0,4.912
4,172,perceptual,0.03,0.05,competitor,target,1,2.744
4,173,perceptual,0.03,0.2,target,competitor,0,2.277
4,174,numeric,0.1,0.05,competitor,target,1,3.951
4,175,perceptual,0.1,0.05,target,decoy,0,3.474
4,176,perceptual,0.03,0.05,competitor,decoy,0,4.159
4,177,numeric,0.1,0.05,competitor,target,1,5.197
4,178,numeric,0.03,0.2,target,competitor,0,5.036
4,179,numeric,0.03,0.2,target,target,1,6.981
4,180,perceptual,0.1,0.05,target,competitor,0,3.426
4,181,perceptual,0.03,0.05,competitor,target,1,3.299
4,182,perceptual,0.03,0.2,competitor,decoy,0,3.478
4,183,perceptual,0.03,0.05,target,target,1,2.779
4,184,perceptual,0.1,0.05,competitor,competitor,0,3.38
4,185,perceptual,0.1,0.2,target,target,1,2.442
4,186,numeric,0.03,0.05,competitor,competitor,0,4.407
4,187,numeric,0.1,0.2,competitor,competitor,0,3.885
4,188,numeric,0.03,0.2,target,target,1,3.498
4,189,perceptual,0.1,0.2,target,target,1,2.703
4,190,perceptual,0.1,0.2,competitor,target,1,2.085
4,191,perceptual,0.03,0.2,target,target,1,3.042
4,192,numeric,0.1,0.2,competitor,competitor,0,4.908
5,1,perceptual,0.1,0.05,competitor,target,1,6.122
5,2,perceptual,0.1,0.05,competitor,target,1,6.457
5,3,perceptual,0.03,0.05,target,decoy,0,9.319
5,4,numeric,0.1,0.2,target,target,1,8.163
5,5,perceptual,0.03,0.2,target,target,1,8.829
5,6,perceptual,0.03,0.2,competitor,competitor,0,5.74
5,7,numeric,0.1,0.05,competitor,target,1,5.129
5,8,numeric,0.03,0.05,target,decoy,0,5.691
5,9,perceptual,0.1,0.2,target,target,1,5.718
5,10,perceptual,0.03,0.05,target,target,1,5.843
5,11,perceptual,0.03,0.2,target,competitor,0,4.012
5,12,perceptual,0.1,0.2,target,target,1,4.711
5,13,perceptual,0.1,0.2,target,target,1,6.169
5,14,perceptual,0.1,0.2,competitor,target,1,3.987
5,15,numeric,0.1,0.05,competitor,target,1,4.8
5,16,numeric,0.1,0.2,target,target,1,7.046
5,17,perceptual,0.03,0.2,competitor,target,1,6.062
5,18,numeric,0.1,0.05,competitor,target,1,4.501
5,19,perceptual,0.1,0.2,target,target,1,3.789
5,20,perceptual,0.03,0.05,competitor,target,1,4.861
5,21,numeric,0.03,0.2,competitor,competitor,0,18.293
5,22,numeric,0.03,0.2,target,target,1,4.026
5,23,perceptual,0.1,0.05,competitor,target,1,3.409
5,24,numeric,0.03,0.05,competitor,target,1,6.623
5,25,numeric,0.03,0.2,competitor,competitor,0,9.827
5,26,perceptual,0.1,0.05,target,target,1,6.552
5,27,perceptual,0.1,0.05,competitor,target,1,4.924
5,28,perceptual,0.03,0.2,target,competitor,0,5.264
5,29,perceptual,0.03,0.05,target,competitor,0,5.733
5,30,perceptual,0.03,0.2,competitor,target,1,5.937
5,31,perceptual,0.03,0.05,competitor,target,1,3.364
5,32,perceptual,0.1,0.2,target,target,1,4.54
5,33,numeric,0.03,0.2,competitor,target,1,11.256
5,34,numeric,0.1,0.2,competitor,competitor,0,7.498
5,35,numeric,0.03,0.05,target,target,1,11.188
5,36,numeric,0.03,0.05,target,target,1,2.954
5,37,perceptual,0.1,0.05,target,decoy,0,4.28
5,38,numeric,0.1,0.05,competitor,competitor,0,2.96
5,39,perceptual,0.03,0.05,target,competitor,0,2.952
5,40,numeric,0.03,0.05,competitor,decoy,0,2.457
5,41,perceptual,0.03,0.05,competitor,target,1,2.724
5,42,perceptual,0.03,0.2,target,target,1,3.053
5,43,numeric,0.03,0.2,competitor,competitor,0,12.453
5,44,numeric,0.03,0.2,competitor,competitor,0,6.776
5,45,perceptual,0.1,0.2,competitor,competitor,0,3.167
5,46,numeric,0.03,0.2,target,target,1,6.685
5,47,perceptual,0.03,0.2,competitor,target,1,4.449
5,48,numeric,0.03,0.05,competitor,target,1,13.663
5,49,numeric,0.1,0.05,target,target,1,10.18
5,50,perceptual,0.1,0.2,competitor,competitor,0,7.428
5,51,numeric,0.1,0.2,target,target,1,7.098
5,52,numeric,0.1,0.2,target,target,1,9.213
5,53,numeric,0.03,0.2,target,target,1,6.955
5,54,perceptual,0.1,0.05,competitor,target,1,6.347
5,55,perceptual,0.03,0.05,target,target,1,5.469
5,56,numeric,0.03,0.05,target,target,1,8.285
5,57,perceptual,0.03,0.05,target,target,1,3.477
5,58,numeric,0.03,0.2,target,target,1,7.648
5,59,perceptual,0.03,0.05,target,target,1,7.274
5,60,perceptual,0.1,0.2,competitor,target,1,3.263
5,61,numeric,0.03,0.2,competitor,target,1,4.277
5,62,perceptual,0.1,0.05,target,decoy,0,3.963
5,63,numeric,0.1,0.05,target,target,1,8.112
5,64,numeric,0.03,0.05,target,target,1,8.535
5,65,perceptual,0.03,0.2,competitor,target,1,6.287
5,66,numeric,0.03,0.05,target,target,1,5.842
5,67,numeric,0.03,0.2,target,target,1,8.939
5,68,numeric,0.1,0.2,target,target,1,3.417
5,69,perceptual,0.03,0.05,competitor,competitor,0,2.647
5,70,perceptual,0.1,0.2,target,target,1,2.943
5,71,numeric,0.1,0.05,competitor,target,1,3.679
5,72,perceptual,0.03,0.05,competitor,target,1,4.002
5,73,numeric,0.03,0.05,competitor,decoy,0,5.189
5,74,numeric,0.1,0.2,competitor,target,1,3.028
5,75,numeric,0.1,0.2,competitor,target,1,8.231
5,76,perceptual,0.03,0.05,target,target,1,4.866
5,77,perceptual,0.03,0.05,competitor,target,1,2.78
5,78,perceptual,0.1,0.05,competitor,target,1,3.36
5,79,perceptual,0.03,0.05,competitor,competitor,0,8.94
5,80,perceptual,0.03,0.2,competitor,decoy,0,0.013
5,81,numeric,0.03,0.05,target,target,1,7.011
5,82,numeric,0.1,0.2,target,target,1,6.246
5,83,numeric,0.03,0.05,competitor,target,1,11.199
5,84,numeric,0.03,0.2,target,target,1,3.352
5,85,perceptual,0.1,0.05,target,competitor,0,4.664
5,86,perceptual,0.1,0.05,competitor,target,1,2.968
5,87,numeric,0.1,0.2,target,target,1,3.244
5,88,numeric,0.03,0.2,competitor,target,1,3.455
5,89,numeric,0.1,0.05,target,target,1,8.368
5,90,perceptual,0.03,0.2,target,target,1,3.258
5,91,numeric,0.1,0.2,competitor,competitor,0,9.321
5,92,numeric,0.1,0.2,competitor,decoy,0,3.979
5,93,numeric,0.1,0.05,competitor,competitor,0,8.995
5,94,numeric,0.1,0.05,target,target,1,7.101
5,95,perceptual,0.1,0.05,competitor,target,1,2.725
5,96,numeric,0.03,0.2,target,competitor,0,6.746
5,97,perceptual,0.03,0.2,target,target,1,3.551
5,98,numeric,0.1,0.2,target,target,1,5.14
5,99,numeric,0.1,0.2,target,target,1,3.93
5,100,perceptual,0.03,0.2,competitor,target,1,4.375
5,101,numeric,0.03,0.05,target,target,1,4.895
5,102,perceptual,0.03,0.2,target,competitor,0,4.285
5,103,numeric,0.03,0.2,competitor,competitor,0,6.193
5,104,numeric,0.03,0.2,target,target,1,4.281
5,105,perceptual,0.1,0.2,competitor,target,1,2.853
5,106,perceptual,0.03,0.2,competitor,competitor,0,5.55
5,107,perceptual,0.1,0.05,target,target,1,3.298
5,108,numeric,0.03,0.05,target,target,1,7.537
5,109,perceptual,0.1,0.2,competitor,target,1,3.327
5,110,perceptual,0.1,0.05,competitor,target,1,2.98
5,111,numeric,0.03,0.05,competitor,competitor,0,6.847
5,112,perceptual,0.1,0.2,competitor,target,1,2.818
5,113,numeric,0.1,0.2,competitor,target,1,6.882
5,114,numeric,0.03,0.2,competitor,target,1,5.714
5,115,numeric,0.1,0.2,competitor,target,1,5.317
5,116,numeric,0.03,0.2,competitor,target,1,6.289
5,117,perceptual,0.03,0.2,competitor,competitor,0,3.15
5,118,perceptual,0.03,0.05,target,decoy,0,3.372
5,119,numeric,0.03,0.05,competitor,target,1,4.315
5,120,perceptual,0.03,0.2,target,competitor,0,6.113
5,121,numeric,0.1,0.2,target,target,1,12.156
5,122,numeric,0.1,0.05,competitor,target,1,7.315
5,123,numeric,0.03,0.05,target,target,1,8.351
5,124,perceptual,0.1,0.2,competitor,competitor,0,2.823
5,125,numeric,0.03,0.2,target,target,1,7.491
5,126,perceptual,0.03,0.05,competitor,competitor,0,3.515
5,127,numeric,0.03,0.2,competitor,target,1,7.679
5,128,numeric,0.1,0.05,competitor,target,1,7.292
5,129,perceptual,0.03,0.2,competitor,competitor,0,3.195
5,130,numeric,0.1,0.05,target,target,1,6.213
5,131,perceptual,0.03,0.2,competitor,target,1,3.469
5,132,numeric,0.03,0.05,competitor,target,1,6.151
5,133,perceptual,0.1,0.2,target,target,1,3.499
5,134,perceptual,0.03,0.05,target,competitor,0,3.249
5,135,perceptual,0.1,0.2,target,target,1,4.059
5,136,numeric,0.1,0.05,competitor,target,1,6.179
5,137,numeric,0.1,0.05,target,target,1,7.03
5,138,numeric,0.1,0.05,target,target,1,6.168
5,139,perceptual,0.1,0.2,target,target,1,3.228
5,140,perceptual,0.1,0.05,target,target,1,5.471
5,141,perceptual,0.1,0.05,competitor,target,1,4.547
5,142,numeric,0.1,0.2,competitor,target,1,6.467
5,143,perceptual,0.1,0.2,competitor,competitor,0,3.044
5,144,perceptual,0.1,0.2,competitor,target,1,2.582
5,145,numeric,0.1,0.05,competitor,target,1,5.359
5,146,numeric,0.03,0.2,competitor,competitor,0,4.819
5,147,numeric,0.1,0.2,competitor,target,1,6.486
5,148,perceptual,0.1,0.05,competitor,target,1,2.694
5,149,perceptual,0.1,0.05,competitor,target,1,6.824
5,150,numeric,0.1,0.05,target,target,1,8.516
5,151,perceptual,0.1,0.05,target,target,1,7.75
5,152,numeric,0.03,0.05,target,target,1,7.157
5,153,numeric,0.03,0.05,competitor,target,1,5.719
5,154,perceptual,0.03,0.05,target,target,1,3.052
5,155,perceptual,0.1,0.2,target,target,1,3.469
5,156,perceptual,0.1,0.05,target,decoy,0,2.825
5,157,perceptual,0.1,0.05,target,target,1,5.048
5,158,numeric,0.1,0.05,target,target,1,8.923
5,159,numeric,0.1,0.05,target,target,1,9.438
5,160,numeric,0.1,0.05,competitor,target,1,5.91
5,161,numeric,0.03,0.05,competitor,competitor,0,10.128
5,162,perceptual,0.03,0.2,target,target,1,3.742
5,163,numeric,0.1,0.2,target,target,1,7.849
5,164,numeric,0.1,0.05,competitor,competitor,0,4.864
5,165,perceptual,0.03,0.05,competitor,target,1,5.506
5,166,numeric,0.03,0.2,target,competitor,0,4.405
5,167,perceptual,0.1,0.2,target,target,1,8.487
5,168,numeric,0.03,0.05,competitor,target,1,6.966
5,169,numeric,0.1,0.05,target,target,1,7.565
5,170,numeric,0.1,0.2,competitor,target,1,7.974
5,171,numeric,0.03,0.2,target,target,1,8.07
5,172,perceptual,0.1,0.05,target,target,1,4.257
5,173,perceptual,0.03,0.05,competitor,target,1,3.913
5,174,numeric,0.03,0.2,target,competitor,0,8.859
5,175,numeric,0.1,0.2,target,target,1,12.934
5,176,perceptual,0.03,0.05,competitor,competitor,0,3.289
5,177,numeric,0.1,0.2,competitor,target,1,7.645
5,178,perceptual,0.1,0.2,competitor,competitor,0,2.594
5,179,perceptual,0.1,0.05,target,target,1,3.845
5,180,numeric,0.1,0.05,target,target,1,11.397
5,181,perceptual,0.03,0.2,target,competitor,0,3.115
5,182,perceptual,0.1,0.2,competitor,target,1,5.127
5,183,perceptual,0.1,0.2,target,target,1,3.684
5,184,perceptual,0.03,0.05,competitor,decoy,0,4.358
5,185,perceptual,0.1,0.05,target,decoy,0,3.858
5,186,numeric,0.03,0.05,competitor,competitor,0,19.235
5,187,numeric,0.1,0.2,competitor,target,1,5.314
5,188,perceptual,0.03,0.2,target,competitor,0,2.933
5,189,numeric,0.03,0.05,target,target,1,6.525
5,190,perceptual,0.03,0.2,competitor,target,1,5.159
5,191,perceptual,0.03,0.2,target,target,1,4.334
5,192,perceptual,0.03,0.05,target,competitor,0,5.987
6,2,numeric,0.03,0.05,competitor,target,1,12.841
6,3,numeric,0.03,0.2,target,competitor,0,8.083
6,4,perceptual,0.1,0.2,competitor,target,1,6.05
6,5,numeric,0.03,0.2,competitor,competitor,0,15.889
6,6,numeric,0.1,0.05,competitor,competitor,0,7.916
6,7,perceptual,0.1,0.05,target,target,1,7.436
6,8,perceptual,0.03,0.05,target,target,1,5.324
6,9,perceptual,0.1,0.05,target,target,1,5.961
6,10,numeric,0.03,0.05,competitor,target,1,9.028
6,11,numeric,0.03,0.05,competitor,competitor,0,7.228
6,12,numeric,0.1,0.05,target,target,1,5.393
6,13,perceptual,0.1,0.2,competitor,decoy,0,6.308
6,14,numeric,0.03,0.05,target,target,1,8.668
6,15,numeric,0.03,0.05,competitor,target,1,9.046
6,16,numeric,0.1,0.05,competitor,target,1,9.732
6,17,perceptual,0.03,0.2,competitor,competitor,0,8.564
6,18,numeric,0.1,0.05,competitor,target,1,7.239
6,19,numeric,0.1,0.2,competitor,competitor,0,8.412
6,20,perceptual,0.03,0.05,target,decoy,0,6.012
6,21,perceptual,0.1,0.05,competitor,decoy,0,3.91
6,22,perceptual,0.1,0.05,competitor,target,1,3.161
6,23,numeric,0.1,0.05,target,target,1,5.802
6,24,perceptual,0.1,0.2,target,decoy,0,6.904
6,25,numeric,0.03,0.2,competitor,target,1,7.637
6,26,perceptual,0.1,0.2,target,decoy,0,8.278
6,27,numeric,0.03,0.05,target,target,1,7.063
6,28,perceptual,0.1,0.2,target,competitor,0,4.698
6,29,perceptual,0.03,0.2,competitor,competitor,0,7.272
6,30,perceptual,0.1,0.05,target,competitor,0,6.017
6,31,numeric,0.03,0.2,target,target,1,10.713
6,32,perceptual,0.1,0.2,competitor,competitor,0,6.11
6,33,perceptual,0.03,0.05,competitor,target,1,4.474
6,34,perceptual,0.03,0.05,competitor,decoy,0,5.58
6,35,numeric,0.1,0.05,competitor,competitor,0,4.662
6,36,numeric,0.03,0.2,competitor,competitor,0,8.631
6,37,perceptual,0.03,0.2,target,decoy,0,7.969
6,38,numeric,0.03,0.2,target,decoy,0,7.262
6,39,numeric,0.03,0.2,competitor,competitor,0,6.75
6,40,perceptual,0.03,0.2,competitor,target,1,3.237
6,41,perceptual,0.03,0.05,target,competitor,0,5.054
6,42,numeric,0.1,0.2,target,target,1,5.385
6,43,numeric,0.03,0.05,target,target,1,9.546
6,44,numeric,0.1,0.05,target,target,1,5.938
6,45,numeric,0.1,0.05,target,target,1,13.432
6,46,numeric,0.1,0.05,target,target,1,8.405
6,47,perceptual,0.03,0.05,competitor,decoy,0,5.346
6,48,perceptual,0.03,0.05,competitor,target,1,4.001
6,49,numeric,0.1,0.05,target,target,1,10.804
6,50,perceptual,0.1,0.2,competitor,target,1,7.96
6,51,perceptual,0.1,0.2,competitor,decoy,0,4.706
6,52,numeric,0.1,0.2,target,target,1,7.677
6,53,perceptual,0.03,0.2,competitor,decoy,0,3.615
6,54,perceptual,0.1,0.2,target,target,1,5.78
6,55,numeric,0.1,0.05,target,target,1,6.533
6,56,perceptual,0.1,0.05,competitor,competitor,0,5.196
6,57,numeric,0.03,0.05,competitor,target,1,5.216
6,58,numeric,0.1,0.2,target,target,1,5.956
6,59,numeric,0.1,0.2,target,target,1,8.103
6,60,perceptual,0.03,0.2,competitor,decoy,0,6.13
6,61,perceptual,0.03,0.2,target,competitor,0,5.66
6,62,perceptual,0.03,0.2,target,decoy,0,5.726
6,63,perceptual,0.03,0.05,competitor,decoy,0,5.44
6,64,numeric,0.03,0.2,target,target,1,8.085
6,65,numeric,0.1,0.2,target,target,1,10.107
6,66,perceptual,0.03,0.05,target,competitor,0,6.037
6,67,perceptual,0.03,0.2,target,competitor,0,3.113
6,68,perceptual,0.03,0.2,target,competitor,0,4.36
6,69,perceptual,0.03,0.2,competitor,decoy,0,4.57
6,70,perceptual,0.03,0.2,target,competitor,0,5.467
6,71,numeric,0.03,0.2,competitor,competitor,0,10.397
6,72,perceptual,0.1,0.05,competitor,decoy,0,4.684
6,73,perceptual,0.03,0.05,competitor,target,1,6.006
6,74,numeric,0.03,0.05,competitor,competitor,0,8.429
6,75,perceptual,0.03,0.05,target,competitor,0,4.606
6,76,perceptual,0.03,0.2,competitor,competitor,0,6.372
6,77,perceptual,0.03,0.2,target,target,1,6.531
6,78,numeric,0.03,0.05,competitor,target,1,6.827
6,79,numeric,0.03,0.05,competitor,competitor,0,6.954
6,80,numeric,0.1,0.2,target,target,1,6.53
6,81,numeric,0.1,0.05,competitor,competitor,0,15.143
6,82,perceptual,0.03,0.05,competitor,decoy,0,6.061
6,83,perceptual,0.03,0.2,competitor,competitor,0,5.831
6,84,perceptual,0.03,0.05,target,target,1,7.703
6,85,numeric,0.1,0.05,competitor,target,1,6.301
6,86,numeric,0.1,0.2,competitor,target,1,5.604
6,87,numeric,0.03,0.2,target,target,1,11.537
6,88,numeric,0.1,0.05,competitor,competitor,0,15.849
6,89,numeric,0.1,0.05,target,target,1,7.465
6,90,perceptual,0.03,0.05,target,decoy,0,5.355
6,91,perceptual,0.03,0.05,target,competitor,0,4.5
6,92,numeric,0.03,0.2,target,target,1,7.77
6,93,numeric,0.03,0.2,target,target,1,5.828
6,94,numeric,0.03,0.05,target,target,1,7.232
6,95,numeric,0.1,0.2,competitor,competitor,0,9.795
6,96,numeric,0.03,0.2,competitor,target,1,7.471
6,97,numeric,0.03,0.2,target,target,1,5.258
6,98,perceptual,0.1,0.2,target,decoy,0,3.9
6,99,perceptual,0.03,0.2,competitor,decoy,0,3.849
6,100,perceptual,0.1,0.05,competitor,competitor,0,6.68
6,101,numeric,0.1,0.2,competitor,target,1,6.756
6,102,perceptual,0.1,0.05,competitor,decoy,0,5.945
6,103,numeric,0.1,0.2,competitor,target,1,11.801
6,104,numeric,0.03,0.05,target,competitor,0,9.737
6,105,numeric,0.1,0.2,target,target,1,6.941
6,106,perceptual,0.1,0.2,competitor,competitor,0,4.305
6,107,numeric,0.03,0.2,target,target,1,6.468
6,108,numeric,0.03,0.2,target,competitor,0,9.754
6,109,perceptual,0.03,0.05,competitor,competitor,0,5.304
6,110,perceptual,0.1,0.05,target,decoy,0,3.657
6,111,perceptual,0.03,0.05,target,target,1,7.569
6,112,perceptual,0.03,0.2,competitor,competitor,0,5.568
6,113,numeric,0.03,0.05,target,target,1,6.291
6,114,numeric,0.1,0.2,target,target,1,6.422
6,115,perceptual,0.1,0.05,target,competitor,0,4.818
6,116,numeric,0.03,0.05,target,target,1,9.395
6,117,numeric,0.1,0.2,target,competitor,0,11.623
6,118,perceptual,0.03,0.2,target,competitor,0,4.429
6,119,perceptual,0.03,0.2,target,competitor,0,3.669
6,120,perceptual,0.1,0.2,competitor,decoy,0,3.366
6,121,numeric,0.1,0.2,target,target,1,9.201
6,122,numeric,0.03,0.05,target,target,1,6.421
6,123,perceptual,0.03,0.05,competitor,competitor,0,5.436
6,124,numeric,0.03,0.05,target,target,1,6.396
6,125,perceptual,0.1,0.2,target,competitor,0,5.324
6,126,numeric,0.03,0.05,competitor,competitor,0,6.793
6,127,perceptual,0.1,0.05,competitor,decoy,0,7.081
6,128,perceptual,0.1,0.05,target,decoy,0,4.37
6,129,numeric,0.03,0.2,competitor,competitor,0,6.626
6,130,perceptual,0.1,0.2,target,decoy,0,5.519
6,131,perceptual,0.1,0.05,target,competitor,0,6.434
6,132,perceptual,0.03,0.05,competitor,decoy,0,5.747
6,133,numeric,0.03,0.05,competitor,competitor,0,7.162
6,134,numeric,0.1,0.2,target,target,1,8.524
6,135,perceptual,0.03,0.05,competitor,target,1,4.588
6,136,perceptual,0.1,0.05,target,competitor,0,3.862
6,137,numeric,0.1,0.05,target,target,1,7.281
6,138,numeric,0.1,0.2,competitor,target,1,8.181
6,139,perceptual,0.1,0.05,competitor,competitor,0,5.632
6,140,perceptual,0.03,0.2,target,target,1,6.279
6,141,numeric,0.1,0.05,competitor,target,1,5.771
6,142,numeric,0.03,0.05,target,target,1,9.871
6,143,numeric,0.03,0.05,competitor,target,1,10.166
6,144,numeric,0.03,0.2,competitor,decoy,0,8.729
6,145,perceptual,0.03,0.2,competitor,target,1,3.741
6,146,numeric,0.1,0.2,target,target,1,7.431
6,147,perceptual,0.1,0.2,target,decoy,0,4.601
6,148,numeric,0.1,0.2,competitor,decoy,0,10.999
6,149,perceptual,0.1,0.05,target,competitor,0,5.963
6,150,numeric,0.1,0.2,competitor,competitor,0,6.237
6,151,numeric,0.1,0.2,competitor,target,1,7.154
6,152,perceptual,0.03,0.05,competitor,target,1,6.791
6,153,numeric,0.03,0.2,competitor,competitor,0,5.969
6,154,perceptual,0.1,0.05,target,target,1,6.002
6,155,numeric,0.1,0.05,target,target,1,6.782
6,156,numeric,0.1,0.05,target,target,1,11.288
6,157,perceptual,0.03,0.05,target,decoy,0,7.647
6,158,numeric,0.03,0.05,target,target,1,8.427
6,159,perceptual,0.03,0.2,target,competitor,0,4.291
6,160,numeric,0.1,0.05,competitor,competitor,0,6.019
6,161,numeric,0.1,0.05,competitor,target,1,15.11
6,162,perceptual,0.1,0.2,competitor,competitor,0,4.146
6,163,numeric,0.03,0.05,target,competitor,0,7.132
6,164,perceptual,0.1,0.2,target,target,1,4.071
6,165,perceptual,0.03,0.2,competitor,decoy,0,3.115
6,166,perceptual,0.1,0.05,competitor,target,1,5.871
6,167,numeric,0.03,0.2,target,target,1,11.034
6,168,perceptual,0.1,0.2,target,decoy,0,3.734
6,169,numeric,0.1,0.05,target,competitor,0,9.269
6,170,numeric,0.03,0.2,target,target,1,8.763
6,171,perceptual,0.1,0.2,target,decoy,0,3.596
6,172,numeric,0.03,0.05,competitor,competitor,0,9.864
6,173,perceptual,0.1,0.05,target,competitor,0,4.597
6,174,perceptual,0.03,0.2,target,target,1,4.927
6,175,numeric,0.1,0.2,competitor,target,1,8.309
6,176,numeric,0.1,0.05,competitor,decoy,0,10.846
6,177,perceptual,0.1,0.05,target,target,1,6.852
6,178,perceptual,0.03,0.05,target,decoy,0,4.553
6,179,perceptual,0.1,0.2,competitor,decoy,0,4.685
6,180,perceptual,0.1,0.05,competitor,decoy,0,3.881
6,181,numeric,0.03,0.2,competitor,competitor,0,3.736
6,182,perceptual,0.1,0.05,competitor,competitor,0,3.302
6,183,perceptual,0.1,0.2,target,target,1,7.313
6,184,perceptual,0.03,0.05,target,competitor,0,5.683
6,185,numeric,0.1,0.05,competitor,target,1,6.014
6,186,perceptual,0.1,0.2,competitor,target,1,5.683
6,187,numeric,0.03,0.2,competitor,target,1,7.898
6,188,perceptual,0.1,0.05,competitor,decoy,0,4.28
6,189,numeric,0.1,0.2,competitor,target,1,6.005
6,190,numeric,0.03,0.2,competitor,competitor,0,8.528
6,191,perceptual,0.1,0.2,competitor,target,1,3.848
6,192,numeric,0.1,0.2,competitor,target,1,6.245
8,1,perceptual,0.1,0.2,target,target,1,12.143
8,2,numeric,0.1,0.05,competitor,target,1,8.881
8,3,numeric,0.1,0.2,competitor,target,1,0.244
8,4,perceptual,0.1,0.05,target,target,1,7.187
8,5,perceptual,0.03,0.05,target,target,1,10.422
8,6,numeric,0.1,0.2,target,target,1,6.476
8,7,perceptual,0.03,0.05,competitor,target,1,9.75
8,8,perceptual,0.1,0.05,target,target,1,12.026
8,9,numeric,0.1,0.2,target,target,1,10.14
8,10,perceptual,0.03,0.05,competitor,target,1,11.485
8,11,perceptual,0.03,0.05,target,target,1,15.718
8,12,numeric,0.1,0.05,target,target,1,10.507
8,13,numeric,0.1,0.2,competitor,target,1,8.083
8,14,numeric,0.1,0.05,competitor,target,1,12.734
8,15,numeric,0.03,0.05,target,target,1,7.058
8,16,numeric,0.03,0.2,competitor,target,1,8.274
8,17,numeric,0.1,0.05,competitor,competitor,0,11.845
8,18,perceptual,0.1,0.05,competitor,target,1,7.852
8,19,numeric,0.1,0.2,competitor,competitor,0,13.936
8,20,perceptual,0.1,0.05,target,decoy,0,7.876
8,21,perceptual,0.03,0.05,target,target,1,8.461
8,22,numeric,0.1,0.2,target,target,1,8.799
8,23,perceptual,0.1,0.2,target,target,1,3.488
8,24,perceptual,0.03,0.2,target,competitor,0,3.836
8,25,perceptual,0.03,0.05,competitor,decoy,0,8.185
8,26,perceptual,0.03,0.2,target,competitor,0,3.271
8,27,perceptual,0.1,0.2,competitor,target,1,5.893
8,28,numeric,0.03,0.05,competitor,target,1,9.839
8,29,numeric,0.1,0.2,target,target,1,14.286
8,30,numeric,0.03,0.05,competitor,target,1,13.332
8,31,perceptual,0.1,0.2,target,target,1,7.745
8,32,numeric,0.03,0.2,competitor,competitor,0,7.709
8,33,numeric,0.1,0.2,competitor,competitor,0,16.957
8,34,perceptual,0.03,0.2,target,competitor,0,3.979
8,35,perceptual,0.03,0.05,target,competitor,0,7.81
8,36,numeric,0.03,0.05,target,decoy,0,9.192
8,37,perceptual,0.03,0.05,target,target,1,16.839
8,38,perceptual,0.03,0.2,competitor,target,1,8.445
8,39,perceptual,0.1,0.05,target,target,1,5.211
8,40,perceptual,0.03,0.2,competitor,target,1,3.914
8,41,perceptual,0.03,0.05,competitor,target,1,8.442
8,42,numeric,0.03,0.2,target,target,1,9.175
8,43,numeric,0.03,0.2,target,target,1,6.846
8,44,perceptual,0.03,0.2,competitor,target,1,4.45
8,45,numeric,0.1,0.05,target,target,1,5.209
8,46,perceptual,0.03,0.05,competitor,target,1,2.83
8,47,numeric,0.03,0.05,target,target,1,15.521
8,48,perceptual,0.1,0.05,competitor,target,1,7.562
8,49,perceptual,0.1,0.05,target,target,1,6.757
8,50,numeric,0.03,0.2,target,target,1,4.955
8,51,numeric,0.1,0.05,target,target,1,6.464
8,52,numeric,0.1,0.05,target,target,1,6.596
8,53,numeric,0.1,0.2,competitor,target,1,8.433
8,54,numeric,0.03,0.2,target,target,1,9.131
8,55,numeric,0.1,0.2,competitor,target,1,9.647
8,56,numeric,0.1,0.05,competitor,target,1,18.545
8,57,numeric,0.03,0.05,target,target,1,6.5
8,58,numeric,0.03,0.05,competitor,competitor,0,12.649
8,59,perceptual,0.1,0.2,target,target,1,6.824
8,60,perceptual,0.03,0.2,competitor,target,1,3.234
8,61,perceptual,0.03,0.2,target,target,1,3.786
8,62,perceptual,0.03,0.2,target,target,1,4.422
8,63,perceptual,0.1,0.2,target,target,1,6.841
8,64,numeric,0.03,0.2,target,target,1,11.359
8,65,perceptual,0.1,0.2,competitor,target,1,6.258
8,66,perceptual,0.1,0.05,competitor,target,1,2.82
8,67,perceptual,0.1,0.05,target,decoy,0,3.781
8,68,perceptual,0.1,0.2,target,competitor,0,6.626
8,69,numeric,0.1,0.2,competitor,target,1,17.786
8,70,perceptual,0.03,0.2,target,target,1,5.683
8,71,perceptual,0.03,0.2,competitor,competitor,0,2.207
8,72,perceptual,0.03,0.05,competitor,target,1,3.031
8,73,numeric,0.03,0.05,competitor,competitor,0,5.904
8,74,perceptual,0.03,0.05,target,target,1,6.546
8,75,perceptual,0.03,0.2,target,target,1,3.444
8,76,perceptual,0.1,0.05,competitor,competitor,0,5.974
8,77,perceptual,0.1,0.2,competitor,target,1,8.102
8,78,numeric,0.03,0.05,target,target,1,12.131
8,79,numeric,0.1,0.2,competitor,target,1,8.494
8,80,perceptual,0.03,0.2,competitor,competitor,0,4.853
8,81,perceptual,0.03,0.05,target,target,1,5.844
8,82,perceptual,0.1,0.2,target,target,1,4.177
8,83,perceptual,0.1,0.2,competitor,competitor,0,3.639
8,84,perceptual,0.03,0.05,competitor,target,1,6.048
8,85,perceptual,0.1,0.05,competitor,target,1,3.093
8,86,numeric,0.1,0.2,target,target,1,11.754
8,87,perceptual,0.1,0.05,competitor,target,1,3.054
8,88,numeric,0.1,0.2,competitor,competitor,0,15.756
8,89,perceptual,0.1,0.05,target,target,1,4.394
8,90,numeric,0.1,0.05,competitor,target,1,11.887
8,91,perceptual,0.1,0.2,competitor,decoy,0,2.787
8,92,numeric,0.03,0.05,target,target,1,5.798
8,93,numeric,0.1,0.2,target,target,1,7.484
8,94,perceptual,0.03,0.2,competitor,target,1,2.54
8,95,numeric,0.1,0.05,target,target,1,4.915
8,97,numeric,0.03,0.05,competitor,competitor,0,6.804
8,98,numeric,0.1,0.05,competitor,target,1,10.048
8,99,perceptual,0.1,0.05,competitor,competitor,0,3.904
8,100,perceptual,0.03,0.05,target,decoy,0,2.861
8,101,perceptual,0.03,0.05,competitor,decoy,0,4.19
8,102,numeric,0.1,0.2,target,target,1,15.084
8,103,perceptual,0.03,0.05,competitor,competitor,0,6.896
8,104,numeric,0.03,0.05,target,target,1,7.849
8,105,numeric,0.1,0.05,competitor,target,1,7.761
8,106,numeric,0.03,0.2,competitor,target,1,5.833
8,107,numeric,0.1,0.05,target,target,1,4.749
8,108,perceptual,0.1,0.2,target,decoy,0,2.576
8,109,numeric,0.03,0.05,competitor,competitor,0,11.529
8,110,numeric,0.1,0.05,target,target,1,7.702
8,111,numeric,0.1,0.05,competitor,target,1,7.478
8,112,numeric,0.03,0.2,competitor,competitor,0,8.61
8,113,numeric,0.1,0.2,target,target,1,8.503
8,114,perceptual,0.03,0.2,target,competitor,0,5.042
8,115,perceptual,0.1,0.05,competitor,target,1,3.669
8,116,numeric,0.03,0.2,target,target,1,4.462
8,117,perceptual,0.03,0.2,target,competitor,0,5.45
8,118,numeric,0.1,0.05,target,target,1,4.943
8,119,numeric,0.03,0.05,competitor,competitor,0,7.631
8,120,numeric,0.03,0.2,competitor,competitor,0,8.372
8,121,numeric,0.1,0.2,target,target,1,11.084
8,122,numeric,0.1,0.2,target,target,1,6.171
8,123,numeric,0.03,0.2,target,target,1,9.631
8,124,numeric,0.1,0.2,competitor,target,1,16.086
8,125,numeric,0.1,0.2,target,target,1,7.109
8,126,perceptual,0.03,0.2,competitor,target,1,5.229
8,127,numeric,0.03,0.05,target,target,1,10.665
8,128,numeric,0.03,0.2,target,target,1,11.821
8,129,numeric,0.03,0.05,competitor,target,1,6.179
8,130,numeric,0.03,0.2,competitor,competitor,0,9.813
8,131,perceptual,0.03,0.05,competitor,competitor,0,6.691
8,132,numeric,0.1,0.2,competitor,competitor,0,16.608
8,133,perceptual,0.1,0.05,competitor,competitor,0,3.38
8,134,numeric,0.1,0.05,target,target,1,13.914
8,135,numeric,0.1,0.05,target,target,1,8.376
8,136,perceptual,0.03,0.2,target,target,1,4.585
8,137,numeric,0.03,0.05,target,target,1,5.312
8,138,numeric,0.03,0.05,target,target,1,8.647
8,139,numeric,0.03,0.2,target,target,1,7.472
8,140,perceptual,0.1,0.2,competitor,target,1,7.756
8,141,perceptual,0.1,0.2,target,target,1,5.496
8,142,perceptual,0.03,0.2,target,competitor,0,3.91
8,143,perceptual,0.1,0.05,competitor,target,1,6.129
8,144,numeric,0.03,0.05,target,target,1,9.027
8,145,perceptual,0.03,0.05,target,target,1,6.344
8,146,numeric,0.03,0.2,competitor,target,1,10.446
8,147,perceptual,0.1,0.2,competitor,competitor,0,2.529
8,148,numeric,0.03,0.2,competitor,competitor,0,16.998
8,149,perceptual,0.1,0.05,target,target,1,7.166
8,150,numeric,0.03,0.2,target,target,1,6.82
8,151,numeric,0.1,0.05,competitor,target,1,8.287
8,152,numeric,0.03,0.05,competitor,competitor,0,11.67
8,153,numeric,0.1,0.05,target,target,1,11.467
8,154,perceptual,0.1,0.2,competitor,target,1,4.332
8,155,numeric,0.1,0.05,competitor,competitor,0,10.213
8,156,numeric,0.1,0.05,competitor,competitor,0,13.783
8,157,perceptual,0.1,0.2,competitor,target,1,3.057
8,158,perceptual,0.1,0.2,competitor,target,1,2.079
8,159,numeric,0.03,0.05,competitor,competitor,0,8.892
8,160,perceptual,0.1,0.05,competitor,target,1,4.477
8,161,perceptual,0.1,0.2,competitor,target,1,6.128
8,162,numeric,0.03,0.05,competitor,competitor,0,9.487
8,163,perceptual,0.1,0.2,competitor,target,1,3.694
8,164,perceptual,0.03,0.05,target,competitor,0,6.273
8,165,numeric,0.1,0.2,target,target,1,7.62
8,166,perceptual,0.03,0.2,competitor,competitor,0,7.075
8,167,numeric,0.03,0.2,target,target,1,12.224
8,168,perceptual,0.03,0.2,competitor,competitor,0,3.91
8,169,numeric,0.1,0.05,target,target,1,5.766
8,170,perceptual,0.1,0.2,target,target,1,3.619
8,171,perceptual,0.1,0.05,target,target,1,3.604
8,172,numeric,0.1,0.05,competitor,target,1,6.692
8,173,perceptual,0.03,0.05,competitor,target,1,9.395
8,174,perceptual,0.1,0.05,target,target,1,8.45
8,175,perceptual,0.03,0.2,competitor,competitor,0,6.488
8,176,perceptual,0.1,0.05,target,target,1,7.568
8,177,perceptual,0.1,0.2,target,target,1,7.153
8,178,perceptual,0.1,0.2,target,target,1,7.473
8,179,numeric,0.03,0.05,target,target,1,7.434
8,180,perceptual,0.03,0.05,target,target,1,10.313
8,181,numeric,0.03,0.2,competitor,target,1,5.948
8,182,numeric,0.03,0.2,competitor,competitor,0,12.79
8,183,numeric,0.03,0.05,competitor,target,1,14.299
8,184,numeric,0.03,0.2,target,target,1,11.607
8,185,perceptual,0.03,0.2,target,target,1,3.302
8,186,perceptual,0.03,0.05,competitor,competitor,0,7.935
8,187,perceptual,0.03,0.05,target,target,1,2.238
8,188,perceptual,0.1,0.05,target,target,1,5.305
8,189,numeric,0.03,0.2,competitor,competitor,0,11.276
8,190,perceptual,0.03,0.2,competitor,decoy,0,12.549
8,191,numeric,0.03,0.2,competitor,competitor,0,7.833
8,192,perceptual,0.1,0.05,competitor,competitor,0,9.483
9,1,numeric,0.1,0.05,target,decoy,0,14.063
9,2,perceptual,0.03,0.05,competitor,competitor,0,6.315
9,3,numeric,0.1,0.05,competitor,competitor,0,7.461
9,4,numeric,0.1,0.05,competitor,target,1,5.25
9,5,perceptual,0.03,0.2,competitor,target,1,5.004
9,7,numeric,0.03,0.05,target,competitor,0,4.507
9,8,perceptual,0.1,0.05,target,target,1,6.507
9,9,numeric,0.1,0.2,competitor,competitor,0,12.048
9,10,numeric,0.03,0.2,competitor,target,1,12.008
9,11,numeric,0.1,0.05,competitor,decoy,0,12.903
9,12,numeric,0.03,0.05,competitor,target,1,4.982
9,13,perceptual,0.1,0.05,competitor,target,1,3.731
9,14,numeric,0.1,0.2,target,target,1,8.651
9,15,perceptual,0.03,0.2,competitor,target,1,9.787
9,16,perceptual,0.1,0.05,competitor,target,1,6.516
9,17,perceptual,0.03,0.05,target,target,1,10.858
9,18,numeric,0.03,0.2,target,competitor,0,11.346
9,19,perceptual,0.1,0.2,competitor,target,1,3.093
9,20,numeric,0.1,0.05,competitor,competitor,0,9.471
9,21,perceptual,0.1,0.2,target,target,1,4.933
9,22,numeric,0.1,0.05,competitor,target,1,6.606
9,23,numeric,0.03,0.2,target,competitor,0,6.326
9,24,perceptual,0.03,0.2,target,target,1,7.149
9,25,perceptual,0.03,0.05,target,competitor,0,3.988
9,26,perceptual,0.1,0.05,competitor,decoy,0,7.73
9,27,perceptual,0.03,0.05,target,target,1,5.557
9,28,perceptual,0.03,0.2,competitor,target,1,5.215
9,29,numeric,0.1,0.2,target,target,1,5.99
9,30,numeric,0.03,0.05,competitor,competitor,0,8.331
9,31,perceptual,0.03,0.05,competitor,decoy,0,6.556
9,32,perceptual,0.1,0.05,competitor,competitor,0,7.834
9,33,numeric,0.1,0.05,competitor,target,1,4.508
9,34,numeric,0.03,0.2,target,target,1,6.448
9,35,perceptual,0.1,0.05,target,target,1,5.878
9,36,perceptual,0.1,0.05,target,target,1,6.458
9,37,perceptual,0.1,0.2,target,decoy,0,5.299
9,38,perceptual,0.03,0.05,target,decoy,0,4.014
9,39,perceptual,0.03,0.2,target,decoy,0,3.766
9,40,numeric,0.03,0.2,target,target,1,9.041
9,41,numeric,0.03,0.05,competitor,competitor,0,7.563
9,42,perceptual,0.03,0.05,competitor,target,1,4.06
9,43,numeric,0.03,0.2,target,target,1,4.199
9,44,perceptual,0.1,0.2,target,target,1,6.714
9,45,perceptual,0.1,0.2,target,target,1,4.909
9,46,numeric,0.1,0.05,target,decoy,0,6.019
9,47,perceptual,0.03,0.2,competitor,target,1,5.385
9,48,numeric,0.1,0.2,competitor,target,1,6.087
9,49,perceptual,0.03,0.05,competitor,decoy,0,4.31
9,50,numeric,0.1,0.05,competitor,competitor,0,3.627
9,51,numeric,0.1,0.05,target,competitor,0,3.169
9,52,numeric,0.1,0.05,target,target,1,3.573
9,53,perceptual,0.1,0.2,target,target,1,3.014
9,54,numeric,0.03,0.2,competitor,competitor,0,6.334
9,55,perceptual,0.03,0.05,target,target,1,3.345
9,56,numeric,0.03,0.05,competitor,competitor,0,5.658
9,57,numeric,0.1,0.2,target,target,1,5.131
9,58,perceptual,0.03,0.2,target,competitor,0,5.604
9,59,numeric,0.1,0.2,competitor,competitor,0,5.588
9,60,numeric,0.1,0.05,target,target,1,8.593
9,61,perceptual,0.1,0.05,competitor,target,1,5.182
9,62,perceptual,0.1,0.05,target,competitor,0,3.689
9,63,numeric,0.1,0.05,competitor,target,1,7.188
9,64,perceptual,0.1,0.05,target,decoy,0,3.905
9,65,numeric,0.03,0.05,target,competitor,0,7.37
9,66,perceptual,0.03,0.05,competitor,target,1,3.314
9,67,perceptual,0.03,0.05,competitor,competitor,0,2.979
9,68,numeric,0.1,0.2,target,target,1,8.373
9,69,perceptual,0.1,0.05,competitor,competitor,0,3.098
9,70,numeric,0.1,0.2,competitor,target,1,6.447
9,71,perceptual,0.03,0.2,target,competitor,0,3.793
9,72,numeric,0.1,0.05,target,decoy,0,2.43
9,73,numeric,0.03,0.05,competitor,target,1,2.446
9,74,perceptual,0.03,0.05,target,competitor,0,4.216
9,75,perceptual,0.03,0.2,target,decoy,0,2.344
9,76,perceptual,0.03,0.2,competitor,decoy,0,4.452
9,77,numeric,0.03,0.2,competitor,target,1,3.688
9,78,numeric,0.03,0.05,competitor,target,1,4.002
9,79,numeric,0.03,0.2,competitor,target,1,2.662
9,80,numeric,0.03,0.2,target,competitor,0,3.135
9,81,perceptual,0.1,0.2,competitor,decoy,0,3.006
9,82,perceptual,0.03,0.2,competitor,target,1,2.628
9,83,perceptual,0.03,0.2,competitor,target,1,2.616
9,84,numeric,0.03,0.2,target,decoy,0,7.89
9,85,numeric,0.03,0.2,target,competitor,0,10.167
9,86,perceptual,0.1,0.05,competitor,target,1,3.616
9,87,numeric,0.1,0.2,target,competitor,0,3.565
9,88,perceptual,0.1,0.2,target,target,1,2.303
9,89,numeric,0.1,0.2,competitor,target,1,8.8
9,90,numeric,0.03,0.05,competitor,competitor,0,7.512
9,91,perceptual,0.03,0.05,target,competitor,0,3.347
9,92,numeric,0.1,0.05,target,target,1,10.129
9,93,numeric,0.03,0.05,competitor,competitor,0,7.212
9,94,numeric,0.03,0.05,target,target,1,5.499
9,95,numeric,0.1,0.05,target,target,1,7.162
9,96,numeric,0.1,0.2,competitor,competitor,0,7.278
9,97,perceptual,0.1,0.05,target,target,1,6.196
9,98,perceptual,0.03,0.05,target,competitor,0,6.04
9,99,numeric,0.03,0.2,competitor,competitor,0,5.049
9,100,perceptual,0.03,0.05,target,decoy,0,4.117
9,101,numeric,0.03,0.2,target,competitor,0,4.782
9,102,perceptual,0.1,0.05,competitor,competitor,0,4.187
9,103,perceptual,0.1,0.2,competitor,competitor,0,2.498
9,104,numeric,0.03,0.05,competitor,target,1,5.776
9,105,numeric,0.03,0.2,target,target,1,4.95
9,106,perceptual,0.1,0.2,target,target,1,3.362
9,107,numeric,0.03,0.05,target,target,1,6.449
9,108,numeric,0.03,0.05,target,competitor,0,4.877
9,109,perceptual,0.1,0.2,target,competitor,0,4.139
9,110,numeric,0.03,0.2,competitor,target,1,3.821
9,111,numeric,0.1,0.2,target,target,1,3.773
9,112,numeric,0.03,0.2,target,target,1,2.328
9,113,numeric,0.1,0.2,competitor,target,1,2.897
9,114,perceptual,0.03,0.2,target,decoy,0,3.594
9,115,numeric,0.03,0.2,competitor,competitor,0,3.272
9,116,numeric,0.1,0.05,target,target,1,2.961
9,117,perceptual,0.03,0.05,competitor,competitor,0,2.949
9,118,numeric,0.03,0.05,target,target,1,5.953
9,119,numeric,0.1,0.05,competitor,target,1,3.873
9,120,numeric,0.1,0.05,competitor,target,1,5.178
9,121,perceptual,0.1,0.05,competitor,decoy,0,3.112
9,122,perceptual,0.1,0.05,competitor,competitor,0,2.901
9,123,perceptual,0.03,0.05,competitor,decoy,0,2.969
9,124,numeric,0.03,0.05,target,competitor,0,2.328
9,125,perceptual,0.03,0.05,competitor,target,1,3.748
9,126,numeric,0.03,0.05,competitor,competitor,0,3.781
9,127,numeric,0.1,0.2,competitor,decoy,0,4.027
9,128,perceptual,0.1,0.05,target,competitor,0,3.293
9,129,perceptual,0.1,0.2,competitor,competitor,0,3.971
9,130,numeric,0.03,0.2,competitor,target,1,3.075
9,131,perceptual,0.03,0.2,competitor,target,1,2.559
9,132,numeric,0.03,0.2,competitor,competitor,0,4.842
9,133,numeric,0.03,0.05,competitor,target,1,6.545
9,134,numeric,0.1,0.2,competitor,competitor,0,5.714
9,135,perceptual,0.1,0.05,target,competitor,0,3.759
9,136,numeric,0.1,0.2,target,target,1,3.057
9,137,perceptual,0.1,0.2,target,decoy,0,5.089
9,138,perceptual,0.03,0.2,target,competitor,0,2.326
9,139,perceptual,0.03,0.2,competitor,target,1,5.007
9,140,perceptual,0.03,0.05,target,target,1,3.195
9,141,perceptual,0.1,0.2,competitor,target,1,2.634
9,142,numeric,0.03,0.05,target,target,1,6.315
9,143,perceptual,0.1,0.2,competitor,decoy,0,3.229
9,144,perceptual,0.03,0.2,target,competitor,0,2.17
9,145,perceptual,0.03,0.05,target,decoy,0,4.19
9,146,perceptual,0.1,0.05,competitor,decoy,0,2.34
9,147,numeric,0.1,0.2,competitor,competitor,0,2.57
9,148,perceptual,0.03,0.2,target,decoy,0,2.595
9,149,perceptual,0.03,0.2,competitor,decoy,0,2.544
9,150,numeric,0.1,0.05,target,target,1,6.743
9,151,numeric,0.03,0.2,target,target,1,6.318
9,152,numeric,0.03,0.05,target,target,1,7.317
9,153,numeric,0.1,0.2,competitor,target,1,6.017
9,154,numeric,0.1,0.2,target,competitor,0,2.848
9,155,perceptual,0.03,0.2,competitor,decoy,0,2.42
9,156,perceptual,0.03,0.05,target,decoy,0,3.288
9,157,perceptual,0.03,0.2,target,target,1,5.222
9,158,numeric,0.03,0.05,target,target,1,5.682
9,159,numeric,0.1,0.2,competitor,target,1,2.772
9,160,numeric,0.1,0.05,target,decoy,0,3.125
9,161,perceptual,0.1,0.05,target,target,1,2.365
9,162,perceptual,0.1,0.05,target,target,1,3.887
9,163,numeric,0.03,0.2,competitor,competitor,0,3.004
9,164,perceptual,0.1,0.2,competitor,competitor,0,2.985
9,165,numeric,0.1,0.2,target,target,1,3.821
9,166,perceptual,0.03,0.05,competitor,target,1,2.948
9,167,numeric,0.1,0.2,target,target,1,6.312
9,168,perceptual,0.1,0.2,competitor,competitor,0,4.037
9,169,numeric,0.1,0.2,target,competitor,0,4.268
9,170,numeric,0.03,0.2,competitor,competitor,0,3.292
9,171,perceptual,0.03,0.05,competitor,target,1,5.916
9,172,numeric,0.03,0.05,target,competitor,0,6.874
9,173,perceptual,0.1,0.2,competitor,competitor,0,3.443
9,174,perceptual,0.03,0.2,target,competitor,0,3.987
9,175,numeric,0.1,0.05,competitor,target,1,4.018
9,176,perceptual,0.1,0.2,target,competitor,0,3.025
9,177,perceptual,0.1,0.2,target,decoy,0,2.947
9,178,perceptual,0.03,0.05,competitor,decoy,0,2.763
9,179,perceptual,0.03,0.2,target,target,1,2.488
9,180,numeric,0.1,0.2,target,competitor,0,7.237
9,181,numeric,0.1,0.05,competitor,competitor,0,5.466
9,182,perceptual,0.1,0.05,target,competitor,0,2.51
9,183,perceptual,0.03,0.2,competitor,competitor,0,3.26
9,184,perceptual,0.1,0.2,competitor,target,1,3.388
9,185,numeric,0.03,0.05,competitor,target,1,6.826
9,186,perceptual,0.1,0.2,target,competitor,0,3.351
9,187,numeric,0.03,0.2,competitor,target,1,6.927
9,188,perceptual,0.1,0.2,competitor,target,1,2.618
9,189,numeric,0.1,0.05,target,decoy,0,2.82
9,190,perceptual,0.1,0.05,competitor,target,1,2.793
9,191,perceptual,0.1,0.05,target,decoy,0,3.564
9,192,perceptual,0.1,0.2,competitor,competitor,0,4.195
10,1,perceptual,0.1,0.05,competitor,target,1,11.289
10,3,numeric,0.03,0.05,target,target,1,0.185
10,4,perceptual,0.1,0.05,target,target,1,6.052
10,5,numeric,0.03,0.05,target,competitor,0,4.371
10,6,perceptual,0.1,0.2,target,competitor,0,4.804
10,7,perceptual,0.1,0.05,competitor,target,1,3.256
10,8,numeric,0.1,0.05,competitor,target,1,13.249
10,9,numeric,0.03,0.05,competitor,competitor,0,14.071
10,10,numeric,0.1,0.05,target,competitor,0,11.951
10,11,perceptual,0.03,0.05,competitor,target,1,3.126
10,12,numeric,0.03,0.2,competitor,target,1,4.292
10,13,numeric,0.1,0.05,target,target,1,11.358
10,14,numeric,0.03,0.2,target,competitor,0,4.244
10,15,perceptual,0.1,0.05,competitor,target,1,4.562
10,16,perceptual,0.03,0.05,target,target,1,8.365
10,17,numeric,0.1,0.2,competitor,target,1,4.651
10,18,numeric,0.1,0.2,target,target,1,9.7
10,19,numeric,0.03,0.05,target,target,1,15.198
10,21,perceptual,0.1,0.2,competitor,decoy,0,0.325
10,22,perceptual,0.03,0.05,competitor,target,1,3.57
10,23,perceptual,0.1,0.2,target,target,1,4.514
10,24,perceptual,0.1,0.2,competitor,target,1,3.254
10,25,numeric,0.1,0.2,competitor,target,1,6.229
10,26,numeric,0.1,0.2,competitor,target,1,8.313
10,27,perceptual,0.03,0.2,competitor,target,1,10.242
10,28,perceptual,0.1,0.2,target,target,1,4.021
10,29,perceptual,0.03,0.2,target,competitor,0,6.401
10,30,perceptual,0.03,0.2,competitor,target,1,4.824
10,31,perceptual,0.1,0.05,competitor,target,1,4.664
10,32,numeric,0.03,0.2,competitor,competitor,0,12.658
10,33,perceptual,0.1,0.05,target,target,1,9.025
10,34,numeric,0.1,0.2,target,target,1,8.509
10,35,perceptual,0.03,0.2,target,target,1,3.497
10,36,perceptual,0.1,0.05,target,target,1,6.848
10,37,perceptual,0.03,0.05,target,competitor,0,6.119
10,38,perceptual,0.03,0.2,competitor,competitor,0,14.3
10,39,perceptual,0.1,0.2,competitor,target,1,7.37
10,40,numeric,0.1,0.05,competitor,target,1,11.432
10,41,numeric,0.1,0.2,competitor,target,1,8.493
10,42,numeric,0.1,0.05,competitor,decoy,0,11.369
10,43,perceptual,0.03,0.05,target,competitor,0,6.469
10,44,perceptual,0.03,0.05,target,target,1,9.889
10,45,perceptual,0.1,0.05,competitor,target,1,8.994
10,46,perceptual,0.03,0.2,competitor,competitor,0,10.048
10,47,numeric,0.1,0.2,competitor,competitor,0,11.476
10,48,perceptual,0.1,0.2,target,target,1,3.212
10,49,numeric,0.03,0.2,target,competitor,0,5.776
10,50,numeric,0.03,0.05,target,target,1,10.129
10,51,perceptual,0.1,0.05,competitor,target,1,5.114
10,52,numeric,0.03,0.2,target,target,1,5.353
10,53,perceptual,0.1,0.05,target,target,1,3.064
10,54,perceptual,0.1,0.05,target,target,1,2.235
10,55,numeric,0.03,0.2,target,target,1,12.102
10,56,perceptual,0.03,0.05,target,competitor,0,3.905
10,57,numeric,0.03,0.2,competitor,competitor,0,14.573
10,58,numeric,0.03,0.05,competitor,competitor,0,17.555
10,59,numeric,0.1,0.05,competitor,target,1,7.748
10,60,numeric,0.1,0.05,target,competitor,0,6.018
10,61,numeric,0.1,0.2,target,competitor,0,6.683
10,62,numeric,0.03,0.2,competitor,competitor,0,10.466
10,63,perceptual,0.03,0.2,competitor,target,1,7.803
10,64,numeric,0.03,0.2,target,target,1,4.638
10,65,perceptual,0.03,0.05,competitor,competitor,0,7.204
10,66,perceptual,0.03,0.2,competitor,competitor,0,6.634
10,67,perceptual,0.03,0.2,competitor,target,1,2.538
10,68,numeric,0.1,0.2,competitor,competitor,0,9.292
10,69,numeric,0.03,0.2,competitor,target,1,3.688
10,70,perceptual,0.1,0.2,competitor,decoy,0,2.318
10,71,numeric,0.03,0.2,target,target,1,2.76
10,72,numeric,0.1,0.2,target,target,1,2.121
10,73,numeric,0.03,0.05,competitor,competitor,0,4.321
10,74,numeric,0.03,0.2,competitor,target,1,2.009
10,75,perceptual,0.03,0.2,target,competitor,0,2
10,76,numeric,0.1,0.05,target,decoy,0,2.196
10,77,perceptual,0.1,0.05,competitor,decoy,0,2.397
10,78,perceptual,0.1,0.2,competitor,target,1,2.722
10,79,perceptual,0.03,0.05,target,decoy,0,2
10,80,perceptual,0.1,0.2,target,target,1,2.224
10,81,perceptual,0.03,0.05,competitor,target,1,2.1
10,82,numeric,0.1,0.05,target,target,1,2.567
10,83,perceptual,0.1,0.2,target,target,1,2.657
10,84,numeric,0.03,0.05,competitor,target,1,1.989
10,85,perceptual,0.1,0.05,target,target,1,3.366
10,86,numeric,0.03,0.05,competitor,decoy,0,2.518
10,87,numeric,0.1,0.05,competitor,competitor,0,2.349
10,88,perceptual,0.03,0.2,target,target,1,2.739
10,89,numeric,0.1,0.05,competitor,decoy,0,1.821
10,90,perceptual,0.03,0.05,target,competitor,0,1.612
10,91,numeric,0.1,0.2,competitor,decoy,0,1.431
10,92,numeric,0.1,0.05,competitor,decoy,0,1.442
10,93,perceptual,0.03,0.05,competitor,competitor,0,1.653
10,94,numeric,0.03,0.05,competitor,decoy,0,1.689
10,95,perceptual,0.1,0.2,competitor,target,1,2.136
10,96,perceptual,0.03,0.2,target,target,1,1.889
10,97,numeric,0.03,0.05,target,decoy,0,1.511
10,98,perceptual,0.1,0.05,target,competitor,0,1.37
10,99,perceptual,0.03,0.05,target,competitor,0,1.449
10,100,perceptual,0.1,0.2,competitor,target,1,1.693
10,101,numeric,0.03,0.05,target,competitor,0,2.069
10,102,numeric,0.1,0.05,competitor,target,1,2.308
10,103,numeric,0.03,0.2,competitor,target,1,5.397
10,104,numeric,0.03,0.2,target,target,1,2.064
10,105,numeric,0.1,0.2,competitor,target,1,2.082
10,106,perceptual,0.1,0.05,competitor,target,1,2.236
10,107,numeric,0.1,0.2,target,target,1,3.399
10,108,numeric,0.1,0.05,target,target,1,5.421
10,109,perceptual,0.03,0.05,competitor,decoy,0,6.374
10,110,perceptual,0.03,0.2,competitor,competitor,0,10.795
10,111,numeric,0.03,0.05,target,decoy,0,3.423
10,112,numeric,0.1,0.2,target,decoy,0,2.027
10,113,perceptual,0.03,0.05,target,target,1,3.055
10,114,numeric,0.1,0.2,target,target,1,2.429
10,115,numeric,0.03,0.2,target,target,1,2.313
10,116,perceptual,0.1,0.2,competitor,target,1,2.199
10,117,perceptual,0.1,0.05,target,competitor,0,5.469
10,118,perceptual,0.03,0.2,competitor,competitor,0,3.721
10,119,perceptual,0.03,0.2,target,target,1,1.8
10,120,numeric,0.03,0.2,target,decoy,0,2.612
10,121,numeric,0.03,0.05,target,decoy,0,2.574
10,122,perceptual,0.1,0.2,target,decoy,0,1.807
10,123,numeric,0.03,0.05,competitor,target,1,2.57
10,124,perceptual,0.1,0.2,target,target,1,2.211
10,125,perceptual,0.1,0.05,target,target,1,2.147
10,126,numeric,0.1,0.2,target,competitor,0,3.223
10,127,perceptual,0.1,0.2,competitor,target,1,2.883
10,128,numeric,0.1,0.2,competitor,competitor,0,3.762
10,129,numeric,0.1,0.2,target,target,1,3.83
10,130,numeric,0.1,0.2,competitor,competitor,0,1.766
10,131,numeric,0.03,0.05,competitor,competitor,0,1.956
10,132,numeric,0.1,0.05,target,target,1,2.399
10,133,perceptual,0.03,0.2,target,competitor,0,3.383
10,134,numeric,0.1,0.05,target,decoy,0,2.252
10,135,perceptual,0.1,0.05,competitor,competitor,0,2.499
10,136,numeric,0.1,0.2,competitor,competitor,0,2.168
10,137,numeric,0.03,0.2,competitor,decoy,0,2.507
10,138,perceptual,0.03,0.05,competitor,target,1,1.854
10,139,numeric,0.1,0.05,target,target,1,1.614
10,140,perceptual,0.03,0.2,target,target,1,1.944
10,141,numeric,0.1,0.2,target,target,1,2.209
10,142,numeric,0.1,0.2,target,target,1,4.343
10,143,perceptual,0.03,0.05,target,target,1,2.258
10,144,perceptual,0.03,0.05,competitor,target,1,2.284
10,145,perceptual,0.03,0.05,competitor,target,1,4.032
10,146,perceptual,0.03,0.2,competitor,target,1,3.153
10,147,perceptual,0.03,0.05,target,target,1,7.99
10,148,numeric,0.1,0.05,target,target,1,2.833
10,149,numeric,0.03,0.05,competitor,competitor,0,2.858
10,150,perceptual,0.1,0.2,target,target,1,2.672
10,151,numeric,0.03,0.05,competitor,competitor,0,11.398
10,152,perceptual,0.1,0.2,competitor,target,1,4.144
10,153,perceptual,0.1,0.05,competitor,target,1,4.286
10,154,numeric,0.03,0.2,target,decoy,0,7.097
10,155,numeric,0.03,0.2,target,competitor,0,0.309
10,156,numeric,0.03,0.05,target,target,1,6.944
10,157,perceptual,0.03,0.05,competitor,competitor,0,3.166
10,158,perceptual,0.1,0.05,competitor,target,1,3.29
10,159,perceptual,0.1,0.2,target,decoy,0,3.8
10,160,numeric,0.03,0.2,competitor,target,1,5.702
10,161,perceptual,0.1,0.2,competitor,target,1,2.26
10,162,numeric,0.03,0.2,competitor,competitor,0,6.478
10,163,perceptual,0.03,0.2,target,target,1,3.207
10,164,perceptual,0.1,0.2,target,target,1,3.301
10,165,numeric,0.03,0.05,target,target,1,3.973
10,166,perceptual,0.03,0.2,competitor,target,1,4.213
10,167,numeric,0.03,0.2,target,competitor,0,3.924
10,168,numeric,0.1,0.2,competitor,competitor,0,3.334
10,169,perceptual,0.03,0.05,target,decoy,0,4.748
10,170,numeric,0.1,0.05,competitor,competitor,0,2.485
10,171,perceptual,0.1,0.05,target,target,1,6.273
10,172,numeric,0.1,0.2,target,target,1,2.02
10,173,perceptual,0.03,0.2,target,target,1,2.146
10,174,perceptual,0.1,0.05,target,competitor,0,1.723
10,175,perceptual,0.03,0.05,competitor,competitor,0,2.625
10,176,perceptual,0.03,0.05,competitor,target,1,3.064
10,177,numeric,0.1,0.05,competitor,target,1,3.212
10,178,numeric,0.1,0.05,target,target,1,1.83
10,179,numeric,0.03,0.2,competitor,target,1,2.16
10,180,numeric,0.03,0.05,competitor,target,1,2.193
10,182,perceptual,0.03,0.2,target,target,1,2.154
10,183,perceptual,0.1,0.2,target,target,1,4.403
10,184,perceptual,0.03,0.2,target,target,1,15.243
10,185,numeric,0.1,0.05,competitor,decoy,0,9.457
10,186,perceptual,0.1,0.05,competitor,target,1,4.631
10,187,perceptual,0.1,0.05,target,target,1,5.307
10,188,numeric,0.1,0.05,competitor,competitor,0,3.08
10,189,numeric,0.03,0.2,competitor,target,1,3.372
10,190,perceptual,0.03,0.2,competitor,target,1,5.739
10,191,perceptual,0.1,0.2,competitor,competitor,0,4.327
10,192,numeric,0.1,0.05,target,target,1,1.718
11,1,perceptual,0.03,0.05,target,target,1,8.223
11,2,perceptual,0.1,0.05,target,target,1,4.552
11,3,numeric,0.1,0.2,target,target,1,5.882
11,4,perceptual,0.1,0.2,competitor,target,1,5.027
11,5,numeric,0.03,0.05,target,target,1,6.473
11,6,numeric,0.1,0.2,target,target,1,7.816
11,7,perceptual,0.1,0.2,target,target,1,5.036
11,8,perceptual,0.03,0.2,target,target,1,7.865
11,9,numeric,0.03,0.2,target,target,1,6.283
11,10,numeric,0.1,0.2,competitor,target,1,7.5
11,11,numeric,0.1,0.2,competitor,target,1,5.149
11,12,numeric,0.03,0.2,target,competitor,0,10.17
11,13,numeric,0.03,0.05,target,target,1,7.757
11,14,numeric,0.1,0.05,competitor,target,1,7.516
11,15,numeric,0.1,0.05,target,target,1,9.553
11,16,perceptual,0.1,0.05,competitor,target,1,5.733
11,17,perceptual,0.1,0.05,target,target,1,4.24
11,18,perceptual,0.1,0.2,competitor,target,1,4.764
11,19,perceptual,0.03,0.05,target,target,1,4.973
11,20,perceptual,0.03,0.2,target,target,1,3.915
11,21,numeric,0.1,0.05,competitor,target,1,6.566
11,22,numeric,0.1,0.2,target,target,1,7.373
11,23,perceptual,0.03,0.05,competitor,target,1,7.713
11,24,numeric,0.03,0.05,competitor,target,1,8.084
11,25,perceptual,0.1,0.2,competitor,target,1,6.1
11,26,perceptual,0.03,0.05,competitor,target,1,10.371
11,27,numeric,0.1,0.05,competitor,competitor,0,7.013
11,28,numeric,0.1,0.05,target,competitor,0,10.15
11,29,numeric,0.03,0.05,target,target,1,8.254
11,30,perceptual,0.03,0.05,target,target,1,6.566
11,31,perceptual,0.1,0.2,competitor,competitor,0,5.932
11,32,perceptual,0.03,0.05,competitor,target,1,5.723
11,33,perceptual,0.03,0.2,target,target,1,5.489
11,34,numeric,0.03,0.2,target,target,1,8.917
11,35,numeric,0.03,0.2,competitor,competitor,0,10.589
11,36,perceptual,0.03,0.2,competitor,competitor,0,6.982
11,37,numeric,0.1,0.05,competitor,target,1,5.832
11,38,perceptual,0.03,0.05,competitor,target,1,8.509
11,39,perceptual,0.03,0.05,target,decoy,0,8.241
11,40,perceptual,0.03,0.05,competitor,competitor,0,7.897
11,41,numeric,0.03,0.05,target,target,1,8.055
11,42,perceptual,0.03,0.2,competitor,target,1,9.633
11,43,perceptual,0.03,0.2,target,competitor,0,7.127
11,44,perceptual,0.1,0.2,target,target,1,8.515
11,45,perceptual,0.1,0.05,competitor,target,1,5.916
11,46,perceptual,0.1,0.05,target,target,1,5.834
11,47,perceptual,0.1,0.2,target,competitor,0,9.051
11,48,numeric,0.03,0.2,target,target,1,6.548
11,49,perceptual,0.03,0.2,target,target,1,3.572
11,50,perceptual,0.1,0.05,competitor,decoy,0,3.531
11,51,perceptual,0.03,0.05,target,decoy,0,9.068
11,52,perceptual,0.03,0.05,target,target,1,11.55
11,53,perceptual,0.1,0.2,target,decoy,0,6.11
11,54,perceptual,0.03,0.05,target,competitor,0,8.567
11,55,numeric,0.1,0.2,competitor,competitor,0,7.046
11,56,perceptual,0.03,0.2,competitor,target,1,9.782
11,57,perceptual,0.1,0.05,competitor,target,1,5.183
11,58,numeric,0.1,0.05,target,target,1,7.073
11,59,numeric,0.1,0.2,competitor,competitor,0,8.868
11,60,perceptual,0.1,0.2,target,target,1,4.947
11,61,perceptual,0.03,0.2,target,competitor,0,4.425
11,62,numeric,0.1,0.2,target,target,1,11.048
11,63,perceptual,0.1,0.05,target,target,1,6.157
11,64,numeric,0.1,0.2,target,target,1,4.571
11,65,numeric,0.03,0.05,competitor,target,1,4.587
11,66,perceptual,0.03,0.2,competitor,target,1,5.406
11,67,perceptual,0.1,0.2,competitor,target,1,5.048
11,68,numeric,0.1,0.2,target,target,1,6.552
11,69,perceptual,0.1,0.2,target,target,1,4.144
11,70,numeric,0.1,0.05,competitor,target,1,6.28
11,71,numeric,0.1,0.05,target,target,1,7.332
11,72,numeric,0.03,0.05,competitor,target,1,5.632
11,73,numeric,0.03,0.2,competitor,competitor,0,8.97
11,74,numeric,0.1,0.2,competitor,competitor,0,8.585
11,75,numeric,0.03,0.2,target,target,1,11.853
11,76,numeric,0.03,0.05,target,competitor,0,8.433
11,77,numeric,0.03,0.05,target,target,1,10.098
11,78,perceptual,0.03,0.05,target,target,1,10.765
11,79,perceptual,0.1,0.2,target,target,1,6.741
11,80,perceptual,0.03,0.2,competitor,competitor,0,6.387
11,81,perceptual,0.03,0.05,competitor,decoy,0,9.009
11,82,perceptual,0.03,0.2,target,competitor,0,8.267
11,83,numeric,0.03,0.2,competitor,competitor,0,4.9
11,84,perceptual,0.1,0.2,competitor,target,1,3.706
11,85,numeric,0.03,0.2,competitor,target,1,5.897
11,86,perceptual,0.1,0.2,target,target,1,6.022
11,87,perceptual,0.1,0.2,competitor,target,1,9.89
11,88,perceptual,0.1,0.2,target,target,1,7.382
11,89,numeric,0.1,0.05,competitor,target,1,4.832
11,90,numeric,0.03,0.2,target,competitor,0,8.878
11,91,perceptual,0.03,0.05,target,target,1,10.046
11,92,perceptual,0.1,0.05,target,target,1,8.615
11,93,numeric,0.1,0.05,competitor,target,1,5.151
11,94,perceptual,0.1,0.05,target,decoy,0,7.982
11,95,numeric,0.03,0.05,competitor,competitor,0,11.715
11,96,perceptual,0.1,0.2,target,target,1,7.632
11,97,perceptual,0.1,0.2,competitor,target,1,4.839
11,98,perceptual,0.1,0.05,competitor,target,1,5.337
11,99,perceptual,0.1,0.05,competitor,target,1,7.866
11,100,perceptual,0.1,0.05,target,decoy,0,9.836
11,101,perceptual,0.03,0.05,competitor,target,1,15.931
11,102,perceptual,0.1,0.05,competitor,target,1,4.384
11,103,perceptual,0.1,0.05,target,target,1,11.724
11,104,numeric,0.03,0.05,competitor,target,1,4.92
11,105,perceptual,0.03,0.2,target,target,1,4.564
11,106,numeric,0.1,0.05,competitor,target,1,4.348
11,107,perceptual,0.03,0.05,competitor,target,1,4.43
11,108,numeric,0.1,0.05,target,target,1,5.502
11,109,numeric,0.03,0.2,target,target,1,5.019
11,110,numeric,0.03,0.2,target,target,1,7.433
11,111,perceptual,0.1,0.05,competitor,target,1,4.099
11,112,perceptual,0.1,0.2,target,target,1,3.435
11,113,numeric,0.1,0.2,target,target,1,7.389
11,114,perceptual,0.03,0.2,competitor,target,1,6.052
11,115,numeric,0.1,0.05,target,target,1,5.707
11,116,numeric,0.1,0.2,target,target,1,3.949
11,117,perceptual,0.1,0.2,competitor,target,1,4.399
11,118,numeric,0.1,0.05,competitor,target,1,6.777
11,119,perceptual,0.03,0.2,target,competitor,0,2.748
11,120,numeric,0.03,0.05,target,competitor,0,7.984
11,121,perceptual,0.1,0.2,competitor,target,1,4.117
11,122,perceptual,0.1,0.05,target,target,1,9.683
11,123,numeric,0.03,0.2,competitor,target,1,16.697
11,124,numeric,0.03,0.2,competitor,target,1,13.995
11,125,numeric,0.03,0.05,competitor,target,1,13.321
11,126,numeric,0.1,0.2,competitor,target,1,7.038
11,127,perceptual,0.03,0.2,competitor,competitor,0,10.202
11,128,numeric,0.03,0.05,competitor,target,1,7.15
11,129,perceptual,0.03,0.2,competitor,target,1,4.589
11,130,numeric,0.1,0.05,competitor,target,1,5.8
11,131,numeric,0.1,0.2,target,competitor,0,7.891
11,132,numeric,0.1,0.2,target,target,1,8.719
11,133,numeric,0.03,0.2,competitor,competitor,0,9.55
11,134,numeric,0.1,0.05,target,target,1,8.514
11,135,numeric,0.03,0.05,target,target,1,14.571
11,136,numeric,0.1,0.2,competitor,target,1,10.38
11,137,numeric,0.03,0.2,target,target,1,6.209
11,138,numeric,0.1,0.2,competitor,target,1,6.218
11,139,perceptual,0.1,0.05,competitor,target,1,5.334
11,140,perceptual,0.03,0.05,target,competitor,0,5.92
11,141,numeric,0.1,0.2,target,target,1,10.67
11,142,numeric,0.03,0.05,competitor,target,1,12.132
11,143,numeric,0.03,0.2,target,competitor,0,6.716
11,144,numeric,0.03,0.05,target,target,1,16.32
11,145,perceptual,0.1,0.05,target,target,1,7.376
11,146,numeric,0.1,0.05,target,target,1,5.673
11,147,numeric,0.03,0.2,competitor,target,1,6.507
11,148,numeric,0.03,0.05,target,target,1,10.235
11,149,perceptual,0.1,0.2,target,target,1,7.184
11,150,numeric,0.03,0.2,target,target,1,14.174
11,151,perceptual,0.1,0.05,target,target,1,4.354
11,152,numeric,0.1,0.2,competitor,target,1,9.316
11,153,numeric,0.03,0.05,target,target,1,15.221
11,154,perceptual,0.03,0.2,target,competitor,0,11.732
11,155,numeric,0.1,0.05,target,target,1,5.015
11,156,perceptual,0.03,0.2,target,target,1,10.783
11,157,perceptual,0.03,0.05,target,target,1,8.805
11,158,perceptual,0.03,0.05,target,target,1,6.633
11,159,numeric,0.03,0.05,competitor,target,1,12.865
11,160,perceptual,0.03,0.05,competitor,competitor,0,11.957
11,161,perceptual,0.1,0.05,target,decoy,0,7.928
11,162,numeric,0.03,0.05,competitor,target,1,6.365
11,163,perceptual,0.03,0.2,target,competitor,0,7.016
11,164,numeric,0.1,0.05,target,target,1,8.088
11,165,perceptual,0.1,0.2,competitor,competitor,0,6.998
11,166,numeric,0.03,0.05,target,target,1,6.904
11,167,numeric,0.03,0.05,competitor,competitor,0,8.337
11,168,numeric,0.03,0.2,competitor,target,1,10.551
11,169,numeric,0.03,0.2,competitor,competitor,0,9.415
11,170,perceptual,0.1,0.05,competitor,target,1,5.95
11,171,perceptual,0.1,0.2,competitor,target,1,6.772
11,172,numeric,0.1,0.2,competitor,target,1,10.79
11,173,numeric,0.03,0.05,competitor,competitor,0,9.994
11,174,numeric,0.1,0.05,target,target,1,11.417
11,175,perceptual,0.03,0.2,competitor,competitor,0,6.249
11,176,perceptual,0.03,0.05,competitor,target,1,7.215
11,177,perceptual,0.03,0.2,competitor,target,1,8.429
11,178,numeric,0.1,0.05,competitor,target,1,6.563
11,179,numeric,0.1,0.05,competitor,target,1,6.479
11,180,perceptual,0.1,0.05,competitor,target,1,6.289
11,181,perceptual,0.03,0.2,competitor,competitor,0,6.288
11,182,numeric,0.03,0.2,target,target,1,15.24
11,183,perceptual,0.03,0.2,competitor,target,1,8.155
11,184,numeric,0.1,0.2,competitor,target,1,14.065
11,185,perceptual,0.03,0.05,competitor,competitor,0,6.585
11,186,numeric,0.1,0.2,competitor,target,1,9.049
11,187,perceptual,0.03,0.05,competitor,competitor,0,7.513
11,188,numeric,0.1,0.2,target,target,1,8.176
11,189,numeric,0.1,0.05,target,target,1,8.17
11,190,perceptual,0.1,0.05,competitor,target,1,6.873
11,191,numeric,0.03,0.2,competitor,target,1,7.789
11,192,numeric,0.03,0.2,competitor,target,1,17.549
12,1,numeric,0.03,0.05,target,competitor,0,12.137
12,2,numeric,0.03,0.05,target,competitor,0,6.2
12,3,perceptual,0.03,0.05,target,target,1,7.223
12,4,perceptual,0.1,0.05,competitor,target,1,6.204
12,5,perceptual,0.1,0.05,competitor,competitor,0,3.139
12,6,perceptual,0.03,0.05,competitor,target,1,5.551
12,7,numeric,0.03,0.2,competitor,target,1,9.738
12,8,perceptual,0.1,0.05,competitor,target,1,8.384
12,9,perceptual,0.1,0.2,target,target,1,7.132
12,10,numeric,0.1,0.2,target,decoy,0,9.09
12,11,numeric,0.03,0.2,target,target,1,5.208
12,12,perceptual,0.03,0.05,competitor,competitor,0,5.849
12,13,numeric,0.03,0.05,competitor,competitor,0,6.216
12,14,numeric,0.03,0.05,competitor,competitor,0,8.135
12,15,numeric,0.03,0.05,competitor,competitor,0,6.166
12,16,numeric,0.03,0.2,target,competitor,0,11.788
12,17,numeric,0.1,0.2,competitor,competitor,0,7.45
12,18,perceptual,0.03,0.05,competitor,target,1,8.334
12,19,numeric,0.03,0.05,competitor,target,1,7.116
12,20,perceptual,0.1,0.2,target,competitor,0,9.016
12,21,perceptual,0.03,0.05,target,decoy,0,8.535
12,22,perceptual,0.1,0.2,target,target,1,7.695
12,23,numeric,0.03,0.05,target,target,1,7.094
12,24,numeric,0.03,0.2,competitor,competitor,0,6.863
12,25,numeric,0.03,0.05,target,target,1,10.235
12,26,numeric,0.03,0.2,target,target,1,5.882
12,27,numeric,0.1,0.05,competitor,competitor,0,6.335
12,28,perceptual,0.1,0.2,competitor,target,1,5.118
12,29,numeric,0.03,0.05,target,target,1,7.266
12,30,numeric,0.1,0.05,target,target,1,5.484
12,31,perceptual,0.1,0.05,competitor,target,1,4.734
12,32,numeric,0.03,0.2,target,target,1,7.249
12,33,perceptual,0.03,0.2,competitor,target,1,8.557
12,34,perceptual,0.1,0.05,target,target,1,4.775
12,35,perceptual,0.1,0.05,target,decoy,0,10.499
12,36,numeric,0.1,0.05,competitor,competitor,0,7.156
12,37,perceptual,0.03,0.05,competitor,competitor,0,5.801
12,38,numeric,0.03,0.05,competitor,competitor,0,8.599
12,39,numeric,0.1,0.2,target,target,1,6.472
12,40,perceptual,0.03,0.05,competitor,decoy,0,4.091
12,41,perceptual,0.1,0.2,competitor,competitor,0,4.071
12,42,numeric,0.03,0.05,competitor,competitor,0,12.017
12,43,perceptual,0.03,0.2,competitor,competitor,0,5.837
12,44,numeric,0.1,0.05,competitor,target,1,7.449
12,45,perceptual,0.1,0.2,target,competitor,0,3.8
12,46,numeric,0.03,0.05,competitor,decoy,0,11.918
12,47,perceptual,0.1,0.2,competitor,target,1,3.588
12,48,numeric,0.1,0.2,target,target,1,6.933
12,49,numeric,0.03,0.2,competitor,target,1,6.452
12,50,perceptual,0.1,0.05,competitor,competitor,0,6.605
12,51,perceptual,0.1,0.05,target,competitor,0,4.554
12,52,numeric,0.1,0.05,competitor,target,1,7.059
12,53,perceptual,0.03,0.2,competitor,target,1,5.62
12,54,perceptual,0.03,0.2,target,competitor,0,4.652
12,55,perceptual,0.1,0.2,competitor,target,1,4.5
12,56,perceptual,0.1,0.05,competitor,competitor,0,6.303
12,57,perceptual,0.1,0.2,competitor,target,1,4.523
12,58,perceptual,0.03,0.05,competitor,decoy,0,5.305
12,59,numeric,0.03,0.05,target,target,1,8.556
12,60,numeric,0.1,0.05,target,target,1,8.781
12,61,numeric,0.03,0.2,competitor,competitor,0,8.979
12,62,perceptual,0.03,0.2,competitor,target,1,4.786
12,63,numeric,0.1,0.2,target,target,1,8.417
12,64,perceptual,0.1,0.05,target,target,1,2.95
12,65,perceptual,0.03,0.05,target,decoy,0,11.085
12,66,perceptual,0.1,0.05,competitor,target,1,5.784
12,67,perceptual,0.1,0.05,competitor,competitor,0,7.974
12,68,numeric,0.03,0.2,target,target,1,10.833
12,69,numeric,0.03,0.2,competitor,competitor,0,6.767
12,70,perceptual,0.03,0.2,competitor,competitor,0,5.519
12,71,numeric,0.1,0.05,target,target,1,4.337
12,72,perceptual,0.1,0.2,target,competitor,0,6.133
12,73,perceptual,0.1,0.05,target,decoy,0,5.166
12,74,numeric,0.1,0.2,target,target,1,5.4
12,75,perceptual,0.03,0.05,competitor,competitor,0,3.633
12,76,perceptual,0.1,0.2,competitor,target,1,2.988
12,77,perceptual,0.1,0.2,target,target,1,3.289
12,78,perceptual,0.03,0.05,target,target,1,6.572
12,79,perceptual,0.03,0.2,target,target,1,3.8
12,80,numeric,0.1,0.2,competitor,target,1,8.272
12,81,numeric,0.1,0.2,competitor,target,1,6.718
12,82,perceptual,0.1,0.2,target,target,1,7.183
12,83,perceptual,0.1,0.05,target,target,1,4.666
12,84,numeric,0.1,0.2,target,target,1,5.922
12,85,numeric,0.1,0.2,competitor,competitor,0,5.649
12,86,numeric,0.1,0.2,target,competitor,0,9.269
12,87,numeric,0.03,0.2,competitor,competitor,0,6.883
12,88,perceptual,0.03,0.2,target,target,1,3.921
12,89,perceptual,0.03,0.05,target,competitor,0,5.069
12,90,perceptual,0.03,0.2,target,competitor,0,4.733
12,91,numeric,0.03,0.2,target,target,1,6.22
12,92,perceptual,0.1,0.05,target,target,1,4.573
12,93,numeric,0.1,0.05,target,target,1,8.449
12,94,perceptual,0.1,0.05,competitor,competitor,0,4.823
12,95,numeric,0.1,0.05,target,target,1,9.819
12,96,perceptual,0.03,0.2,competitor,competitor,0,4.917
12,97,perceptual,0.03,0.2,competitor,target,1,4.521
12,98,numeric,0.1,0.05,target,target,1,7.148
12,99,perceptual,0.1,0.05,target,target,1,3.913
12,100,numeric,0.1,0.05,target,target,1,10.205
12,101,numeric,0.1,0.05,target,target,1,4.981
12,102,numeric,0.03,0.05,competitor,competitor,0,4.903
12,103,perceptual,0.1,0.05,target,competitor,0,3.818
12,104,perceptual,0.03,0.2,target,competitor,0,2.953
12,105,numeric,0.1,0.05,competitor,competitor,0,7.99
12,106,numeric,0.03,0.2,target,competitor,0,8.834
12,107,perceptual,0.03,0.05,target,competitor,0,5.42
12,108,perceptual,0.03,0.2,target,target,1,5.665
12,109,perceptual,0.03,0.2,competitor,competitor,0,3.349
12,110,numeric,0.03,0.2,target,decoy,0,3.412
12,111,perceptual,0.1,0.2,target,competitor,0,4.47
12,112,numeric,0.03,0.2,target,target,1,9.3
12,113,numeric,0.03,0.2,competitor,target,1,7.333
12,114,perceptual,0.1,0.2,competitor,target,1,3.072
12,115,numeric,0.03,0.05,target,target,1,4.866
12,116,numeric,0.03,0.05,target,target,1,8.18
