participant,trial_counter,condition,target_to_competitor,decoy_reduction,decoy_on,chosen_item,correct,rt
1,1,numeric,0.03,0.05,target,target,1,6.345
1,2,numeric,0.03,0.05,competitor,competitor,0,7.18
1,3,numeric,0.1,0.2,target,target,1,4.658
1,4,perceptual,0.1,0.2,target,target,1,4.168
1,5,numeric,0.1,0.2,target,target,1,5.263
1,6,perceptual,0.03,0.2,target,target,1,3.46
1,7,perceptual,0.03,0.05,target,competitor,0,3.074
1,8,numeric,0.1,0.2,target,target,1,5.573
1,9,perceptual,0.1,0.2,competitor,target,1,3.103
1,10,numeric,0.03,0.05,competitor,competitor,0,5.253
1,11,numeric,0.03,0.2,competitor,competitor,0,8.617
1,12,perceptual,0.03,0.2,target,target,1,4.218
1,13,perceptual,0.03,0.05,competitor,target,1,3.058
1,14,numeric,0.1,0.05,competitor,target,1,9.478
1,15,perceptual,0.1,0.05,target,competitor,0,4.149
1,16,perceptual,0.03,0.05,target,target,1,2.892
1,17,perceptual,0.03,0.2,competitor,competitor,0,2.961
1,18,numeric,0.03,0.2,target,target,1,4.308
1,19,numeric,0.03,0.05,target,target,1,6.61
1,20,numeric,0.03,0.2,competitor,target,1,7.279
1,21,numeric,0.1,0.2,competitor,target,1,8.209
1,22,numeric,0.03,0.05,competitor,target,1,3.872
1,23,perceptual,0.1,0.05,competitor,target,1,4.308
1,24,numeric,0.1,0.05,target,target,1,7.569
1,25,perceptual,0.1,0.2,competitor,target,1,6.6
1,26,perceptual,0.03,0.05,competitor,competitor,0,4.301
1,27,perceptual,0.03,0.05,competitor,decoy,0,4.08
1,28,perceptual,0.03,0.2,competitor,competitor,0,2.912
1,29,perceptual,0.03,0.05,competitor,competitor,0,4.451
1,30,perceptual,0.03,0.2,target,competitor,0,3.295
1,31,perceptual,0.1,0.05,target,target,1,5.795
1,32,numeric,0.03,0.2,target,target,1,7.277
1,33,numeric,0.03,0.05,target,target,1,4.148
1,34,numeric,0.03,0.05,competitor,competitor,0,7.642
1,35,numeric,0.03,0.05,competitor,target,1,10.892
1,36,perceptual,0.03,0.05,target,decoy,0,4.518
1,37,numeric,0.1,0.2,target,target,1,5.065
1,38,numeric,0.1,0.05,target,competitor,0,13.343
1,39,numeric,0.03,0.05,competitor,target,1,7.13
1,40,perceptual,0.03,0.2,target,target,1,4.737
1,41,numeric,0.1,0.2,target,target,1,6.486
1,42,perceptual,0.1,0.2,target,target,1,3.408
1,43,perceptual,0.03,0.05,competitor,target,1,3.985
1,44,perceptual,0.03,0.2,target,competitor,0,3.529
1,45,perceptual,0.1,0.2,competitor,target,1,4.56
1,46,perceptual,0.1,0.05,competitor,target,1,3.158
1,47,perceptual,0.03,0.2,competitor,target,1,2.856
1,48,perceptual,0.1,0.05,target,target,1,5.713
1,49,numeric,0.1,0.2,competitor,target,1,5.818
1,50,numeric,0.03,0.2,target,competitor,0,6.392
1,51,perceptual,0.03,0.2,competitor,target,1,3.208
1,52,numeric,0.1,0.05,target,target,1,9.806
1,53,numeric,0.03,0.2,target,competitor,0,6.559
1,54,numeric,0.1,0.05,competitor,target,1,4.423
1,55,numeric,0.03,0.2,target,competitor,0,3.347
1,56,numeric,0.1,0.2,target,target,1,8.4
1,57,perceptual,0.03,0.05,target,target,1,5.637
1,58,numeric,0.03,0.05,target,competitor,0,6.771
1,59,numeric,0.1,0.2,competitor,target,1,7.667
1,60,numeric,0.1,0.05,target,target,1,7.357
1,61,numeric,0.1,0.05,competitor,target,1,8.947
1,62,perceptual,0.03,0.2,competitor,competitor,0,3.798
1,63,perceptual,0.03,0.2,competitor,competitor,0,2.857
1,64,numeric,0.1,0.05,target,target,1,5.992
1,65,perceptual,0.03,0.05,competitor,target,1,4.409
1,66,perceptual,0.1,0.05,competitor,target,1,5.318
1,67,numeric,0.03,0.2,competitor,target,1,6.255
1,68,numeric,0.1,0.05,competitor,target,1,4.573
1,69,perceptual,0.03,0.05,target,target,1,5.128
1,70,perceptual,0.1,0.2,target,target,1,4.307
1,71,perceptual,0.03,0.05,competitor,target,1,3.151
1,72,perceptual,0.03,0.2,competitor,target,1,5.027
1,73,numeric,0.1,0.2,target,target,1,8.835
1,74,perceptual,0.03,0.2,competitor,competitor,0,3.072
1,75,numeric,0.1,0.2,target,target,1,12.99
1,76,perceptual,0.1,0.05,competitor,target,1,3.265
1,77,numeric,0.1,0.2,target,target,1,6.917
1,78,numeric,0.03,0.05,target,target,1,6.308
1,79,perceptual,0.03,0.2,target,competitor,0,5.436
1,80,perceptual,0.03,0.05,target,decoy,0,4.589
1,81,numeric,0.03,0.05,target,target,1,7.436
1,82,numeric,0.03,0.2,competitor,target,1,6.173
1,83,perceptual,0.1,0.05,target,target,1,6.893
1,84,perceptual,0.1,0.05,target,target,1,3.451
1,85,numeric,0.1,0.2,competitor,target,1,7.064
1,86,perceptual,0.1,0.2,competitor,target,1,2.614
1,87,numeric,0.03,0.2,target,target,1,8.253
1,88,perceptual,0.1,0.05,competitor,target,1,3.836
1,89,perceptual,0.1,0.05,competitor,competitor,0,5.792
1,90,perceptual,0.1,0.2,target,target,1,4.101
1,91,perceptual,0.1,0.2,competitor,target,1,3.16
1,92,perceptual,0.03,0.05,target,competitor,0,4.209
1,93,numeric,0.1,0.2,target,target,1,6.581
1,94,perceptual,0.1,0.2,target,target,1,4.357
1,95,numeric,0.03,0.2,competitor,target,1,6.997
1,96,numeric,0.03,0.2,target,target,1,8.943
1,97,numeric,0.1,0.2,target,competitor,0,8.516
1,98,perceptual,0.03,0.05,competitor,target,1,6.114
1,99,numeric,0.1,0.2,competitor,target,1,5.262
1,100,numeric,0.03,0.2,competitor,competitor,0,10.726
1,101,numeric,0.03,0.2,target,target,1,10.633
1,102,numeric,0.1,0.2,competitor,target,1,6.816
1,103,perceptual,0.1,0.2,target,target,1,5.325
1,104,numeric,0.1,0.05,competitor,target,1,6.907
1,105,numeric,0.03,0.2,competitor,target,1,8.034
1,106,numeric,0.1,0.05,competitor,target,1,5.652
1,107,perceptual,0.03,0.2,target,target,1,5.1
1,108,perceptual,0.1,0.05,target,target,1,7.212
1,109,perceptual,0.03,0.2,target,target,1,5.835
1,110,perceptual,0.1,0.05,competitor,competitor,0,3.603
1,111,perceptual,0.1,0.05,target,decoy,0,4.16
1,112,perceptual,0.03,0.05,target,target,1,3.044
1,113,numeric,0.03,0.2,target,target,1,5.718
1,114,perceptual,0.1,0.05,competitor,target,1,5.55
1,115,numeric,0.1,0.2,competitor,target,1,5.333
1,116,numeric,0.1,0.2,competitor,target,1,4.341
1,117,numeric,0.03,0.05,target,target,1,7.886
1,118,perceptual,0.03,0.05,competitor,target,1,2.992
1,119,perceptual,0.1,0.05,target,target,1,3.056
1,120,perceptual,0.03,0.05,competitor,decoy,0,4.48
1,121,perceptual,0.03,0.05,target,target,1,4.215
1,122,perceptual,0.1,0.05,competitor,target,1,3.009
1,123,numeric,0.03,0.2,competitor,competitor,0,10.119
1,124,perceptual,0.03,0.2,competitor,competitor,0,3.856
1,125,numeric,0.03,0.05,competitor,competitor,0,8.242
1,126,numeric,0.03,0.05,competitor,competitor,0,6.259
1,127,perceptual,0.1,0.2,competitor,target,1,3.64
1,128,numeric,0.1,0.2,target,target,1,7.879
1,129,numeric,0.03,0.05,target,target,1,7.714
1,130,perceptual,0.03,0.2,target,competitor,0,3.241
1,131,numeric,0.1,0.05,competitor,target,1,4.797
1,132,numeric,0.03,0.2,competitor,target,1,8.488
1,133,numeric,0.03,0.2,competitor,target,1,5.266
1,134,perceptual,0.1,0.2,competitor,target,1,3.287
1,135,perceptual,0.03,0.05,competitor,target,1,3.736
1,136,numeric,0.03,0.05,competitor,target,1,8.95
1,137,numeric,0.1,0.05,target,target,1,3.934
1,138,numeric,0.1,0.05,competitor,target,1,9.093
1,139,perceptual,0.1,0.2,competitor,target,1,3.139
1,140,numeric,0.03,0.2,target,target,1,8.025
1,141,numeric,0.1,0.2,competitor,target,1,9.812
1,142,numeric,0.03,0.2,target,target,1,4.783
1,143,perceptual,0.1,0.05,competitor,decoy,0,4.039
1,144,numeric,0.1,0.05,competitor,competitor,0,7.336
1,145,perceptual,0.03,0.05,competitor,competitor,0,4.468
1,146,numeric,0.1,0.2,competitor,target,1,4.507
1,147,perceptual,0.1,0.2,competitor,target,1,3.539
1,148,perceptual,0.03,0.2,target,target,1,5.617
1,149,numeric,0.1,0.2,competitor,decoy,0,9.323
1,150,numeric,0.03,0.05,competitor,target,1,5.336
1,151,perceptual,0.03,0.2,target,target,1,5.192
1,152,numeric,0.03,0.05,target,competitor,0,7.457
1,153,perceptual,0.03,0.2,competitor,target,1,7.085
1,154,numeric,0.03,0.05,competitor,target,1,5.174
1,155,numeric,0.1,0.05,target,target,1,6.203
1,156,perceptual,0.1,0.2,competitor,target,1,3.205
1,157,numeric,0.1,0.05,competitor,target,1,5.635
1,158,perceptual,0.03,0.05,target,target,1,3.499
1,159,perceptual,0.1,0.2,target,target,1,3.011
1,160,numeric,0.03,0.2,competitor,competitor,0,10.401
1,161,numeric,0.03,0.2,target,target,1,6.881
1,162,numeric,0.1,0.05,target,target,1,11.117
1,163,perceptual,0.1,0.2,target,target,1,2.758
1,164,perceptual,0.1,0.2,target,competitor,0,4.757
1,165,perceptual,0.1,0.2,target,competitor,0,3.88
1,166,perceptual,0.1,0.05,target,target,1,5.856
1,167,numeric,0.03,0.05,target,target,1,4.254
1,168,perceptual,0.1,0.05,target,competitor,0,0.152
1,169,perceptual,0.1,0.2,competitor,target,1,3.516
1,170,perceptual,0.1,0.2,target,target,1,5.134
1,171,numeric,0.1,0.05,target,target,1,6.356
1,172,numeric,0.1,0.2,competitor,competitor,0,9.248
1,173,numeric,0.1,0.05,target,target,1,5.011
1,174,numeric,0.1,0.05,target,target,1,5.746
1,175,numeric,0.03,0.05,competitor,competitor,0,12.207
1,176,perceptual,0.1,0.2,target,target,1,4.83
1,177,perceptual,0.03,0.05,target,target,1,4.744
1,178,numeric,0.1,0.05,target,target,1,5.775
1,179,perceptual,0.1,0.05,target,decoy,0,5.254
1,180,perceptual,0.1,0.05,target,target,1,2.71
1,181,numeric,0.1,0.05,competitor,competitor,0,5.277
1,182,perceptual,0.1,0.05,competitor,competitor,0,3.627
1,183,perceptual,0.03,0.05,target,target,1,5.022
1,184,numeric,0.03,0.05,target,competitor,0,9.124
1,185,numeric,0.1,0.05,competitor,target,1,7.653
1,186,perceptual,0.03,0.2,competitor,target,1,3.488
1,187,perceptual,0.1,0.05,competitor,target,1,2.872
1,188,numeric,0.03,0.05,target,competitor,0,8.408
1,189,perceptual,0.03,0.2,target,target,1,3.68
1,190,perceptual,0.03,0.2,competitor,target,1,5.012
1,191,perceptual,0.1,0.2,competitor,target,1,2.718
1,192,numeric,0.03,0.2,competitor,competitor,0,11.096
2,1,perceptual,0.03,0.2,target,target,1,3.601
2,2,numeric,0.1,0.05,target,decoy,0,14.749
2,3,numeric,0.1,0.2,target,competitor,0,6.027
2,4,perceptual,0.03,0.2,target,target,1,4.945
2,5,perceptual,0.1,0.2,target,target,1,5.418
2,6,perceptual,0.1,0.05,target,target,1,5.119
2,7,perceptual,0.1,0.05,competitor,competitor,0,6.029
2,8,perceptual,0.1,0.2,competitor,target,1,4.903
2,9,numeric,0.1,0.2,target,decoy,0,6.43
2,10,numeric,0.03,0.05,target,target,1,9.668
2,11,numeric,0.03,0.2,target,target,1,7.695
2,12,numeric,0.03,0.05,target,target,1,5.837
2,13,perceptual,0.1,0.05,target,target,1,7.73
2,14,numeric,0.03,0.05,target,competitor,0,9.717
2,15,numeric,0.03,0.05,target,competitor,0,13.439
2,16,perceptual,0.03,0.2,target,target,1,6.658
2,17,perceptual,0.1,0.05,competitor,target,1,5.079
2,18,numeric,0.1,0.2,competitor,competitor,0,6.681
2,19,perceptual,0.1,0.05,target,target,1,6.008
2,20,perceptual,0.03,0.05,competitor,target,1,3.162
2,21,perceptual,0.03,0.05,target,competitor,0,5.458
2,22,numeric,0.03,0.05,competitor,target,1,6.417
2,23,numeric,0.1,0.05,competitor,target,1,10.182
2,24,numeric,0.1,0.2,target,target,1,7.763
2,25,perceptual,0.1,0.05,competitor,target,1,5.042
2,26,perceptual,0.1,0.2,competitor,target,1,4.201
2,27,perceptual,0.1,0.2,competitor,target,1,5.999
2,28,perceptual,0.03,0.2,competitor,target,1,3.862
2,29,perceptual,0.03,0.2,target,target,1,8.148
2,30,numeric,0.03,0.05,target,target,1,9.244
2,31,numeric,0.03,0.2,competitor,competitor,0,8.523
2,32,perceptual,0.03,0.2,target,competitor,0,4.909
2,33,numeric,0.03,0.2,competitor,competitor,0,8.225
2,34,numeric,0.1,0.05,target,target,1,7.108
2,35,numeric,0.03,0.05,target,competitor,0,7.73
2,36,numeric,0.03,0.2,competitor,target,1,7.632
2,37,numeric,0.03,0.05,competitor,competitor,0,11.605
2,38,numeric,0.03,0.05,target,target,1,8.465
2,39,perceptual,0.1,0.05,competitor,target,1,10.234
2,40,numeric,0.03,0.2,target,target,1,7.921
2,41,perceptual,0.1,0.2,target,decoy,0,8.066
2,42,perceptual,0.03,0.05,competitor,competitor,0,6.888
2,43,numeric,0.03,0.2,competitor,target,1,11.356
2,44,numeric,0.03,0.05,target,target,1,7.839
2,45,numeric,0.03,0.2,target,competitor,0,10.517
2,46,numeric,0.1,0.2,competitor,target,1,9.925
2,47,numeric,0.1,0.2,target,target,1,10.087
2,48,numeric,0.1,0.05,competitor,competitor,0,11.851
2,49,perceptual,0.03,0.2,target,target,1,5.261
2,50,perceptual,0.03,0.05,competitor,competitor,0,7.781
2,51,numeric,0.1,0.05,competitor,competitor,0,7.206
2,52,numeric,0.03,0.05,competitor,competitor,0,5.96
2,53,perceptual,0.1,0.05,competitor,target,1,5.008
2,54,perceptual,0.03,0.05,competitor,decoy,0,2.985
2,55,numeric,0.03,0.2,target,target,1,8.051
2,56,perceptual,0.1,0.05,target,target,1,4.358
2,57,perceptual,0.1,0.05,target,decoy,0,6.214
2,58,perceptual,0.1,0.2,competitor,target,1,3.877
2,59,perceptual,0.1,0.2,target,target,1,4.604
2,60,perceptual,0.03,0.2,competitor,target,1,3.451
2,61,numeric,0.03,0.2,target,target,1,4.147
2,62,numeric,0.1,0.2,competitor,competitor,0,7.899
2,63,numeric,0.03,0.2,competitor,competitor,0,9.418
2,64,perceptual,0.1,0.05,target,target,1,7.018
2,65,numeric,0.1,0.05,competitor,target,1,5.768
2,66,perceptual,0.03,0.05,target,competitor,0,5.749
2,67,perceptual,0.03,0.05,competitor,decoy,0,7.183
2,68,perceptual,0.03,0.05,competitor,target,1,5.116
2,69,perceptual,0.03,0.2,competitor,competitor,0,5.394
2,70,perceptual,0.1,0.2,target,target,1,3.408
2,71,numeric,0.1,0.05,competitor,target,1,7.435
2,72,numeric,0.1,0.2,target,target,1,5.801
2,73,perceptual,0.03,0.05,target,target,1,4.966
2,74,numeric,0.1,0.05,target,competitor,0,7.422
2,75,numeric,0.1,0.2,competitor,target,1,7.292
2,76,perceptual,0.1,0.2,target,target,1,5.02
2,77,perceptual,0.03,0.05,competitor,target,1,5.81
2,78,perceptual,0.1,0.2,target,target,1,4.233
2,79,perceptual,0.03,0.2,target,target,1,4.908
2,80,perceptual,0.03,0.2,competitor,target,1,4.362
2,81,perceptual,0.03,0.2,competitor,target,1,3.425
2,82,perceptual,0.03,0.05,target,competitor,0,9.686
2,83,perceptual,0.03,0.2,target,decoy,0,5.679
2,84,numeric,0.03,0.05,competitor,target,1,9.455
2,85,perceptual,0.03,0.05,target,competitor,0,7.096
2,86,perceptual,0.1,0.2,competitor,target,1,4.842
2,87,numeric,0.1,0.05,competitor,competitor,0,12.306
2,88,perceptual,0.1,0.2,competitor,target,1,5.382
2,89,perceptual,0.03,0.2,competitor,competitor,0,5.207
2,90,numeric,0.1,0.05,competitor,competitor,0,7.935
2,91,numeric,0.1,0.05,target,target,1,8.712
2,92,perceptual,0.1,0.2,competitor,target,1,3.356
2,93,numeric,0.1,0.2,competitor,competitor,0,8.715
2,94,perceptual,0.03,0.05,target,target,1,4.544
2,95,perceptual,0.03,0.05,competitor,competitor,0,7.276
2,96,numeric,0.1,0.05,competitor,target,1,6.05
2,97,numeric,0.1,0.05,target,target,1,7.794
2,98,perceptual,0.03,0.2,competitor,target,1,3.718
2,99,perceptual,0.1,0.05,target,target,1,4.246
2,100,numeric,0.03,0.05,competitor,competitor,0,9.957
2,101,numeric,0.1,0.05,target,target,1,7.63
2,102,numeric,0.1,0.2,target,target,1,1.741
2,103,perceptual,0.03,0.05,target,competitor,0,5.521
2,104,numeric,0.1,0.2,competitor,competitor,0,8.796
2,105,numeric,0.03,0.05,competitor,competitor,0,6.738
2,106,perceptual,0.1,0.05,competitor,target,1,4.855
2,107,perceptual,0.1,0.2,target,target,1,3.123
2,108,numeric,0.1,0.05,target,target,1,5.389
2,109,numeric,0.03,0.05,target,target,1,9.869
2,110,perceptual,0.03,0.2,target,target,1,3.343
2,111,perceptual,0.03,0.05,target,competitor,0,5.493
2,112,numeric,0.1,0.2,target,target,1,9.432
2,113,numeric,0.1,0.05,target,target,1,5.896
2,114,numeric,0.03,0.2,target,target,1,7.192
2,115,numeric,0.03,0.2,target,target,1,12.633
2,116,numeric,0.03,0.05,competitor,competitor,0,8.823
2,117,perceptual,0.1,0.2,competitor,target,1,3.798
2,118,numeric,0.03,0.2,competitor,competitor,0,10.98
2,119,numeric,0.1,0.05,competitor,target,1,7.361
2,120,numeric,0.03,0.05,target,target,1,11.036
2,121,perceptual,0.1,0.2,target,target,1,3.854
2,122,perceptual,0.1,0.2,target,target,1,3.881
2,123,perceptual,0.03,0.05,competitor,target,1,4.554
2,124,numeric,0.1,0.2,competitor,competitor,0,6.504
2,125,numeric,0.03,0.2,competitor,competitor,0,7.497
2,126,perceptual,0.1,0.05,target,target,1,7.459
2,127,perceptual,0.1,0.05,target,target,1,7.575
2,128,numeric,0.03,0.2,target,competitor,0,6.863
2,129,numeric,0.1,0.2,competitor,target,1,7.309
2,130,numeric,0.1,0.05,competitor,competitor,0,0.09
2,131,numeric,0.1,0.2,competitor,competitor,0,9.428
2,132,numeric,0.03,0.2,target,target,1,12.351
2,133,perceptual,0.1,0.05,target,target,1,6.106
2,134,numeric,0.03,0.2,competitor,target,1,9.352
2,135,perceptual,0.03,0.05,target,target,1,7.046
2,136,perceptual,0.03,0.2,target,target,1,5.904
2,137,numeric,0.1,0.2,competitor,target,1,7.612
2,138,numeric,0.1,0.2,competitor,competitor,0,9.149
2,139,perceptual,0.03,0.05,competitor,target,1,8.477
2,140,perceptual,0.03,0.05,competitor,decoy,0,7.691
2,141,perceptual,0.03,0.2,competitor,competitor,0,8.136
2,142,numeric,0.03,0.2,competitor,competitor,0,6.156
2,143,numeric,0.1,0.05,competitor,target,1,15.305
2,144,perceptual,0.1,0.2,competitor,target,1,4.028
2,145,numeric,0.1,0.2,target,target,1,6.472
2,146,perceptual,0.1,0.2,competitor,target,1,4.126
2,147,numeric,0.03,0.05,competitor,decoy,0,9.287
2,148,numeric,0.03,0.2,target,target,1,7.964
2,149,numeric,0.1,0.2,competitor,target,1,6.891
2,150,numeric,0.03,0.05,competitor,competitor,0,7.344
2,151,numeric,0.1,0.05,target,target,1,5.982
2,152,perceptual,0.1,0.05,target,target,1,4.531
2,153,perceptual,0.03,0.05,competitor,target,1,5.905
2,154,numeric,0.03,0.2,competitor,competitor,0,12.925
2,155,numeric,0.03,0.05,target,target,1,8.309
2,156,perceptual,0.03,0.2,target,target,1,3.646
2,157,numeric,0.1,0.2,target,target,1,7.264
2,158,perceptual,0.03,0.2,competitor,target,1,4.698
2,159,perceptual,0.1,0.05,target,target,1,5.634
2,160,numeric,0.03,0.05,competitor,competitor,0,5.099
2,161,perceptual,0.1,0.2,target,target,1,4.905
2,162,perceptual,0.03,0.2,competitor,target,1,6.464
2,163,perceptual,0.1,0.05,competitor,target,1,4.633
2,164,perceptual,0.1,0.2,target,target,1,4.193
2,165,numeric,0.1,0.05,competitor,competitor,0,8.591
2,166,numeric,0.03,0.2,competitor,target,1,8.264
2,167,numeric,0.1,0.2,target,target,1,6.719
2,168,perceptual,0.1,0.2,competitor,target,1,3.939
2,169,perceptual,0.03,0.2,competitor,target,1,5.086
2,170,perceptual,0.03,0.2,competitor,target,1,3.905
2,171,perceptual,0.03,0.05,target,target,1,5.198
2,172,numeric,0.1,0.2,target,target,1,7.061
2,173,numeric,0.1,0.05,target,decoy,0,8.38
2,174,perceptual,0.1,0.05,competitor,competitor,0,6.664
2,175,perceptual,0.1,0.05,competitor,target,1,3.743
2,176,numeric,0.1,0.2,target,target,1,6.032
2,177,perceptual,0.1,0.05,competitor,target,1,3.21
2,178,numeric,0.03,0.05,target,target,1,6.929
2,179,perceptual,0.1,0.2,competitor,target,1,5.35
2,180,numeric,0.03,0.05,competitor,target,1,10.696
2,181,perceptual,0.1,0.05,competitor,target,1,5.965
2,182,numeric,0.03,0.2,target,competitor,0,5.702
2,183,perceptual,0.03,0.05,target,target,1,7.279
2,184,numeric,0.1,0.05,target,competitor,0,12.558
2,185,numeric,0.03,0.2,target,target,1,8.352
2,186,numeric,0.1,0.05,target,decoy,0,7.635
2,187,perceptual,0.03,0.05,target,competitor,0,7.645
2,188,numeric,0.03,0.05,competitor,competitor,0,6.705
2,189,perceptual,0.03,0.2,target,target,1,3.622
2,190,perceptual,0.1,0.05,competitor,target,1,4.133
2,191,perceptual,0.1,0.2,target,competitor,0,7.975
2,192,numeric,0.03,0.2,competitor,competitor,0,7.202
3,1,perceptual,0.03,0.2,target,decoy,0,9.071
3,2,perceptual,0.1,0.05,target,decoy,0,4.962
3,3,numeric,0.1,0.05,target,target,1,9.711
3,4,perceptual,0.1,0.2,target,target,1,6.938
3,5,perceptual,0.03,0.2,competitor,decoy,0,2.798
3,6,perceptual,0.1,0.05,target,target,1,5.245
3,7,perceptual,0.1,0.05,target,competitor,0,5.13
3,8,perceptual,0.03,0.05,target,competitor,0,4.403
3,9,numeric,0.03,0.05,competitor,decoy,0,7.147
3,10,perceptual,0.03,0.05,target,competitor,0,5.41
3,11,numeric,0.03,0.05,target,competitor,0,9.128
3,12,perceptual,0.03,0.2,competitor,target,1,8.331
3,13,numeric,0.1,0.05,competitor,competitor,0,4.232
3,14,numeric,0.03,0.2,target,target,1,7.445
3,15,numeric,0.03,0.2,target,target,1,7.33
3,16,numeric,0.1,0.05,competitor,target,1,8.087
3,17,numeric,0.1,0.05,target,target,1,6.417
3,18,perceptual,0.1,0.2,target,competitor,0,3.821
3,19,perceptual,0.03,0.2,competitor,target,1,6.184
3,20,numeric,0.1,0.2,target,target,1,5.265
3,21,perceptual,0.1,0.2,competitor,target,1,6.035
3,22,perceptual,0.03,0.05,target,decoy,0,6.9
3,23,perceptual,0.1,0.05,competitor,target,1,4.073
3,24,perceptual,0.1,0.05,target,target,1,4.787
3,25,numeric,0.03,0.2,competitor,competitor,0,8.783
3,26,perceptual,0.1,0.2,competitor,target,1,4.01
3,27,perceptual,0.1,0.2,competitor,competitor,0,5.5
3,28,perceptual,0.03,0.2,target,target,1,7.517
3,29,numeric,0.03,0.05,competitor,competitor,0,13.548
3,30,numeric,0.03,0.2,target,target,1,7.075
3,31,perceptual,0.1,0.2,competitor,decoy,0,6.066
3,32,numeric,0.1,0.2,competitor,target,1,7.241
3,33,perceptual,0.1,0.2,competitor,target,1,3.356
3,34,perceptual,0.03,0.05,target,target,1,7.397
3,35,numeric,0.03,0.05,target,competitor,0,6.491
3,36,numeric,0.03,0.2,target,target,1,10.867
3,37,perceptual,0.03,0.05,competitor,competitor,0,8.148
3,38,numeric,0.03,0.2,target,competitor,0,5.565
3,39,numeric,0.1,0.2,competitor,target,1,6.815
3,40,perceptual,0.1,0.05,target,target,1,6.395
3,41,perceptual,0.1,0.05,competitor,competitor,0,4.63
3,42,perceptual,0.03,0.2,target,target,1,4.645
3,43,perceptual,0.03,0.2,competitor,competitor,0,4.375
3,44,perceptual,0.03,0.05,competitor,target,1,5.245
3,45,perceptual,0.03,0.05,competitor,target,1,3.694
3,46,perceptual,0.1,0.2,competitor,competitor,0,5.758
3,47,perceptual,0.03,0.2,target,competitor,0,5.462
3,48,perceptual,0.1,0.2,competitor,target,1,5.695
3,49,numeric,0.1,0.05,target,decoy,0,9.315
3,50,numeric,0.03,0.05,target,target,1,8.235
3,51,perceptual,0.03,0.05,competitor,target,1,5.934
3,52,numeric,0.03,0.05,target,target,1,8.297
3,53,numeric,0.03,0.2,competitor,target,1,10.787
3,54,perceptual,0.1,0.2,target,target,1,8.623
3,55,perceptual,0.03,0.2,competitor,target,1,4.521
3,56,numeric,0.03,0.2,target,competitor,0,11.988
3,57,numeric,0.1,0.2,target,target,1,10.634
3,58,perceptual,0.03,0.05,target,target,1,4.963
3,59,perceptual,0.1,0.05,competitor,target,1,4.35
3,60,perceptual,0.03,0.05,competitor,target,1,4.157
3,61,numeric,0.03,0.05,target,target,1,6.948
3,62,perceptual,0.03,0.2,competitor,competitor,0,6.665
3,63,numeric,0.1,0.2,competitor,target,1,7.433
3,64,perceptual,0.1,0.05,target,target,1,8.07
3,65,perceptual,0.1,0.2,competitor,decoy,0,4.983
3,66,numeric,0.03,0.2,competitor,competitor,0,11.936
3,67,perceptual,0.1,0.2,target,target,1,6.464
3,68,numeric,0.03,0.2,target,target,1,8.081
3,69,perceptual,0.1,0.05,competitor,competitor,0,7.899
3,70,numeric,0.03,0.05,competitor,target,1,4.478
3,71,numeric,0.03,0.05,target,target,1,7.659
3,72,numeric,0.03,0.05,target,target,1,6.262
3,73,numeric,0.03,0.2,competitor,target,1,7.533
3,74,numeric,0.03,0.2,target,target,1,10.182
3,75,numeric,0.03,0.05,competitor,target,1,7.416
3,76,perceptual,0.03,0.2,target,competitor,0,4.729
3,77,perceptual,0.03,0.2,target,target,1,7.299
3,78,numeric,0.1,0.05,target,target,1,6.086
3,79,numeric,0.03,0.05,target,target,1,4.446
3,80,numeric,0.03,0.2,competitor,target,1,8.635
3,81,numeric,0.1,0.2,competitor,target,1,4.99
3,82,perceptual,0.03,0.05,target,competitor,0,4.285
3,83,perceptual,0.1,0.05,competitor,target,1,3.252
3,84,numeric,0.1,0.2,competitor,target,1,4.63
3,85,perceptual,0.1,0.2,competitor,competitor,0,5.517
3,86,perceptual,0.1,0.2,target,target,1,4.715
3,87,numeric,0.03,0.05,competitor,competitor,0,12.793
3,88,numeric,0.03,0.05,target,target,1,6.181
3,89,numeric,0.03,0.05,target,target,1,7.426
3,90,perceptual,0.1,0.05,target,competitor,0,3.396
3,91,perceptual,0.03,0.2,target,competitor,0,4.544
3,92,perceptual,0.1,0.05,competitor,decoy,0,6.513
3,93,numeric,0.03,0.2,competitor,competitor,0,8.706
3,94,numeric,0.03,0.05,competitor,target,1,11.79
3,95,perceptual,0.03,0.05,competitor,decoy,0,8.171
3,96,perceptual,0.1,0.05,competitor,target,1,3.913
3,97,numeric,0.1,0.05,competitor,competitor,0,7.508
3,98,numeric,0.03,0.2,target,target,1,5.624
3,99,perceptual,0.03,0.05,competitor,target,1,3.448
3,100,perceptual,0.03,0.05,target,competitor,0,5.315
3,101,perceptual,0.1,0.05,target,competitor,0,6.248
3,102,numeric,0.1,0.05,target,decoy,0,6.479
3,103,numeric,0.1,0.05,competitor,target,1,10.251
3,104,perceptual,0.03,0.05,target,competitor,0,7.696
3,105,numeric,0.1,0.05,competitor,competitor,0,5.28
3,106,perceptual,0.1,0.2,target,decoy,0,9.776
3,107,numeric,0.1,0.2,target,competitor,0,5.23
3,108,numeric,0.1,0.2,competitor,competitor,0,6.649
3,109,perceptual,0.1,0.2,target,target,1,5.451
3,110,perceptual,0.03,0.05,target,decoy,0,8.831
3,111,perceptual,0.1,0.2,competitor,target,1,4.776
3,112,numeric,0.03,0.05,competitor,target,1,9.389
3,113,numeric,0.1,0.2,target,target,1,8.754
3,114,perceptual,0.1,0.05,target,decoy,0,5.292
3,115,numeric,0.1,0.05,target,target,1,11.245
3,116,numeric,0.1,0.05,competitor,target,1,9.604
3,117,perceptual,0.03,0.2,target,target,1,8.751
3,118,numeric,0.1,0.2,competitor,target,1,5.122
3,119,numeric,0.1,0.2,target,target,1,6.815
3,120,perceptual,0.03,0.2,competitor,target,1,3.207
3,121,numeric,0.1,0.05,target,competitor,0,11.088
3,122,numeric,0.03,0.2,competitor,competitor,0,6.301
3,123,perceptual,0.1,0.05,competitor,competitor,0,7.931
3,124,numeric,0.03,0.05,competitor,competitor,0,11.35
3,125,perceptual,0.03,0.2,competitor,competitor,0,5.532
3,126,perceptual,0.1,0.05,competitor,target,1,5.652
3,127,perceptual,0.1,0.05,competitor,target,1,4.065
3,128,numeric,0.1,0.05,target,target,1,9.628
3,129,perceptual,0.1,0.2,competitor,target,1,4.8
3,130,numeric,0.03,0.2,target,target,1,8.239
3,131,numeric,0.03,0.05,competitor,competitor,0,8.368
3,132,perceptual,0.03,0.2,target,target,1,7.712
3,133,numeric,0.1,0.05,target,target,1,8.348
3,134,numeric,0.1,0.05,competitor,target,1,7.42
3,135,numeric,0.03,0.2,target,target,1,10.519
3,136,perceptual,0.03,0.2,target,target,1,6.255
3,137,numeric,0.03,0.05,competitor,target,1,10.414
3,138,numeric,0.1,0.2,target,target,1,6.819
3,139,numeric,0.03,0.2,target,target,1,9.514
3,140,numeric,0.03,0.2,competitor,competitor,0,11.484
3,141,perceptual,0.03,0.05,target,target,1,6.549
3,142,perceptual,0.03,0.05,target,competitor,0,7.363
3,143,perceptual,0.03,0.2,competitor,target,1,6.547
3,144,numeric,0.1,0.2,target,target,1,9.585
3,145,numeric,0.1,0.05,target,target,1,10.161
3,146,perceptual,0.1,0.2,target,target,1,6.15
3,147,numeric,0.1,0.2,competitor,target,1,12.118
3,148,numeric,0.03,0.2,competitor,competitor,0,9.255
3,149,perceptual,0.1,0.05,competitor,target,1,6.349
3,150,perceptual,0.03,0.2,competitor,competitor,0,4.837
3,151,numeric,0.1,0.05,target,target,1,6.866
3,152,numeric,0.1,0.2,target,target,1,11.022
3,153,numeric,0.1,0.05,competitor,target,1,8.899
3,154,perceptual,0.03,0.05,competitor,decoy,0,9.512
3,155,numeric,0.1,0.05,competitor,target,1,8.826
3,156,perceptual,0.1,0.2,target,target,1,6.14
3,157,perceptual,0.1,0.05,target,target,1,7.357
3,158,perceptual,0.1,0.05,competitor,decoy,0,0.232
3,159,numeric,0.03,0.2,competitor,target,1,9.948
3,160,numeric,0.1,0.2,competitor,target,1,6.862
3,161,numeric,0.1,0.05,competitor,target,1,6.91
3,162,perceptual,0.1,0.2,target,target,1,4.952
3,163,perceptual,0.03,0.2,target,competitor,0,6.796
3,164,numeric,0.1,0.2,target,target,1,10.383
3,165,numeric,0.1,0.2,competitor,target,1,10.703
3,166,numeric,0.1,0.2,target,target,1,7.563
3,167,perceptual,0.1,0.2,target,target,1,8.181
3,168,perceptual,0.1,0.2,target,competitor,0,8.459
3,169,perceptual,0.03,0.2,competitor,target,1,7.649
3,170,numeric,0.1,0.05,target,target,1,12.398
3,171,numeric,0.03,0.2,competitor,competitor,0,8.151
3,172,numeric,0.1,0.2,target,target,1,8.612
3,173,perceptual,0.03,0.05,competitor,competitor,0,9.398
3,174,perceptual,0.1,0.05,target,target,1,7.171
3,175,numeric,0.03,0.05,target,target,1,12.554
3,176,perceptual,0.1,0.05,target,target,1,6.5
3,177,numeric,0.03,0.2,competitor,target,1,12.371
3,178,numeric,0.03,0.05,target,target,1,9.728
3,179,numeric,0.03,0.05,competitor,target,1,6.863
3,180,numeric,0.1,0.2,competitor,target,1,6.85
3,181,perceptual,0.03,0.2,target,target,1,5.256
3,182,perceptual,0.1,0.2,competitor,competitor,0,5.048
3,183,numeric,0.1,0.05,competitor,target,1,7.427
3,184,numeric,0.1,0.2,competitor,target,1,10.163
3,185,numeric,0.03,0.05,competitor,competitor,0,8.564
3,186,perceptual,0.03,0.05,competitor,target,1,7.2
3,187,perceptual,0.03,0.2,competitor,target,1,8.615
3,188,perceptual,0.03,0.05,target,decoy,0,4.405
3,189,perceptual,0.03,0.05,competitor,competitor,0,5.804
3,190,numeric,0.1,0.05,competitor,target,1,9.588
3,191,perceptual,0.03,0.05,competitor,target,1,8.256
3,192,numeric,0.1,0.2,target,target,1,6.554
4,1,perceptual,0.03,0.2,target,target,1,12.436
4,2,perceptual,0.1,0.2,target,target,1,5.71
4,3,numeric,0.1,0.2,target,competitor,0,5.404
4,4,numeric,0.03,0.05,target,competitor,0,6.808
4,5,perceptual,0.03,0.2,target,decoy,0,5.199
4,6,numeric,0.1,0.2,competitor,competitor,0,5.078
4,8,numeric,0.1,0.05,target,target,1,6.364
4,9,numeric,0.03,0.05,target,target,1,5.944
4,10,numeric,0.1,0.2,target,target,1,5.355
4,11,perceptual,0.03,0.2,target,competitor,0,4.483
4,12,perceptual,0.03,0.2,competitor,competitor,0,3.152
4,13,numeric,0.1,0.2,target,target,1,5.348
4,14,perceptual,0.1,0.05,target,decoy,0,4.237
4,15,perceptual,0.03,0.2,target,competitor,0,3.26
4,16,numeric,0.03,0.2,target,decoy,0,5.256
4,17,perceptual,0.1,0.05,competitor,target,1,3.036
4,18,perceptual,0.03,0.2,target,target,1,3.453
4,19,perceptual,0.03,0.2,competitor,competitor,0,3.754
4,20,numeric,0.03,0.05,target,competitor,0,3.634
4,21,numeric,0.03,0.05,target,competitor,0,5.102
4,22,perceptual,0.1,0.2,competitor,target,1,3.251
4,23,numeric,0.1,0.2,competitor,target,1,4.313
4,24,numeric,0.1,0.05,competitor,target,1,3.632
4,25,perceptual,0.1,0.2,competitor,target,1,2.67
4,26,numeric,0.03,0.2,competitor,competitor,0,2.997
4,27,perceptual,0.1,0.2,competitor,competitor,0,2.849
4,28,perceptual,0.1,0.2,target,target,1,3.99
4,29,numeric,0.1,0.2,target,target,1,4.545
4,30,numeric,0.03,0.2,target,target,1,3.636
4,31,numeric,0.03,0.2,competitor,decoy,0,6.863
4,32,numeric,0.03,0.2,target,competitor,0,3.407
4,33,perceptual,0.03,0.05,target,competitor,0,2.181
4,34,perceptual,0.03,0.2,target,decoy,0,1.935
4,35,numeric,0.1,0.2,target,target,1,4.196
4,36,numeric,0.1,0.2,target,competitor,0,3.321
4,37,perceptual,0.1,0.2,competitor,target,1,3.138
4,38,numeric,0.1,0.05,target,decoy,0,6.544
4,39,perceptual,0.03,0.2,competitor,competitor,0,3.384
4,40,perceptual,0.1,0.05,target,target,1,3.101
4,41,numeric,0.1,0.2,target,decoy,0,3.63
4,42,numeric,0.03,0.2,target,target,1,3.739
4,43,perceptual,0.03,0.05,competitor,decoy,0,2.61
4,44,perceptual,0.1,0.05,target,target,1,3.411
4,45,numeric,0.1,0.05,competitor,target,1,6.866
4,46,perceptual,0.1,0.05,competitor,competitor,0,3.044
4,47,perceptual,0.1,0.05,competitor,competitor,0,4.736
4,48,perceptual,0.1,0.05,competitor,target,1,4.961
4,49,numeric,0.1,0.05,competitor,target,1,3.358
4,50,perceptual,0.1,0.05,competitor,competitor,0,1.924
4,51,perceptual,0.03,0.05,target,competitor,0,3.274
4,52,numeric,0.03,0.05,target,target,1,4.914
4,53,numeric,0.03,0.2,target,target,1,4.941
4,54,numeric,0.1,0.2,competitor,competitor,0,3.076
4,55,numeric,0.1,0.05,target,competitor,0,3.242
4,56,perceptual,0.03,0.05,competitor,decoy,0,3.789
4,57,numeric,0.03,0.2,competitor,target,1,4.685
4,58,numeric,0.1,0.05,competitor,target,1,3.427
4,59,perceptual,0.1,0.05,target,target,1,3.239
4,60,numeric,0.03,0.2,competitor,decoy,0,5.712
4,61,numeric,0.03,0.05,competitor,decoy,0,7.069
4,62,numeric,0.03,0.2,competitor,target,1,9.622
4,63,perceptual,0.03,0.2,competitor,target,1,3.527
4,64,numeric,0.1,0.05,target,competitor,0,4.076
4,65,perceptual,0.1,0.05,competitor,competitor,0,2.98
4,66,perceptual,0.03,0.05,competitor,target,1,2.986
4,67,numeric,0.1,0.05,target,decoy,0,4.071
4,68,numeric,0.1,0.2,target,target,1,3.258
4,69,numeric,0.1,0.2,competitor,target,1,3.787
4,70,numeric,0.03,0.05,competitor,target,1,4.052
4,71,numeric,0.03,0.05,competitor,decoy,0,6.755
4,72,numeric,0.03,0.05,competitor,decoy,0,4.101
4,73,perceptual,0.1,0.2,competitor,target,1,2.784
4,74,perceptual,0.03,0.05,competitor,target,1,2.801
4,75,numeric,0.1,0.05,competitor,target,1,4.323
4,76,numeric,0.03,0.2,target,competitor,0,3.757
4,77,perceptual,0.1,0.05,target,decoy,0,2.888
4,78,numeric,0.1,0.2,competitor,competitor,0,3.781
4,79,perceptual,0.03,0.05,target,competitor,0,2.794
4,80,perceptual,0.1,0.05,competitor,target,1,5.761
4,81,numeric,0.03,0.05,competitor,decoy,0,2.923
4,82,numeric,0.1,0.05,competitor,target,1,3.107
4,83,numeric,0.1,0.05,target,target,1,4.959
4,84,perceptual,0.1,0.2,target,competitor,0,5.562
4,85,perceptual,0.03,0.05,competitor,decoy,0,3.282
4,86,numeric,0.1,0.05,competitor,target,1,3.378
4,87,perceptual,0.1,0.2,target,decoy,0,3.382
4,88,numeric,0.03,0.05,competitor,target,1,2.97
4,89,perceptual,0.03,0.2,competitor,target,1,3.422
4,90,perceptual,0.03,0.05,target,decoy,0,3.099
4,91,perceptual,0.1,0.2,target,target,1,6.439
4,92,numeric,0.1,0.2,competitor,competitor,0,4.338
4,93,perceptual,0.03,0.05,competitor,competitor,0,3.588
4,94,numeric,0.03,0.2,target,competitor,0,4.151
4,95,numeric,0.1,0.05,target,decoy,0,4.616
4,96,numeric,0.03,0.05,target,competitor,0,5.013
4,97,perceptual,0.03,0.05,competitor,decoy,0,2.798
4,98,numeric,0.03,0.2,competitor,decoy,0,4.157
4,99,perceptual,0.03,0.05,target,competitor,0,2.55
4,100,perceptual,0.03,0.05,competitor,competitor,0,3.708
4,101,numeric,0.03,0.2,target,target,1,4.067
4,102,perceptual,0.1,0.2,target,competitor,0,4.465
4,103,numeric,0.03,0.2,competitor,target,1,4.25
4,104,numeric,0.1,0.05,target,decoy,0,5.34
4,105,numeric,0.1,0.2,competitor,target,1,4.491
4,106,perceptual,0.1,0.05,target,target,1,2.491
4,107,perceptual,0.03,0.05,target,decoy,0,4.112
4,108,perceptual,0.1,0.2,competitor,target,1,3.419
4,109,perceptual,0.1,0.05,target,target,1,2.452
4,110,perceptual,0.1,0.2,target,competitor,0,3.424
4,111,perceptual,0.03,0.05,competitor,decoy,0,2.71
4,112,numeric,0.1,0.2,competitor,decoy,0,5.05
4,113,numeric,0.03,0.2,target,competitor,0,5.547
4,114,perceptual,0.03,0.2,target,target,1,4.092
4,115,numeric,0.1,0.2,target,competitor,0,3.468
4,116,perceptual,0.1,0.05,target,target,1,1.977
4,117,perceptual,0.1,0.2,competitor,target,1,3.442
4,118,numeric,0.03,0.2,target,competitor,0,5.301
4,119,numeric,0.1,0.2,target,target,1,4.073
4,120,perceptual,0.03,0.05,competitor,target,1,5.149
4,121,numeric,0.1,0.05,competitor,competitor,0,5.618
4,122,perceptual,0.1,0.05,competitor,target,1,2.919
4,123,perceptual,0.1,0.05,target,target,1,3.183
4,124,numeric,0.03,0.05,competitor,target,1,8.269
4,125,perceptual,0.03,0.2,target,target,1,2.972
4,126,numeric,0.1,0.05,competitor,target,1,7.323
4,127,perceptual,0.1,0.2,competitor,target,1,4.5
4,128,numeric,0.03,0.05,target,target,1,4.117
4,129,perceptual,0.03,0.2,competitor,competitor,0,3.204
4,130,numeric,0.03,0.05,competitor,target,1,4.01
4,131,perceptual,0.1,0.2,target,target,1,2.89
4,132,perceptual,0.03,0.2,competitor,target,1,5.959
4,133,perceptual,0.1,0.05,competitor,competitor,0,3.291
4,134,numeric,0.1,0.05,target,competitor,0,3.491
4,135,numeric,0.1,0.2,target,target,1,5.304
4,136,numeric,0.1,0.2,competitor,target,1,3.956
4,137,perceptual,0.03,0.05,competitor,competitor,0,3.643
4,138,numeric,0.03,0.2,competitor,target,1,4.302
4,139,perceptual,0.03,0.05,target,competitor,0,4.094
4,140,numeric,0.03,0.2,competitor,target,1,3.783
4,141,perceptual,0.1,0.05,target,target,1,5.719
4,142,numeric,0.03,0.05,target,decoy,0,6.605
4,143,perceptual,0.03,0.05,target,decoy,0,4.834
4,144,perceptual,0.03,0.2,target,target,1,3.264
4,145,numeric,0.1,0.05,target,competitor,0,4.076
4,146,perceptual,0.1,0.05,target,target,1,3.607
4,147,perceptual,0.1,0.05,competitor,target,1,3.34
4,148,perceptual,0.03,0.2,competitor,competitor,0,3.25
4,149,numeric,0.1,0.05,competitor,decoy,0,7.455
4,150,perceptual,0.03,0.2,target,competitor,0,3.979
4,151,numeric,0.03,0.2,target,target,1,5.599
4,152,perceptual,0.03,0.05,target,decoy,0,3.334
4,153,perceptual,0.03,0.2,competitor,target,1,2.695
4,154,perceptual,0.03,0.2,competitor,target,1,3.699
4,155,numeric,0.03,0.2,competitor,competitor,0,4.59
4,156,perceptual,0.03,0.2,competitor,competitor,0,6.05
4,157,numeric,0.03,0.05,target,decoy,0,6.529
4,158,numeric,0.03,0.05,competitor,competitor,0,5.427
4,159,numeric,0.03,0.2,target,decoy,0,6.284
4,160,numeric,0.03,0.05,competitor,decoy,0,7.364
4,161,perceptual,0.1,0.2,target,target,1,2.538
4,162,numeric,0.1,0.2,competitor,target,1,7.38
4,163,numeric,0.03,0.2,competitor,target,1,6.196
4,164,numeric,0.1,0.05,target,target,1,5.04
4,165,numeric,0.1,0.2,target,competitor,0,3.65
4,166,numeric,0.1,0.2,competitor,decoy,0,4.807
4,167,perceptual,0.1,0.2,target,target,1,3.191
4,168,perceptual,0.1,0.2,competitor,target,1,3.434
4,169,perceptual,0.03,0.2,target,target,1,5.305
4,170,numeric,0.1,0.05,competitor,target,1,5.974
4,171,perceptual,0.03,0.2,competitor,competitor,0,2.935
4,172,numeric,0.1,0.05,competitor,target,1,7.116
4,173,perceptual,0.1,0.2,competitor,competitor,0,2.931
4,174,perceptual,0.1,0.2,target,competitor,0,3.5
4,175,perceptual,0.03,0.05,target,competitor,0,5.495
4,176,perceptual,0.03,0.05,target,target,1,5.781
4,177,numeric,0.1,0.2,competitor,decoy,0,6.012
4,178,perceptual,0.03,0.05,competitor,target,1,2.487
4,179,numeric,0.1,0.05,target,competitor,0,4.722
4,180,numeric,0.03,0.05,competitor,decoy,0,4.828
4,181,perceptual,0.03,0.05,target,decoy,0,4.85
4,182,perceptual,0.1,0.2,target,target,1,2.323
4,183,numeric,0.03,0.2,competitor,decoy,0,5.674
4,184,numeric,0.03,0.05,target,competitor,0,9.52
4,185,perceptual,0.03,0.2,target,target,1,2.904
4,186,perceptual,0.1,0.2,competitor,competitor,0,3.717
4,187,perceptual,0.1,0.05,competitor,target,1,6.593
4,188,perceptual,0.1,0.05,target,target,1,3.744
4,189,perceptual,0.1,0.05,competitor,target,1,5.373
4,190,numeric,0.03,0.05,competitor,target,1,6.798
4,191,perceptual,0.1,0.2,competitor,competitor,0,6.721
4,192,numeric,0.03,0.05,target,competitor,0,4.751
5,1,perceptual,0.03,0.2,target,target,1,6.798
5,2,numeric,0.03,0.05,target,competitor,0,8.758
5,3,perceptual,0.1,0.05,competitor,competitor,0,5.091
5,4,perceptual,0.1,0.2,target,decoy,0,2.962
5,5,perceptual,0.1,0.2,target,target,1,5.26
5,6,numeric,0.1,0.05,target,decoy,0,4.499
5,7,numeric,0.03,0.2,competitor,competitor,0,4.466
5,8,perceptual,0.03,0.05,competitor,decoy,0,7.344
5,9,perceptual,0.1,0.05,target,target,1,6.191
5,10,perceptual,0.03,0.2,target,target,1,2.341
5,11,numeric,0.03,0.05,competitor,competitor,0,3.819
5,12,numeric,0.03,0.05,competitor,target,1,2.956
5,13,numeric,0.03,0.05,target,target,1,4.161
5,14,numeric,0.1,0.2,competitor,target,1,3.666
5,15,perceptual,0.1,0.2,target,target,1,5.277
5,16,numeric,0.03,0.2,target,competitor,0,3.744
5,17,numeric,0.1,0.05,competitor,target,1,3.24
5,18,perceptual,0.1,0.05,competitor,target,1,3.032
5,19,numeric,0.1,0.2,target,target,1,2.291
5,20,numeric,0.1,0.2,competitor,competitor,0,3.44
5,21,numeric,0.03,0.2,competitor,competitor,0,5.067
5,22,perceptual,0.1,0.2,target,decoy,0,3.709
5,23,numeric,0.1,0.05,competitor,decoy,0,5.678
5,24,numeric,0.03,0.2,target,competitor,0,3.286
5,25,numeric,0.1,0.05,target,target,1,3.134
5,26,perceptual,0.03,0.05,competitor,target,1,2.308
5,27,perceptual,0.1,0.2,competitor,target,1,2.38
5,28,perceptual,0.1,0.05,competitor,target,1,1.946
5,29,perceptual,0.1,0.05,competitor,decoy,0,2.941
5,30,numeric,0.03,0.05,competitor,competitor,0,2.607
5,31,numeric,0.1,0.05,target,target,1,2.019
5,32,numeric,0.1,0.2,competitor,target,1,3.186
5,33,numeric,0.1,0.2,target,competitor,0,1.958
5,34,perceptual,0.1,0.2,competitor,target,1,2.377
5,35,numeric,0.03,0.05,target,decoy,0,2.277
5,36,perceptual,0.03,0.2,competitor,target,1,1.746
5,37,numeric,0.03,0.2,target,target,1,2.202
5,38,perceptual,0.03,0.05,target,target,1,2.917
5,39,numeric,0.1,0.05,target,target,1,2.015
5,40,numeric,0.1,0.2,competitor,target,1,3.43
5,41,perceptual,0.1,0.05,target,target,1,1.739
5,42,perceptual,0.03,0.2,target,competitor,0,2.733
5,43,numeric,0.1,0.2,competitor,decoy,0,2.46
5,44,perceptual,0.03,0.2,target,target,1,2.662
5,45,numeric,0.1,0.05,target,target,1,4.031
5,46,numeric,0.03,0.05,target,target,1,2.561
5,47,numeric,0.03,0.2,target,target,1,2.17
5,48,perceptual,0.1,0.2,competitor,target,1,2.294
5,49,numeric,0.03,0.05,competitor,target,1,2.235
5,50,perceptual,0.03,0.05,competitor,target,1,2.189
5,51,perceptual,0.03,0.2,target,competitor,0,1.969
5,52,perceptual,0.03,0.2,target,decoy,0,1.952
5,53,numeric,0.1,0.05,target,competitor,0,2.359
5,54,numeric,0.03,0.05,target,target,1,2.409
5,55,perceptual,0.1,0.2,competitor,target,1,2.822
5,56,perceptual,0.1,0.2,competitor,target,1,2.59
5,57,numeric,0.03,0.2,competitor,competitor,0,2.427
5,58,perceptual,0.1,0.2,competitor,competitor,0,2.636
5,59,numeric,0.1,0.05,competitor,decoy,0,1.932
5,60,numeric,0.1,0.2,target,decoy,0,1.789
5,61,perceptual,0.03,0.2,competitor,competitor,0,2.584
5,62,perceptual,0.03,0.05,target,competitor,0,2.995
5,63,perceptual,0.1,0.05,target,decoy,0,2.045
5,64,numeric,0.1,0.2,target,target,1,2.75
5,65,perceptual,0.1,0.2,competitor,target,1,2.755
5,66,perceptual,0.1,0.2,target,decoy,0,2.324
5,67,numeric,0.03,0.05,target,target,1,2.321
5,68,perceptual,0.03,0.05,target,decoy,0,1.926
5,69,perceptual,0.03,0.2,competitor,decoy,0,2.607
5,70,perceptual,0.03,0.2,competitor,competitor,0,1.868
5,71,perceptual,0.1,0.2,target,competitor,0,1.784
5,72,perceptual,0.03,0.2,competitor,competitor,0,3.888
5,73,numeric,0.1,0.05,target,decoy,0,2.593
5,74,perceptual,0.03,0.05,target,target,1,3.206
5,75,perceptual,0.1,0.2,competitor,decoy,0,1.927
5,76,numeric,0.03,0.2,competitor,decoy,0,2.272
5,77,perceptual,0.1,0.2,target,decoy,0,3.538
5,78,perceptual,0.03,0.2,target,target,1,2.381
5,79,perceptual,0.03,0.2,target,target,1,2.022
5,80,numeric,0.03,0.2,target,competitor,0,2.43
5,81,perceptual,0.1,0.2,competitor,competitor,0,2.146
5,82,numeric,0.03,0.2,competitor,decoy,0,2.071
5,83,numeric,0.1,0.2,competitor,target,1,2.32
5,84,numeric,0.1,0.05,target,target,1,2.06
5,85,perceptual,0.03,0.2,target,target,1,1.934
5,86,perceptual,0.1,0.05,target,target,1,2.2
5,87,perceptual,0.03,0.2,competitor,decoy,0,1.916
5,88,perceptual,0.03,0.2,target,target,1,1.8
5,89,numeric,0.03,0.2,target,competitor,0,1.804
5,90,perceptual,0.03,0.05,target,competitor,0,1.833
5,91,numeric,0.03,0.2,target,competitor,0,2.277
5,92,numeric,0.1,0.05,competitor,competitor,0,2.267
5,93,numeric,0.1,0.05,competitor,competitor,0,1.83
5,94,numeric,0.03,0.05,competitor,target,1,2.707
5,95,perceptual,0.03,0.05,target,target,1,3.571
5,96,numeric,0.03,0.05,competitor,decoy,0,2.359
5,97,perceptual,0.03,0.05,competitor,competitor,0,2.059
5,98,perceptual,0.1,0.05,target,decoy,0,1.89
5,99,perceptual,0.03,0.2,competitor,competitor,0,1.712
5,100,perceptual,0.1,0.05,competitor,competitor,0,2.218
5,101,numeric,0.03,0.05,competitor,competitor,0,2.418
5,102,numeric,0.1,0.05,target,decoy,0,1.896
5,103,numeric,0.03,0.2,competitor,competitor,0,2.313
5,104,numeric,0.03,0.05,competitor,competitor,0,1.776
5,105,perceptual,0.1,0.2,competitor,target,1,2.433
5,106,perceptual,0.1,0.05,target,target,1,2.038
5,107,numeric,0.1,0.2,target,target,1,2.518
5,108,perceptual,0.03,0.05,target,competitor,0,2.203
5,109,numeric,0.1,0.05,competitor,competitor,0,2.031
5,110,numeric,0.03,0.05,competitor,target,1,2.29
5,111,perceptual,0.03,0.05,target,target,1,2.647
5,112,numeric,0.03,0.05,target,decoy,0,2.34
5,113,numeric,0.03,0.05,target,target,1,4.093
5,114,perceptual,0.1,0.05,competitor,decoy,0,2.041
5,115,numeric,0.1,0.2,competitor,target,1,2.348
5,116,perceptual,0.03,0.05,competitor,decoy,0,2.65
5,117,numeric,0.03,0.2,target,competitor,0,2.033
5,118,numeric,0.03,0.2,target,target,1,2.767
5,119,perceptual,0.03,0.05,target,target,1,1.789
5,120,numeric,0.03,0.2,competitor,target,1,2.128
5,121,perceptual,0.1,0.05,competitor,target,1,1.855
5,122,perceptual,0.03,0.05,competitor,competitor,0,3.267
5,123,numeric,0.03,0.2,competitor,target,1,2.409
5,124,numeric,0.03,0.2,competitor,target,1,2.45
5,125,numeric,0.1,0.05,target,target,1,3.054
5,126,numeric,0.03,0.2,competitor,competitor,0,1.895
5,127,numeric,0.1,0.05,target,competitor,0,1.864
5,128,numeric,0.1,0.2,target,decoy,0,2.18
5,129,perceptual,0.1,0.2,target,competitor,0,2.086
5,130,perceptual,0.1,0.05,competitor,decoy,0,1.894
5,131,perceptual,0.1,0.05,target,target,1,2.545
5,132,perceptual,0.1,0.2,target,decoy,0,1.807
5,133,numeric,0.1,0.2,target,decoy,0,1.925
5,134,numeric,0.1,0.2,target,target,1,1.837
5,135,numeric,0.1,0.2,competitor,decoy,0,1.947
5,136,perceptual,0.1,0.05,competitor,target,1,1.708
5,137,perceptual,0.1,0.2,target,target,1,2.417
5,138,numeric,0.03,0.05,target,target,1,2.09
5,139,numeric,0.1,0.2,target,competitor,0,3.736
5,140,numeric,0.03,0.2,target,decoy,0,2.113
5,141,numeric,0.1,0.05,competitor,target,1,2.139
5,142,perceptual,0.1,0.05,target,decoy,0,2.559
5,143,perceptual,0.03,0.05,target,target,1,2.442
5,144,numeric,0.1,0.2,target,target,1,2.824
5,145,perceptual,0.03,0.05,competitor,competitor,0,2.427
5,146,numeric,0.03,0.2,target,target,1,2.15
5,147,perceptual,0.03,0.2,competitor,target,1,2.938
5,148,perceptual,0.1,0.05,competitor,target,1,2.625
5,149,perceptual,0.03,0.05,competitor,competitor,0,2.39
5,150,perceptual,0.1,0.2,target,target,1,3.099
5,151,numeric,0.03,0.05,target,target,1,1.826
5,152,perceptual,0.1,0.2,competitor,target,1,3.944
5,153,perceptual,0.1,0.2,target,competitor,0,2.071
5,154,numeric,0.1,0.2,target,competitor,0,2.055
5,155,numeric,0.03,0.05,target,competitor,0,2.723
5,156,numeric,0.1,0.05,competitor,decoy,0,2.039
5,157,perceptual,0.03,0.05,competitor,decoy,0,1.981
5,158,numeric,0.03,0.05,competitor,competitor,0,2.177
5,159,perceptual,0.03,0.2,competitor,competitor,0,2.074
5,160,numeric,0.03,0.05,competitor,target,1,1.81
5,161,perceptual,0.1,0.05,competitor,decoy,0,2.064
5,162,perceptual,0.03,0.05,competitor,decoy,0,2.201
5,163,perceptual,0.03,0.05,target,decoy,0,2.127
5,164,numeric,0.03,0.2,competitor,decoy,0,2.342
5,165,perceptual,0.03,0.2,target,competitor,0,2.237
5,166,numeric,0.1,0.2,competitor,target,1,2.117
5,167,perceptual,0.1,0.05,competitor,competitor,0,2.428
5,168,numeric,0.1,0.05,competitor,target,1,2.142
5,169,perceptual,0.03,0.2,competitor,competitor,0,1.99
5,170,perceptual,0.03,0.2,target,competitor,0,1.743
5,171,numeric,0.03,0.05,target,competitor,0,1.76
5,172,numeric,0.1,0.05,competitor,target,1,2.666
5,173,perceptual,0.1,0.05,target,decoy,0,2.278
5,174,numeric,0.1,0.2,competitor,target,1,3.396
5,175,numeric,0.1,0.05,competitor,competitor,0,2.759
5,176,perceptual,0.03,0.05,competitor,decoy,0,3.309
5,177,perceptual,0.1,0.2,competitor,competitor,0,2.031
5,178,numeric,0.03,0.05,competitor,decoy,0,1.851
5,179,numeric,0.03,0.2,competitor,competitor,0,2.119
5,180,numeric,0.1,0.2,competitor,target,1,1.74
5,181,perceptual,0.03,0.05,competitor,target,1,1.798
5,182,perceptual,0.03,0.2,competitor,target,1,1.8
5,183,perceptual,0.03,0.05,target,decoy,0,1.868
5,184,perceptual,0.03,0.2,competitor,target,1,1.981
5,185,numeric,0.1,0.05,competitor,target,1,2.011
5,186,perceptual,0.1,0.05,target,competitor,0,2.701
5,187,numeric,0.1,0.05,target,decoy,0,1.89
5,188,numeric,0.03,0.2,target,decoy,0,2.051
5,189,numeric,0.1,0.2,competitor,target,1,2.7
5,190,perceptual,0.1,0.05,target,target,1,2.166
5,191,numeric,0.1,0.2,target,competitor,0,2.905
5,192,perceptual,0.1,0.05,target,competitor,0,2.898
6,2,perceptual,0.03,0.05,competitor,target,1,0.585
6,3,perceptual,0.03,0.05,competitor,target,1,9.52
6,4,numeric,0.03,0.2,target,target,1,6.574
6,5,numeric,0.03,0.05,competitor,competitor,0,12.838
6,6,perceptual,0.03,0.05,competitor,competitor,0,14.556
6,7,numeric,0.1,0.2,target,target,1,7.152
6,8,numeric,0.03,0.2,competitor,competitor,0,11.908
6,9,numeric,0.1,0.05,competitor,competitor,0,9.841
6,10,numeric,0.1,0.2,competitor,target,1,8.375
6,11,numeric,0.03,0.05,target,target,1,10.293
6,12,numeric,0.03,0.05,target,target,1,14.624
6,13,numeric,0.1,0.2,competitor,target,1,13.509
6,14,numeric,0.1,0.05,competitor,competitor,0,11.74
6,15,perceptual,0.03,0.2,competitor,target,1,8.683
6,16,perceptual,0.1,0.2,competitor,target,1,6.266
6,17,numeric,0.03,0.05,competitor,target,1,7.348
6,18,numeric,0.03,0.05,target,target,1,8.249
6,20,numeric,0.03,0.2,target,competitor,0,13.886
6,21,numeric,0.1,0.05,target,target,1,7.986
6,23,numeric,0.1,0.05,competitor,competitor,0,5.906
6,24,perceptual,0.1,0.2,target,target,1,9.366
6,25,numeric,0.1,0.05,competitor,target,1,10.625
6,26,perceptual,0.1,0.05,competitor,target,1,6.046
6,27,numeric,0.03,0.2,competitor,competitor,0,12.001
6,28,perceptual,0.03,0.2,competitor,target,1,14.664
6,29,perceptual,0.1,0.2,competitor,target,1,7.881
6,30,perceptual,0.03,0.05,target,competitor,0,12.361
6,31,numeric,0.1,0.05,target,target,1,11.581
6,32,numeric,0.03,0.05,competitor,competitor,0,10.685
6,33,numeric,0.03,0.2,target,target,1,9.381
6,34,perceptual,0.03,0.2,target,target,1,9.531
6,35,perceptual,0.03,0.2,target,competitor,0,7.554
6,36,numeric,0.03,0.2,competitor,competitor,0,6.446
6,37,perceptual,0.1,0.2,competitor,target,1,6.61
6,38,perceptual,0.03,0.2,competitor,target,1,17.233
6,39,perceptual,0.03,0.05,competitor,target,1,6.49
6,40,perceptual,0.03,0.05,target,target,1,7.289
6,41,perceptual,0.03,0.05,competitor,target,1,5.669
6,43,numeric,0.03,0.05,target,target,1,13.647
6,44,perceptual,0.03,0.05,target,target,1,5.952
6,45,perceptual,0.03,0.2,target,target,1,4.74
6,46,perceptual,0.1,0.05,competitor,competitor,0,12.978
6,47,numeric,0.03,0.2,competitor,target,1,15.167
6,48,perceptual,0.03,0.05,competitor,decoy,0,6.236
6,49,numeric,0.1,0.05,competitor,competitor,0,8.098
6,50,perceptual,0.1,0.2,target,target,1,6.447
6,51,perceptual,0.03,0.05,competitor,competitor,0,16.607
6,52,numeric,0.03,0.05,target,competitor,0,10.131
6,53,numeric,0.1,0.05,target,target,1,7.749
6,54,perceptual,0.03,0.2,competitor,target,1,18.372
6,55,numeric,0.03,0.2,competitor,target,1,19.864
6,56,perceptual,0.03,0.05,competitor,competitor,0,10.307
6,57,perceptual,0.1,0.2,target,target,1,8.435
6,59,numeric,0.1,0.05,target,competitor,0,12.995
6,60,numeric,0.1,0.2,competitor,target,1,15.845
6,61,numeric,0.1,0.2,target,competitor,0,8.221
6,62,numeric,0.03,0.05,target,competitor,0,9.662
6,63,perceptual,0.03,0.05,competitor,competitor,0,7.407
6,64,numeric,0.03,0.05,competitor,target,1,19.551
6,65,numeric,0.03,0.2,target,target,1,5.573
6,66,perceptual,0.1,0.2,competitor,target,1,5.023
6,67,numeric,0.1,0.05,target,target,1,7.715
6,68,numeric,0.1,0.2,competitor,target,1,6.77
6,69,numeric,0.1,0.05,target,target,1,8.754
6,70,perceptual,0.1,0.2,target,target,1,4.94
6,72,numeric,0.03,0.05,target,target,1,6.015
6,73,numeric,0.1,0.2,target,competitor,0,18.044
6,74,numeric,0.03,0.05,target,target,1,6.293
6,75,numeric,0.03,0.2,competitor,target,1,5.971
6,76,numeric,0.03,0.05,target,target,1,4.514
6,77,numeric,0.1,0.05,target,target,1,13.722
6,78,perceptual,0.03,0.05,target,target,1,8.741
6,79,perceptual,0.1,0.05,target,decoy,0,5.59
6,80,numeric,0.1,0.05,target,target,1,8.689
6,81,numeric,0.1,0.05,competitor,target,1,8.798
6,82,numeric,0.1,0.05,target,target,1,7.749
6,83,numeric,0.1,0.05,competitor,target,1,16.333
6,84,perceptual,0.1,0.05,competitor,competitor,0,9.353
6,85,perceptual,0.03,0.2,target,competitor,0,6.504
6,86,numeric,0.1,0.05,target,target,1,9.412
6,87,perceptual,0.03,0.2,competitor,target,1,18.011
6,88,perceptual,0.1,0.05,target,target,1,6.86
6,89,numeric,0.03,0.05,target,decoy,0,8.016
6,90,perceptual,0.1,0.2,competitor,competitor,0,8.53
6,91,numeric,0.03,0.2,target,target,1,19.374
6,92,perceptual,0.03,0.05,competitor,target,1,12.745
6,93,numeric,0.1,0.05,competitor,target,1,9.235
6,94,numeric,0.03,0.2,target,target,1,8.083
6,95,perceptual,0.1,0.2,competitor,target,1,4.816
6,96,perceptual,0.1,0.05,target,target,1,3.44
6,97,perceptual,0.1,0.2,competitor,competitor,0,6.293
6,98,perceptual,0.1,0.2,competitor,target,1,5.725
6,99,perceptual,0.1,0.05,target,target,1,4.102
6,101,numeric,0.03,0.2,competitor,decoy,0,10.622
6,102,perceptual,0.1,0.2,target,target,1,11.011
6,103,perceptual,0.1,0.05,competitor,decoy,0,15.222
6,104,numeric,0.1,0.2,competitor,competitor,0,8.272
6,105,perceptual,0.1,0.05,competitor,target,1,5.168
6,106,numeric,0.03,0.2,target,target,1,18.796
6,107,perceptual,0.03,0.05,target,decoy,0,2.444
6,108,numeric,0.1,0.2,competitor,target,1,6.665
6,109,perceptual,0.1,0.05,competitor,target,1,8.442
6,110,numeric,0.1,0.05,target,target,1,9.455
6,111,perceptual,0.03,0.2,competitor,competitor,0,5.707
6,112,numeric,0.1,0.2,competitor,target,1,10.995
6,113,numeric,0.03,0.2,competitor,target,1,7.565
6,114,numeric,0.03,0.2,competitor,target,1,5.46
6,115,numeric,0.1,0.2,competitor,target,1,3.406
6,116,perceptual,0.03,0.2,target,competitor,0,3.684
6,117,numeric,0.1,0.2,target,competitor,0,2.875
6,118,perceptual,0.1,0.05,target,competitor,0,3.09
6,119,numeric,0.1,0.2,target,target,1,3.452
6,120,numeric,0.1,0.2,competitor,competitor,0,3.133
6,121,numeric,0.1,0.2,target,target,1,5.893
6,122,numeric,0.1,0.2,competitor,competitor,0,5.13
6,123,perceptual,0.03,0.2,competitor,target,1,5.169
6,124,perceptual,0.1,0.05,target,target,1,5.207
6,125,perceptual,0.1,0.2,target,target,1,4.929
6,126,perceptual,0.1,0.05,competitor,target,1,5.182
6,127,numeric,0.03,0.2,target,competitor,0,6.305
6,128,perceptual,0.03,0.05,competitor,competitor,0,3.544
6,129,perceptual,0.03,0.05,target,target,1,7.76
6,130,numeric,0.03,0.2,competitor,competitor,0,8.838
6,131,perceptual,0.1,0.05,target,decoy,0,5.497
6,132,numeric,0.1,0.05,competitor,competitor,0,5.999
6,133,numeric,0.1,0.05,target,decoy,0,4.568
6,134,perceptual,0.1,0.05,competitor,target,1,3.05
6,135,perceptual,0.1,0.2,target,target,1,3.962
6,137,numeric,0.03,0.2,target,competitor,0,10.156
6,138,numeric,0.1,0.05,competitor,competitor,0,9.684
6,139,perceptual,0.03,0.05,target,target,1,2.636
6,140,perceptual,0.1,0.05,competitor,target,1,2.677
6,141,numeric,0.1,0.05,competitor,target,1,15.611
6,142,perceptual,0.03,0.2,target,competitor,0,6.142
6,143,perceptual,0.1,0.2,target,target,1,5.443
6,144,numeric,0.03,0.05,competitor,target,1,3.379
6,145,numeric,0.03,0.05,competitor,target,1,3.152
6,146,perceptual,0.1,0.2,target,target,1,5.391
6,147,numeric,0.03,0.2,target,target,1,4.955
6,148,numeric,0.1,0.05,competitor,competitor,0,3.669
6,149,perceptual,0.1,0.05,target,target,1,6.945
6,150,numeric,0.1,0.2,target,target,1,8.357
6,151,perceptual,0.1,0.2,competitor,target,1,8.091
6,152,perceptual,0.03,0.05,competitor,competitor,0,10.807
6,153,numeric,0.1,0.2,target,target,1,8.759
6,154,perceptual,0.03,0.2,target,target,1,5.428
6,155,perceptual,0.1,0.2,competitor,target,1,4.231
6,156,perceptual,0.1,0.2,target,competitor,0,7.611
6,157,perceptual,0.1,0.05,target,competitor,0,2.871
6,158,perceptual,0.03,0.2,competitor,target,1,10.244
6,159,perceptual,0.1,0.2,target,decoy,0,11.393
6,160,perceptual,0.03,0.2,competitor,target,1,9.778
6,161,perceptual,0.03,0.05,target,target,1,13.125
6,162,perceptual,0.1,0.2,target,target,1,9.265
6,163,perceptual,0.1,0.05,competitor,competitor,0,3.963
6,164,numeric,0.1,0.2,competitor,target,1,7.082
6,165,numeric,0.03,0.2,competitor,competitor,0,13.391
6,166,numeric,0.1,0.2,target,target,1,4.72
6,167,perceptual,0.1,0.05,target,decoy,0,6.447
6,168,perceptual,0.03,0.2,target,competitor,0,5.888
6,169,perceptual,0.03,0.2,competitor,target,1,5.193
6,170,perceptual,0.03,0.05,target,target,1,5.025
6,171,numeric,0.03,0.05,competitor,target,1,6.518
6,172,numeric,0.03,0.2,target,competitor,0,3.276
6,173,perceptual,0.03,0.05,target,target,1,6.214
6,174,perceptual,0.1,0.05,target,decoy,0,3.124
6,175,numeric,0.03,0.2,competitor,target,1,8.105
6,176,numeric,0.03,0.05,competitor,target,1,5.351
6,177,perceptual,0.03,0.2,target,target,1,7.15
6,178,perceptual,0.03,0.2,target,competitor,0,14.759
6,179,numeric,0.03,0.05,competitor,competitor,0,18.111
6,180,perceptual,0.03,0.2,target,target,1,8.335
6,181,perceptual,0.03,0.05,target,target,1,6.462
6,182,perceptual,0.1,0.05,target,target,1,5.502
6,183,numeric,0.03,0.2,target,target,1,6.089
6,184,perceptual,0.1,0.2,competitor,target,1,7.201
6,185,numeric,0.1,0.2,target,target,1,9.278
6,186,perceptual,0.03,0.2,target,target,1,5.461
6,187,perceptual,0.03,0.2,competitor,target,1,8.589
6,188,perceptual,0.03,0.2,competitor,competitor,0,5.403
6,189,perceptual,0.1,0.2,competitor,target,1,7.048
6,190,numeric,0.1,0.2,competitor,competitor,0,10.18
6,191,numeric,0.1,0.2,target,target,1,12.9
6,192,perceptual,0.03,0.05,target,target,1,7.72
7,1,perceptual,0.03,0.05,target,decoy,0,4.81
7,2,perceptual,0.1,0.2,target,decoy,0,8.822
7,3,perceptual,0.03,0.2,target,target,1,3.939
7,4,perceptual,0.03,0.2,target,target,1,3.351
7,5,perceptual,0.03,0.05,target,competitor,0,5.792
7,6,numeric,0.1,0.05,competitor,target,1,3.823
7,7,perceptual,0.1,0.2,competitor,decoy,0,7.319
7,8,perceptual,0.03,0.2,competitor,competitor,0,11.991
7,9,numeric,0.1,0.2,competitor,target,1,5.214
7,10,numeric,0.03,0.2,competitor,target,1,7.764
7,11,perceptual,0.1,0.2,competitor,decoy,0,0.469
7,12,perceptual,0.1,0.2,competitor,target,1,8.505
7,13,numeric,0.1,0.2,target,target,1,7.319
7,14,perceptual,0.1,0.05,target,competitor,0,3.599
7,15,perceptual,0.1,0.2,target,target,1,5.386
7,16,numeric,0.1,0.05,target,target,1,5.288
7,17,perceptual,0.1,0.2,competitor,target,1,3.583
7,18,perceptual,0.03,0.05,target,target,1,6.208
7,19,perceptual,0.1,0.2,competitor,target,1,2.835
7,20,numeric,0.03,0.2,target,target,1,2.582
7,21,perceptual,0.1,0.05,competitor,target,1,3.53
7,22,numeric,0.03,0.05,target,target,1,3.213
7,23,perceptual,0.1,0.2,target,competitor,0,3.718
7,24,numeric,0.1,0.05,target,decoy,0,8.124
7,25,numeric,0.03,0.05,competitor,decoy,0,4.225
7,26,numeric,0.03,0.05,competitor,target,1,10.382
7,27,perceptual,0.03,0.2,target,target,1,3.949
7,28,perceptual,0.1,0.05,target,target,1,3.558
7,29,perceptual,0.03,0.05,competitor,competitor,0,2.549
7,30,perceptual,0.03,0.2,target,competitor,0,3.147
7,31,perceptual,0.03,0.05,competitor,target,1,1.847
7,32,numeric,0.1,0.2,competitor,target,1,1.419
7,33,perceptual,0.03,0.2,target,target,1,2.171
7,34,numeric,0.03,0.2,competitor,decoy,0,1.39
7,35,numeric,0.1,0.05,target,decoy,0,2.025
7,36,numeric,0.1,0.05,target,target,1,2.597
7,37,perceptual,0.03,0.05,competitor,decoy,0,2.049
7,38,perceptual,0.1,0.05,target,target,1,2.015
7,39,numeric,0.03,0.2,competitor,decoy,0,1.379
7,40,perceptual,0.1,0.05,target,decoy,0,2.724
7,41,numeric,0.1,0.05,target,target,1,1.464
7,42,numeric,0.03,0.2,target,competitor,0,1.998
7,43,perceptual,0.03,0.2,target,competitor,0,1.451
7,44,numeric,0.03,0.05,competitor,target,1,3.3
7,45,perceptual,0.1,0.05,competitor,competitor,0,1.913
7,46,numeric,0.03,0.05,target,target,1,2.851
7,47,numeric,0.03,0.05,competitor,decoy,0,1.414
7,48,numeric,0.1,0.2,target,competitor,0,1.298
7,49,numeric,0.1,0.05,competitor,competitor,0,2.755
7,50,numeric,0.03,0.2,competitor,target,1,1.738
7,51,perceptual,0.03,0.05,competitor,decoy,0,2.186
7,52,perceptual,0.1,0.2,target,competitor,0,3.747
7,53,numeric,0.1,0.2,target,competitor,0,1.766
7,54,numeric,0.1,0.05,target,target,1,1.469
7,55,numeric,0.1,0.2,competitor,competitor,0,1.484
7,56,perceptual,0.1,0.05,target,decoy,0,1.731
7,57,numeric,0.1,0.2,competitor,target,1,2.135
7,58,numeric,0.1,0.05,competitor,competitor,0,1.497
7,59,numeric,0.1,0.2,competitor,competitor,0,1.365
7,60,numeric,0.1,0.05,competitor,target,1,1.333
7,61,numeric,0.03,0.2,target,competitor,0,1.302
7,62,numeric,0.1,0.2,target,target,1,1.354
7,63,perceptual,0.1,0.2,competitor,decoy,0,1.286
7,64,numeric,0.1,0.2,target,decoy,0,1.313
7,65,perceptual,0.03,0.05,competitor,competitor,0,6.813
7,66,numeric,0.1,0.2,competitor,target,1,7.035
7,67,numeric,0.1,0.05,competitor,competitor,0,9.999
7,68,numeric,0.03,0.2,competitor,target,1,6.497
7,69,perceptual,0.03,0.2,competitor,decoy,0,3.503
7,70,numeric,0.03,0.05,target,competitor,0,11.931
7,71,perceptual,0.1,0.05,target,competitor,0,6.503
7,72,perceptual,0.1,0.05,target,target,1,2.548
7,73,numeric,0.1,0.2,competitor,target,1,3.921
7,74,perceptual,0.03,0.2,competitor,target,1,3.202
7,75,numeric,0.03,0.2,target,target,1,5.857
7,76,numeric,0.03,0.05,competitor,competitor,0,2.549
7,77,numeric,0.03,0.05,target,target,1,2.666
7,78,numeric,0.03,0.2,target,target,1,1.458
7,79,numeric,0.03,0.2,target,target,1,2.17
7,80,perceptual,0.03,0.2,target,competitor,0,2.214
7,83,perceptual,0.03,0.05,competitor,target,1,5.051
7,84,perceptual,0.03,0.2,target,decoy,0,1.366
7,85,numeric,0.1,0.05,target,decoy,0,1.458
7,86,perceptual,0.03,0.05,target,decoy,0,1.362
7,87,numeric,0.1,0.05,competitor,competitor,0,1.252
7,88,perceptual,0.03,0.05,target,decoy,0,1.552
7,89,numeric,0.03,0.2,competitor,target,1,1.247
7,90,numeric,0.03,0.05,competitor,decoy,0,1.264
7,91,perceptual,0.03,0.2,competitor,decoy,0,1.299
7,92,numeric,0.03,0.2,target,target,1,1.214
7,93,numeric,0.1,0.2,competitor,competitor,0,2.268
7,94,perceptual,0.1,0.2,target,target,1,1.534
7,95,perceptual,0.03,0.05,target,competitor,0,1.402
7,96,perceptual,0.1,0.2,competitor,decoy,0,1.316
7,97,perceptual,0.03,0.05,competitor,decoy,0,1.339
7,98,perceptual,0.03,0.05,competitor,decoy,0,0.962
7,99,perceptual,0.1,0.05,competitor,decoy,0,1.281
7,100,numeric,0.1,0.2,target,target,1,1.228
7,101,numeric,0.1,0.2,competitor,competitor,0,0.964
7,102,numeric,0.03,0.05,competitor,target,1,1.489
7,103,perceptual,0.03,0.2,competitor,competitor,0,1.302
7,104,perceptual,0.1,0.05,target,target,1,1.063
7,105,perceptual,0.03,0.2,competitor,target,1,0.597
7,106,perceptual,0.1,0.05,competitor,target,1,0.537
7,107,perceptual,0.03,0.2,target,decoy,0,0.349
7,108,perceptual,0.03,0.2,competitor,competitor,0,0.3
7,109,numeric,0.03,0.05,target,target,1,0.308
7,110,numeric,0.1,0.05,target,target,1,0.383
7,111,numeric,0.03,0.05,target,target,1,0.225
7,112,numeric,0.03,0.05,competitor,target,1,0.335
7,113,numeric,0.03,0.05,target,competitor,0,1.602
7,114,numeric,0.03,0.2,competitor,competitor,0,0.42
7,115,perceptual,0.1,0.05,competitor,decoy,0,1.651
7,116,numeric,0.1,0.2,competitor,competitor,0,0.613
7,117,numeric,0.03,0.05,target,target,1,0.397
7,118,perceptual,0.03,0.2,target,decoy,0,0.553
7,119,numeric,0.1,0.05,competitor,target,1,1.359
7,120,numeric,0.1,0.05,competitor,competitor,0,1.217
7,121,perceptual,0.03,0.2,competitor,decoy,0,1.283
7,122,numeric,0.03,0.2,competitor,decoy,0,1.297
7,123,perceptual,0.1,0.2,target,competitor,0,1.19
7,124,perceptual,0.03,0.05,target,decoy,0,0.664
7,125,numeric,0.03,0.05,competitor,decoy,0,0.881
7,126,perceptual,0.1,0.05,target,decoy,0,1.447
7,127,perceptual,0.03,0.2,target,competitor,0,1.287
7,128,perceptual,0.03,0.2,competitor,target,1,1.705
7,129,numeric,0.03,0.05,target,decoy,0,1.862
7,130,perceptual,0.1,0.2,competitor,competitor,0,2.463
7,131,perceptual,0.03,0.05,competitor,competitor,0,2.532
7,132,perceptual,0.03,0.2,competitor,competitor,0,1.875
7,133,numeric,0.03,0.2,target,decoy,0,2.453
7,134,numeric,0.1,0.05,target,target,1,5.28
7,135,numeric,0.03,0.05,target,target,1,9.655
7,136,numeric,0.1,0.2,competitor,target,1,10.233
7,137,numeric,0.03,0.2,competitor,decoy,0,8.507
7,138,numeric,0.03,0.2,target,target,1,7.431
7,139,perceptual,0.03,0.05,competitor,target,1,2.653
7,140,numeric,0.03,0.05,competitor,competitor,0,13.53
7,141,numeric,0.1,0.05,competitor,competitor,0,14.115
7,142,perceptual,0.1,0.2,competitor,target,1,12.981
7,143,perceptual,0.1,0.2,target,competitor,0,2.261
7,144,numeric,0.1,0.2,target,competitor,0,3.603
7,145,perceptual,0.03,0.05,competitor,competitor,0,2.501
7,146,numeric,0.1,0.05,competitor,decoy,0,0.365
7,147,perceptual,0.1,0.2,competitor,target,1,0.368
7,148,numeric,0.1,0.05,competitor,competitor,0,0.268
7,149,perceptual,0.03,0.05,target,target,1,0.27
7,150,numeric,0.03,0.2,competitor,target,1,0.338
7,151,numeric,0.1,0.05,target,target,1,0.263
7,152,numeric,0.1,0.2,target,target,1,0.288
7,153,perceptual,0.03,0.05,target,target,1,0.23
7,154,perceptual,0.1,0.05,competitor,competitor,0,0.252
7,155,numeric,0.03,0.2,target,competitor,0,0.325
7,156,numeric,0.1,0.05,target,decoy,0,0.23
7,157,perceptual,0.1,0.05,competitor,target,1,0.221
7,158,perceptual,0.1,0.2,target,decoy,0,0.214
7,159,perceptual,0.03,0.05,target,decoy,0,0.285
7,160,numeric,0.1,0.2,target,competitor,0,0.238
7,161,perceptual,0.1,0.05,competitor,competitor,0,0.364
7,162,numeric,0.03,0.05,target,competitor,0,0.441
7,163,numeric,0.03,0.2,competitor,target,1,0.303
7,164,numeric,0.03,0.2,competitor,decoy,0,0.318
7,165,numeric,0.03,0.2,target,competitor,0,0.234
7,166,perceptual,0.03,0.05,competitor,target,1,0.249
7,167,perceptual,0.03,0.2,competitor,competitor,0,0.206
7,168,numeric,0.03,0.05,target,decoy,0,0.264
7,169,numeric,0.1,0.2,target,decoy,0,0.293
7,170,numeric,0.1,0.2,competitor,competitor,0,0.349
7,171,numeric,0.03,0.05,competitor,decoy,0,0.207
7,172,perceptual,0.1,0.05,competitor,decoy,0,0.314
7,173,perceptual,0.1,0.2,target,competitor,0,0.266
7,174,numeric,0.1,0.2,target,decoy,0,0.32
7,175,perceptual,0.1,0.05,target,target,1,0.43
7,176,perceptual,0.1,0.2,competitor,competitor,0,0.285
7,177,numeric,0.1,0.05,target,competitor,0,0.345
7,178,perceptual,0.1,0.2,target,competitor,0,0.264
7,179,perceptual,0.1,0.2,target,target,1,0.168
7,180,perceptual,0.1,0.05,competitor,target,1,0.347
7,181,perceptual,0.1,0.2,target,competitor,0,0.216
7,182,perceptual,0.1,0.05,competitor,target,1,0.368
7,183,perceptual,0.03,0.05,target,competitor,0,0.318
7,184,numeric,0.1,0.2,target,competitor,0,0.351
7,185,numeric,0.03,0.2,target,target,1,0.746
7,186,perceptual,0.1,0.05,competitor,decoy,0,0.224
7,187,perceptual,0.03,0.2,target,target,1,0.32
7,188,perceptual,0.1,0.2,competitor,decoy,0,0.224
7,189,perceptual,0.03,0.2,competitor,competitor,0,0.601
7,190,numeric,0.03,0.05,competitor,target,1,0.335
7,191,perceptual,0.1,0.05,target,decoy,0,0.425
7,192,perceptual,0.1,0.05,target,target,1,1.788
8,1,numeric,0.03,0.05,target,competitor,0,12.137
8,2,numeric,0.03,0.05,target,competitor,0,6.2
8,3,perceptual,0.03,0.05,target,target,1,7.223
8,4,perceptual,0.1,0.05,competitor,target,1,6.204
8,5,perceptual,0.1,0.05,competitor,competitor,0,3.139
8,6,perceptual,0.03,0.05,competitor,target,1,5.551
8,7,numeric,0.03,0.2,competitor,target,1,9.738
8,8,perceptual,0.1,0.05,competitor,target,1,8.384
8,9,perceptual,0.1,0.2,target,target,1,7.132
8,10,numeric,0.1,0.2,target,decoy,0,9.09
8,11,numeric,0.03,0.2,target,target,1,5.208
8,12,perceptual,0.03,0.05,competitor,competitor,0,5.849
8,13,numeric,0.03,0.05,competitor,competitor,0,6.216
8,14,numeric,0.03,0.05,competitor,competitor,0,8.135
8,15,numeric,0.03,0.05,competitor,competitor,0,6.166
8,16,numeric,0.03,0.2,target,competitor,0,11.788
8,17,numeric,0.1,0.2,competitor,competitor,0,7.45
8,18,perceptual,0.03,0.05,competitor,target,1,8.334
8,19,numeric,0.03,0.05,competitor,target,1,7.116
8,20,perceptual,0.1,0.2,target,competitor,0,9.016
8,21,perceptual,0.03,0.05,target,decoy,0,8.535
8,22,perceptual,0.1,0.2,target,target,1,7.695
8,23,numeric,0.03,0.05,target,target,1,7.094
8,24,numeric,0.03,0.2,competitor,competitor,0,6.863
8,25,numeric,0.03,0.05,target,target,1,10.235
8,26,numeric,0.03,0.2,target,target,1,5.882
8,27,numeric,0.1,0.05,competitor,competitor,0,6.335
8,28,perceptual,0.1,0.2,competitor,target,1,5.118
8,29,numeric,0.03,0.05,target,target,1,7.266
8,30,numeric,0.1,0.05,target,target,1,5.484
8,31,perceptual,0.1,0.05,competitor,target,1,4.734
8,32,numeric,0.03,0.2,target,target,1,7.249
8,33,perceptual,0.03,0.2,competitor,target,1,8.557
8,34,perceptual,0.1,0.05,target,target,1,4.775
8,35,perceptual,0.1,0.05,target,decoy,0,10.499
8,36,numeric,0.1,0.05,competitor,competitor,0,7.156
8,37,perceptual,0.03,0.05,competitor,competitor,0,5.801
8,38,numeric,0.03,0.05,competitor,competitor,0,8.599
8,39,numeric,0.1,0.2,target,target,1,6.472
8,40,perceptual,0.03,0.05,competitor,decoy,0,4.091
8,41,perceptual,0.1,0.2,competitor,competitor,0,4.071
8,42,numeric,0.03,0.05,competitor,competitor,0,12.017
8,43,perceptual,0.03,0.2,competitor,competitor,0,5.837
8,44,numeric,0.1,0.05,competitor,target,1,7.449
8,45,perceptual,0.1,0.2,target,competitor,0,3.8
8,46,numeric,0.03,0.05,competitor,decoy,0,11.918
8,47,perceptual,0.1,0.2,competitor,target,1,3.588
8,48,numeric,0.1,0.2,target,target,1,6.933
8,49,numeric,0.03,0.2,competitor,target,1,6.452
8,50,perceptual,0.1,0.05,competitor,competitor,0,6.605
8,51,perceptual,0.1,0.05,target,competitor,0,4.554
8,52,numeric,0.1,0.05,competitor,target,1,7.059
8,53,perceptual,0.03,0.2,competitor,target,1,5.62
8,54,perceptual,0.03,0.2,target,competitor,0,4.652
8,55,perceptual,0.1,0.2,competitor,target,1,4.5
8,56,perceptual,0.1,0.05,competitor,competitor,0,6.303
8,57,perceptual,0.1,0.2,competitor,target,1,4.523
8,58,perceptual,0.03,0.05,competitor,decoy,0,5.305
8,59,numeric,0.03,0.05,target,target,1,8.556
8,60,numeric,0.1,0.05,target,target,1,8.781
8,61,numeric,0.03,0.2,competitor,competitor,0,8.979
8,62,perceptual,0.03,0.2,competitor,target,1,4.786
8,63,numeric,0.1,0.2,target,target,1,8.417
8,64,perceptual,0.1,0.05,target,target,1,2.95
8,65,perceptual,0.03,0.05,target,decoy,0,11.085
8,66,perceptual,0.1,0.05,competitor,target,1,5.784
8,67,perceptual,0.1,0.05,competitor,competitor,0,7.974
8,68,numeric,0.03,0.2,target,target,1,10.833
8,69,numeric,0.03,0.2,competitor,competitor,0,6.767
8,70,perceptual,0.03,0.2,competitor,competitor,0,5.519
8,71,numeric,0.1,0.05,target,target,1,4.337
8,72,perceptual,0.1,0.2,target,competitor,0,6.133
8,73,perceptual,0.1,0.05,target,decoy,0,5.166
8,74,numeric,0.1,0.2,target,target,1,5.4
8,75,perceptual,0.03,0.05,competitor,competitor,0,3.633
8,76,perceptual,0.1,0.2,competitor,target,1,2.988
8,77,perceptual,0.1,0.2,target,target,1,3.289
8,78,perceptual,0.03,0.05,target,target,1,6.572
8,79,perceptual,0.03,0.2,target,target,1,3.8
8,80,numeric,0.1,0.2,competitor,target,1,8.272
8,81,numeric,0.1,0.2,competitor,target,1,6.718
8,82,perceptual,0.1,0.2,target,target,1,7.183
8,83,perceptual,0.1,0.05,target,target,1,4.666
8,84,numeric,0.1,0.2,target,target,1,5.922
8,85,numeric,0.1,0.2,competitor,competitor,0,5.649
8,86,numeric,0.1,0.2,target,competitor,0,9.269
8,87,numeric,0.03,0.2,competitor,competitor,0,6.883
8,88,perceptual,0.03,0.2,target,target,1,3.921
8,89,perceptual,0.03,0.05,target,competitor,0,5.069
8,90,perceptual,0.03,0.2,target,competitor,0,4.733
8,91,numeric,0.03,0.2,target,target,1,6.22
8,92,perceptual,0.1,0.05,target,target,1,4.573
8,93,numeric,0.1,0.05,target,target,1,8.449
8,94,perceptual,0.1,0.05,competitor,competitor,0,4.823
8,95,numeric,0.1,0.05,target,target,1,9.819
8,96,perceptual,0.03,0.2,competitor,competitor,0,4.917
8,97,perceptual,0.03,0.2,competitor,target,1,4.521
8,98,numeric,0.1,0.05,target,target,1,7.148
8,99,perceptual,0.1,0.05,target,target,1,3.913
8,100,numeric,0.1,0.05,target,target,1,10.205
8,101,numeric,0.1,0.05,target,target,1,4.981
8,102,numeric,0.03,0.05,competitor,competitor,0,4.903
8,103,perceptual,0.1,0.05,target,competitor,0,3.818
8,104,perceptual,0.03,0.2,target,competitor,0,2.953
8,105,numeric,0.1,0.05,competitor,competitor,0,7.99
8,106,numeric,0.03,0.2,target,competitor,0,8.834
8,107,perceptual,0.03,0.05,target,competitor,0,5.42
8,108,perceptual,0.03,0.2,target,target,1,5.665
8,109,perceptual,0.03,0.2,competitor,competitor,0,3.349
8,110,numeric,0.03,0.2,target,decoy,0,3.412
8,111,perceptual,0.1,0.2,target,competitor,0,4.47
8,112,numeric,0.03,0.2,target,target,1,9.3
8,113,numeric,0.03,0.2,competitor,target,1,7.333
8,114,perceptual,0.1,0.2,competitor,target,1,3.072
8,115,numeric,0.03,0.05,target,target,1,4.866
8,116,numeric,0.03,0.05,target,target,1,8.18
8,117,perceptual,0.03,0.05,competitor,decoy,0,7.57
8,118,numeric,0.03,0.2,competitor,competitor,0,6.566
8,119,numeric,0.1,0.05,competitor,target,1,12.419
8,120,numeric,0.03,0.05,target,decoy,0,6.482
8,121,numeric,0.1,0.05,competitor,target,1,7.55
8,122,perceptual,0.1,0.2,competitor,target,1,3.449
8,123,numeric,0.03,0.2,competitor,target,1,5.817
8,124,numeric,0.03,0.05,competitor,target,1,4.849
8,125,numeric,0.1,0.05,competitor,decoy,0,6.342
8,126,numeric,0.1,0.05,competitor,competitor,0,6.705
8,127,perceptual,0.1,0.2,competitor,target,1,3.028
8,128,perceptual,0.1,0.2,competitor,target,1,2.663
8,129,perceptual,0.03,0.2,competitor,target,1,3.985
8,130,perceptual,0.1,0.2,target,target,1,3.052
8,131,perceptual,0.1,0.2,target,target,1,3.301
8,132,numeric,0.1,0.2,target,target,1,7.133
8,133,numeric,0.1,0.05,competitor,competitor,0,4.949
8,134,numeric,0.1,0.05,competitor,target,1,5.534
8,135,perceptual,0.03,0.05,target,competitor,0,1.216
8,136,perceptual,0.03,0.2,competitor,target,1,3.199
8,137,perceptual,0.03,0.05,competitor,target,1,3.55
8,138,numeric,0.1,0.05,competitor,target,1,6.45
8,139,perceptual,0.03,0.05,target,decoy,0,4.862
8,140,perceptual,0.03,0.05,competitor,decoy,0,3.513
8,141,numeric,0.1,0.2,competitor,target,1,8.1
8,142,numeric,0.1,0.05,target,target,1,9.849
8,143,numeric,0.1,0.2,target,target,1,4.085
8,144,numeric,0.1,0.2,competitor,target,1,6.7
8,145,numeric,0.1,0.2,competitor,competitor,0,5.752
8,146,numeric,0.03,0.05,competitor,competitor,0,10.552
8,147,perceptual,0.1,0.2,competitor,target,1,2.84
8,148,perceptual,0.1,0.2,target,target,1,3.618
8,149,perceptual,0.1,0.2,target,target,1,3.586
8,150,numeric,0.03,0.2,competitor,competitor,0,6.767
8,151,perceptual,0.03,0.2,competitor,target,1,3.341
8,152,perceptual,0.1,0.05,target,target,1,7.214
8,153,perceptual,0.03,0.05,target,target,1,3.98
8,154,perceptual,0.03,0.05,target,competitor,0,3.847
8,155,numeric,0.03,0.05,target,target,1,7.733
8,156,perceptual,0.03,0.05,target,competitor,0,5.437
8,157,perceptual,0.03,0.2,target,target,1,3.568
8,158,perceptual,0.1,0.05,competitor,decoy,0,6.634
8,159,perceptual,0.03,0.2,target,target,1,3.581
8,160,perceptual,0.1,0.2,competitor,target,1,2.737
8,161,numeric,0.03,0.05,competitor,competitor,0,5.211
8,162,numeric,0.1,0.2,competitor,competitor,0,6.795
8,163,numeric,0.1,0.2,competitor,competitor,0,7.896
8,164,perceptual,0.1,0.05,target,target,1,2.434
8,165,numeric,0.1,0.2,competitor,target,1,4.054
8,166,numeric,0.1,0.2,competitor,competitor,0,6.318
8,167,perceptual,0.03,0.05,target,target,1,5.451
8,168,perceptual,0.03,0.2,target,target,1,3.272
8,169,numeric,0.03,0.2,competitor,target,1,5.636
8,170,numeric,0.03,0.05,target,target,1,10.208
8,171,perceptual,0.03,0.2,target,target,1,3.732
8,172,perceptual,0.03,0.2,target,target,1,4.314
8,173,numeric,0.03,0.05,target,target,1,7.529
8,174,numeric,0.03,0.05,competitor,target,1,4.371
8,175,numeric,0.1,0.2,target,target,1,6.301
8,176,numeric,0.1,0.2,competitor,competitor,0,7.669
8,177,perceptual,0.1,0.05,target,target,1,5.477
8,178,numeric,0.03,0.2,target,target,1,5.168
8,179,numeric,0.1,0.2,target,target,1,4.33
8,180,numeric,0.1,0.05,target,target,1,7.139
8,181,perceptual,0.03,0.2,competitor,target,1,3.668
8,182,numeric,0.1,0.2,target,target,1,10.666
8,183,perceptual,0.03,0.05,competitor,decoy,0,3.651
8,184,numeric,0.03,0.2,target,competitor,0,11.42
8,185,perceptual,0.1,0.05,competitor,target,1,3.368
8,186,numeric,0.1,0.05,target,target,1,5.348
8,187,perceptual,0.03,0.05,competitor,competitor,0,5.62
8,188,perceptual,0.1,0.05,competitor,decoy,0,2.72
8,189,numeric,0.03,0.2,competitor,competitor,0,3.903
8,190,numeric,0.03,0.2,target,target,1,7.317
8,191,numeric,0.1,0.05,target,target,1,11.901
8,192,perceptual,0.03,0.2,target,target,1,3.42
9,1,perceptual,0.1,0.2,competitor,competitor,0,6.533
9,2,perceptual,0.03,0.05,target,target,1,10.012
9,3,numeric,0.1,0.05,competitor,target,1,11.111
9,4,perceptual,0.03,0.2,competitor,competitor,0,9.708
9,5,perceptual,0.03,0.2,target,competitor,0,8.178
9,6,perceptual,0.1,0.2,competitor,decoy,0,6.139
9,7,numeric,0.1,0.2,target,target,1,10.563
9,8,numeric,0.1,0.2,competitor,decoy,0,8.777
9,9,perceptual,0.1,0.2,competitor,competitor,0,4.591
9,10,numeric,0.03,0.05,target,target,1,11.706
9,11,perceptual,0.03,0.2,competitor,target,1,8.154
9,12,perceptual,0.1,0.05,competitor,target,1,3.395
9,13,numeric,0.03,0.2,target,target,1,6.6
9,14,numeric,0.1,0.05,target,target,1,5.635
9,15,perceptual,0.03,0.05,target,decoy,0,4.554
9,16,perceptual,0.03,0.05,target,decoy,0,4.692
9,17,perceptual,0.1,0.2,target,competitor,0,3.596
9,18,perceptual,0.03,0.05,competitor,target,1,4.476
9,19,numeric,0.03,0.2,competitor,competitor,0,8.175
9,20,perceptual,0.03,0.2,target,target,1,6.134
9,21,perceptual,0.03,0.2,competitor,competitor,0,5.263
9,22,perceptual,0.1,0.05,competitor,target,1,4.076
9,23,perceptual,0.1,0.05,target,target,1,9.305
9,24,numeric,0.03,0.05,target,competitor,0,6.243
9,25,perceptual,0.03,0.05,competitor,competitor,0,3.519
9,26,perceptual,0.1,0.2,target,target,1,7.76
9,27,perceptual,0.1,0.05,target,decoy,0,4.851
9,28,numeric,0.03,0.2,target,competitor,0,9.219
9,29,perceptual,0.03,0.2,target,decoy,0,4.446
9,30,perceptual,0.03,0.2,target,decoy,0,5.705
9,31,numeric,0.1,0.05,target,target,1,9.793
9,32,numeric,0.1,0.05,competitor,competitor,0,3.558
9,33,perceptual,0.1,0.2,target,target,1,4.751
9,34,perceptual,0.03,0.2,competitor,target,1,3.138
9,35,numeric,0.1,0.05,competitor,target,1,12.016
9,36,perceptual,0.1,0.05,competitor,target,1,2.992
9,37,perceptual,0.1,0.2,target,decoy,0,3.959
9,38,numeric,0.03,0.05,competitor,target,1,6.992
9,39,perceptual,0.03,0.05,competitor,target,1,8.766
9,40,perceptual,0.03,0.2,competitor,competitor,0,4.114
9,41,numeric,0.03,0.05,competitor,target,1,12.173
9,42,perceptual,0.1,0.2,target,target,1,3.366
9,43,numeric,0.03,0.2,target,decoy,0,6.447
9,44,numeric,0.1,0.2,competitor,competitor,0,7.012
9,45,perceptual,0.03,0.05,competitor,competitor,0,6.005
9,46,numeric,0.1,0.2,target,competitor,0,4
9,47,perceptual,0.03,0.05,target,competitor,0,3.826
9,48,numeric,0.1,0.05,target,target,1,4.568
9,49,perceptual,0.1,0.05,target,competitor,0,4.312
9,50,numeric,0.1,0.05,competitor,target,1,5.212
9,51,numeric,0.1,0.2,competitor,target,1,6.848
9,52,perceptual,0.1,0.2,target,target,1,5.133
9,53,perceptual,0.1,0.05,competitor,target,1,3.305
9,54,perceptual,0.1,0.05,target,competitor,0,4.367
9,55,perceptual,0.03,0.2,competitor,target,1,2.982
9,56,perceptual,0.1,0.05,target,competitor,0,2.571
9,57,numeric,0.1,0.05,target,competitor,0,4.769
9,58,perceptual,0.1,0.05,competitor,competitor,0,2.122
9,59,numeric,0.03,0.2,target,decoy,0,3.342
9,60,numeric,0.03,0.2,competitor,target,1,3.562
9,61,numeric,0.03,0.05,competitor,competitor,0,8.768
9,62,numeric,0.1,0.05,target,decoy,0,6.04
9,63,numeric,0.1,0.05,target,target,1,9.331
9,64,perceptual,0.1,0.2,target,target,1,7.003
9,65,perceptual,0.1,0.2,competitor,target,1,2.954
9,66,perceptual,0.03,0.05,target,target,1,4.069
9,67,numeric,0.1,0.05,target,target,1,0.03
9,68,perceptual,0.1,0.2,competitor,decoy,0,2.283
9,69,perceptual,0.03,0.05,target,decoy,0,1.52
9,70,numeric,0.03,0.05,target,decoy,0,3.597
9,71,perceptual,0.03,0.2,target,competitor,0,3.412
9,72,perceptual,0.03,0.2,competitor,competitor,0,4.362
9,73,perceptual,0.1,0.2,target,target,1,2.59
9,74,perceptual,0.1,0.05,competitor,target,1,3.097
9,75,numeric,0.1,0.2,target,target,1,4.599
9,76,perceptual,0.03,0.2,competitor,decoy,0,3.631
9,77,perceptual,0.1,0.05,competitor,competitor,0,4.265
9,78,numeric,0.03,0.05,target,target,1,6.141
9,79,numeric,0.03,0.2,target,target,1,5.222
9,80,numeric,0.03,0.2,target,target,1,9.43
9,81,perceptual,0.1,0.2,target,target,1,2.777
9,82,numeric,0.03,0.2,competitor,target,1,3.349
9,83,perceptual,0.1,0.2,target,decoy,0,4.119
9,84,numeric,0.1,0.2,competitor,target,1,3.998
9,85,numeric,0.03,0.05,target,competitor,0,8.055
9,86,numeric,0.1,0.05,target,competitor,0,8.606
9,87,numeric,0.03,0.2,competitor,target,1,4.207
9,88,numeric,0.1,0.2,competitor,target,1,6.13
9,89,perceptual,0.03,0.05,target,decoy,0,2.442
9,90,perceptual,0.1,0.05,competitor,target,1,2.448
9,91,numeric,0.03,0.05,target,target,1,7.486
9,92,perceptual,0.03,0.2,target,competitor,0,3.779
9,93,numeric,0.03,0.05,competitor,competitor,0,5.29
9,94,perceptual,0.1,0.05,target,competitor,0,2.566
9,95,numeric,0.03,0.2,competitor,competitor,0,4.267
9,96,numeric,0.03,0.05,competitor,competitor,0,8.699
9,97,perceptual,0.03,0.05,competitor,competitor,0,4.335
9,98,perceptual,0.1,0.2,competitor,competitor,0,3.809
9,99,perceptual,0.03,0.2,target,competitor,0,2.12
9,100,numeric,0.1,0.05,competitor,target,1,6.108
9,101,perceptual,0.03,0.2,target,decoy,0,2.261
9,102,perceptual,0.1,0.2,target,target,1,5.561
9,103,perceptual,0.1,0.2,competitor,competitor,0,1.973
9,104,numeric,0.03,0.05,target,competitor,0,4.876
9,105,perceptual,0.03,0.05,competitor,competitor,0,2.042
9,106,numeric,0.03,0.05,competitor,target,1,5.65
9,107,numeric,0.1,0.2,target,target,1,6.506
9,108,perceptual,0.1,0.2,target,decoy,0,3.05
9,109,numeric,0.03,0.2,competitor,competitor,0,4.668
9,110,numeric,0.03,0.05,target,decoy,0,4.317
9,111,numeric,0.1,0.2,competitor,target,1,3.617
9,112,numeric,0.1,0.2,target,target,1,6.336
9,113,numeric,0.1,0.2,target,target,1,6.613
9,114,perceptual,0.03,0.05,competitor,target,1,5.945
9,115,numeric,0.1,0.2,competitor,target,1,7.838
9,116,numeric,0.03,0.05,target,target,1,8.367
9,117,numeric,0.1,0.05,competitor,target,1,5.933
9,118,perceptual,0.03,0.05,target,target,1,2.407
9,119,perceptual,0.1,0.2,competitor,target,1,3.36
9,120,perceptual,0.03,0.05,target,competitor,0,3.431
9,121,numeric,0.1,0.2,competitor,target,1,8.632
9,122,numeric,0.03,0.05,target,target,1,2.247
9,123,numeric,0.03,0.05,target,competitor,0,3.828
9,124,numeric,0.03,0.05,competitor,target,1,4.85
9,125,perceptual,0.1,0.2,competitor,target,1,2.776
9,126,perceptual,0.1,0.05,target,competitor,0,3.88
9,127,numeric,0.1,0.2,competitor,competitor,0,4.952
9,128,numeric,0.03,0.2,target,target,1,4.299
9,129,numeric,0.1,0.05,competitor,target,1,4.581
9,130,perceptual,0.03,0.05,target,competitor,0,3.558
9,131,numeric,0.1,0.2,target,competitor,0,9.442
9,132,numeric,0.1,0.05,competitor,competitor,0,10.125
9,133,perceptual,0.03,0.05,competitor,competitor,0,7.241
9,134,numeric,0.03,0.05,competitor,competitor,0,1.813
9,135,numeric,0.03,0.2,target,decoy,0,6.718
9,136,perceptual,0.03,0.05,target,decoy,0,2.428
9,137,numeric,0.1,0.05,competitor,target,1,4.174
9,138,numeric,0.1,0.2,target,competitor,0,9.114
9,139,numeric,0.1,0.05,competitor,target,1,4.655
9,140,numeric,0.03,0.05,competitor,competitor,0,11.024
9,141,numeric,0.03,0.05,competitor,target,1,4.723
9,142,numeric,0.03,0.2,target,target,1,6.547
9,143,numeric,0.03,0.2,target,target,1,6.038
9,144,numeric,0.03,0.2,competitor,target,1,7.213
9,145,perceptual,0.03,0.2,target,competitor,0,8.995
9,146,numeric,0.1,0.05,target,competitor,0,5.155
9,147,numeric,0.03,0.2,target,target,1,5.057
9,148,perceptual,0.03,0.2,competitor,decoy,0,2.812
9,149,perceptual,0.1,0.2,competitor,decoy,0,1.947
9,150,perceptual,0.1,0.05,target,target,1,2.11
9,151,numeric,0.03,0.2,target,competitor,0,6.744
9,152,numeric,0.1,0.05,target,target,1,6.736
9,153,numeric,0.1,0.2,competitor,target,1,4.26
9,154,perceptual,0.1,0.05,competitor,target,1,2.257
9,155,perceptual,0.1,0.05,target,competitor,0,5.426
9,156,numeric,0.1,0.2,competitor,competitor,0,6.834
9,157,perceptual,0.1,0.05,competitor,decoy,0,2.804
9,158,perceptual,0.1,0.2,competitor,target,1,3.203
9,159,perceptual,0.03,0.2,competitor,target,1,2.113
9,160,perceptual,0.03,0.2,target,decoy,0,2.74
9,161,numeric,0.03,0.05,target,decoy,0,5.447
9,162,perceptual,0.1,0.05,target,target,1,2.684
9,163,perceptual,0.03,0.05,competitor,competitor,0,3.756
9,164,numeric,0.1,0.2,target,target,1,11.213
9,165,numeric,0.03,0.2,competitor,competitor,0,9.176
9,166,perceptual,0.03,0.05,target,competitor,0,3.635
9,167,numeric,0.1,0.05,competitor,target,1,5.119
9,168,numeric,0.03,0.05,competitor,target,1,5.231
9,169,perceptual,0.1,0.05,competitor,target,1,0.37
9,170,numeric,0.1,0.05,target,target,1,4.085
9,171,numeric,0.03,0.2,competitor,target,1,5.217
9,172,perceptual,0.1,0.05,target,target,1,2.549
9,173,perceptual,0.03,0.2,target,target,1,2.015
9,174,perceptual,0.03,0.2,competitor,decoy,0,2.369
9,175,numeric,0.03,0.2,competitor,target,1,4.419
9,176,perceptual,0.03,0.2,competitor,competitor,0,5.842
9,177,numeric,0.1,0.05,target,target,1,6.974
9,178,numeric,0.1,0.2,target,target,1,5.738
9,179,perceptual,0.03,0.2,target,competitor,0,3.936
9,180,numeric,0.03,0.2,competitor,target,1,6.169
9,181,perceptual,0.1,0.2,competitor,decoy,0,2.876
9,182,perceptual,0.03,0.05,competitor,competitor,0,6.935
9,183,perceptual,0.1,0.05,competitor,competitor,0,3.241
9,184,numeric,0.1,0.2,target,target,1,3.75
9,185,numeric,0.1,0.2,competitor,target,1,5.642
9,186,perceptual,0.1,0.05,target,competitor,0,4.25
9,187,perceptual,0.03,0.05,competitor,competitor,0,2.533
9,188,numeric,0.03,0.2,competitor,target,1,4.244
9,189,numeric,0.1,0.05,competitor,competitor,0,4.283
9,190,numeric,0.1,0.2,target,target,1,4.908
9,191,numeric,0.03,0.05,competitor,competitor,0,4.284
9,192,perceptual,0.03,0.05,competitor,target,1,3.835
10,1,perceptual,0.03,0.05,target,decoy,0,9.424
10,2,perceptual,0.1,0.05,target,target,1,9.45
10,3,numeric,0.1,0.05,target,decoy,0,10.441
10,4,numeric,0.1,0.05,target,competitor,0,8.637
10,5,numeric,0.03,0.2,target,target,1,15.689
10,6,perceptual,0.1,0.05,competitor,target,1,5.874
10,7,numeric,0.03,0.05,competitor,competitor,0,7.178
10,8,numeric,0.03,0.05,target,target,1,9.003
10,9,perceptual,0.03,0.2,competitor,competitor,0,4.86
10,10,perceptual,0.03,0.2,competitor,target,1,9.861
10,11,numeric,0.1,0.05,competitor,target,1,7.525
10,12,numeric,0.1,0.2,target,target,1,5.848
10,13,perceptual,0.1,0.05,competitor,competitor,0,6.02
10,14,perceptual,0.03,0.2,target,target,1,4.936
10,15,numeric,0.03,0.05,competitor,competitor,0,8.652
10,16,numeric,0.03,0.05,target,decoy,0,6.429
10,17,perceptual,0.1,0.2,competitor,target,1,4.353
10,18,numeric,0.1,0.2,target,competitor,0,4.53
10,19,numeric,0.03,0.2,competitor,target,1,6.304
10,20,perceptual,0.1,0.05,target,competitor,0,5.494
10,21,numeric,0.03,0.05,target,target,1,4.304
10,22,numeric,0.03,0.2,competitor,competitor,0,4.938
10,23,numeric,0.1,0.2,competitor,target,1,4.558
10,24,numeric,0.03,0.2,target,competitor,0,4.478
10,25,numeric,0.03,0.05,competitor,decoy,0,9.285
10,26,perceptual,0.03,0.2,competitor,target,1,4.468
10,27,numeric,0.1,0.05,competitor,target,1,8.221
10,28,perceptual,0.03,0.05,target,competitor,0,4.815
10,29,numeric,0.03,0.2,competitor,target,1,4.913
10,30,numeric,0.1,0.2,target,competitor,0,3.64
10,31,numeric,0.1,0.05,target,competitor,0,4.908
10,32,numeric,0.1,0.2,target,target,1,4.706
10,33,perceptual,0.03,0.05,target,decoy,0,2.978
10,34,perceptual,0.1,0.2,target,competitor,0,3.331
10,35,perceptual,0.03,0.05,competitor,target,1,13.111
10,36,perceptual,0.1,0.2,competitor,target,1,6.715
10,37,numeric,0.03,0.2,target,target,1,6.245
10,38,numeric,0.03,0.05,target,target,1,16.291
10,39,numeric,0.03,0.05,target,competitor,0,7.182
10,40,numeric,0.1,0.2,competitor,competitor,0,9.08
10,41,perceptual,0.1,0.05,target,competitor,0,6.114
10,42,numeric,0.1,0.05,competitor,decoy,0,11.876
10,43,perceptual,0.03,0.05,target,target,1,11.371
10,44,numeric,0.1,0.05,competitor,competitor,0,15.354
10,45,numeric,0.1,0.2,target,target,1,9.037
10,46,numeric,0.03,0.2,competitor,competitor,0,15.564
10,47,perceptual,0.1,0.2,competitor,target,1,6.662
10,48,perceptual,0.1,0.2,competitor,target,1,5.718
10,49,perceptual,0.1,0.2,competitor,target,1,4.518
10,50,perceptual,0.1,0.05,target,decoy,0,7.945
10,51,perceptual,0.03,0.05,competitor,target,1,5.43
10,52,numeric,0.03,0.2,competitor,competitor,0,4.92
10,53,numeric,0.03,0.2,competitor,target,1,5.487
10,54,perceptual,0.03,0.05,competitor,target,1,6.419
10,55,perceptual,0.1,0.05,competitor,target,1,3.185
10,56,perceptual,0.03,0.2,competitor,target,1,9.863
10,57,perceptual,0.03,0.05,target,competitor,0,14.569
10,58,perceptual,0.03,0.05,competitor,competitor,0,3.805
10,59,perceptual,0.03,0.05,target,target,1,3.624
10,60,perceptual,0.03,0.2,target,target,1,3.64
10,61,numeric,0.03,0.2,target,target,1,8.722
10,62,perceptual,0.1,0.2,competitor,target,1,3.532
10,63,numeric,0.1,0.05,target,decoy,0,4.622
10,64,numeric,0.1,0.2,competitor,target,1,3.662
10,65,perceptual,0.1,0.2,target,target,1,3.086
10,66,perceptual,0.03,0.2,competitor,competitor,0,3.588
10,67,perceptual,0.1,0.2,target,competitor,0,3.524
10,68,numeric,0.1,0.05,competitor,competitor,0,4.549
10,69,numeric,0.03,0.2,target,target,1,8.736
10,70,perceptual,0.03,0.2,competitor,target,1,4.808
10,71,perceptual,0.03,0.2,target,target,1,9.33
10,72,perceptual,0.03,0.05,target,competitor,0,6.014
10,73,numeric,0.03,0.2,competitor,target,1,6.229
10,74,numeric,0.03,0.2,competitor,competitor,0,8.801
10,75,perceptual,0.03,0.05,competitor,decoy,0,3.479
10,76,perceptual,0.03,0.05,competitor,target,1,3.611
10,77,perceptual,0.1,0.2,target,target,1,5.427
10,78,perceptual,0.1,0.2,target,competitor,0,4.558
10,79,numeric,0.1,0.2,competitor,competitor,0,4.588
10,80,numeric,0.1,0.05,competitor,target,1,6.88
10,81,numeric,0.1,0.05,target,target,1,3.708
10,82,numeric,0.1,0.05,target,competitor,0,3.257
10,83,perceptual,0.1,0.05,target,decoy,0,9.674
10,84,numeric,0.03,0.05,competitor,competitor,0,4.909
10,85,numeric,0.03,0.05,target,target,1,5.758
10,86,numeric,0.1,0.2,competitor,target,1,8.021
10,87,numeric,0.1,0.05,target,target,1,4.581
10,88,perceptual,0.03,0.05,target,competitor,0,5.391
10,89,perceptual,0.1,0.05,competitor,competitor,0,4.16
10,90,numeric,0.1,0.2,target,target,1,8.448
10,91,numeric,0.03,0.05,competitor,competitor,0,6.928
10,92,perceptual,0.03,0.05,competitor,target,1,4.023
10,93,numeric,0.03,0.05,competitor,target,1,5.041
10,94,perceptual,0.03,0.2,target,competitor,0,4.284
10,95,perceptual,0.03,0.2,competitor,competitor,0,5.963
10,96,numeric,0.03,0.05,competitor,decoy,0,8.509
10,97,numeric,0.03,0.2,target,target,1,5
10,98,numeric,0.1,0.2,target,competitor,0,3.995
10,99,perceptual,0.03,0.2,competitor,competitor,0,3.68
10,100,perceptual,0.1,0.05,competitor,target,1,4.415
10,101,perceptual,0.03,0.05,competitor,target,1,4.882
10,102,perceptual,0.1,0.2,competitor,target,1,3.541
10,103,numeric,0.1,0.2,target,competitor,0,5.37
10,104,numeric,0.1,0.05,competitor,target,1,3.701
10,105,numeric,0.03,0.2,competitor,target,1,8.089
10,106,numeric,0.1,0.05,target,competitor,0,6.446
10,107,perceptual,0.1,0.2,target,competitor,0,2.991
10,108,numeric,0.1,0.05,competitor,target,1,5.421
10,109,numeric,0.03,0.05,competitor,competitor,0,7.366
10,110,perceptual,0.03,0.05,target,target,1,4.368
10,111,numeric,0.03,0.2,target,target,1,8.013
10,112,numeric,0.1,0.2,competitor,target,1,4.835
10,113,perceptual,0.03,0.2,target,competitor,0,3.74
10,114,perceptual,0.03,0.05,competitor,target,1,4.317
10,115,perceptual,0.1,0.05,target,target,1,4.483
10,116,numeric,0.03,0.2,competitor,target,1,7.185
10,117,perceptual,0.03,0.2,target,target,1,4.064
10,118,numeric,0.1,0.2,competitor,target,1,5.035
10,119,numeric,0.03,0.2,target,target,1,15.697
10,120,perceptual,0.03,0.05,target,target,1,5.706
10,121,numeric,0.03,0.2,target,competitor,0,3.678
10,122,perceptual,0.03,0.2,competitor,target,1,3.046
10,123,numeric,0.1,0.2,competitor,competitor,0,5.283
10,124,perceptual,0.1,0.05,target,target,1,3.537
10,125,perceptual,0.1,0.05,target,decoy,0,3.271
10,126,perceptual,0.1,0.2,target,target,1,7.025
10,127,numeric,0.1,0.2,competitor,competitor,0,6.436
10,128,numeric,0.03,0.2,target,target,1,11.247
10,129,numeric,0.1,0.05,target,competitor,0,3.83
10,130,perceptual,0.1,0.05,competitor,decoy,0,3.915
10,131,perceptual,0.1,0.05,competitor,target,1,3.51
10,132,numeric,0.03,0.2,target,target,1,5.413
10,133,perceptual,0.03,0.2,target,competitor,0,5.359
10,134,numeric,0.1,0.2,target,target,1,18.198
10,135,perceptual,0.03,0.2,target,target,1,3.104
10,136,numeric,0.1,0.2,target,target,1,4.997
10,137,numeric,0.03,0.05,target,competitor,0,8.637
10,138,numeric,0.1,0.05,competitor,target,1,8.675
10,139,numeric,0.03,0.2,target,target,1,5.455
10,140,perceptual,0.03,0.2,target,competitor,0,4.33
10,141,perceptual,0.03,0.2,target,target,1,3.332
10,142,perceptual,0.03,0.2,target,competitor,0,6.279
10,143,numeric,0.1,0.2,target,target,1,5.38
10,144,numeric,0.03,0.05,competitor,target,1,7.524
10,145,numeric,0.1,0.05,target,target,1,4.497
10,146,numeric,0.03,0.05,target,competitor,0,4.816
10,147,perceptual,0.03,0.2,target,competitor,0,3.087
10,148,perceptual,0.1,0.2,competitor,competitor,0,3.106
10,149,perceptual,0.1,0.2,target,competitor,0,4.237
10,150,perceptual,0.1,0.05,target,competitor,0,2.758
10,151,perceptual,0.1,0.2,competitor,target,1,3.252
10,152,numeric,0.03,0.05,target,target,1,4.885
10,153,perceptual,0.1,0.2,target,competitor,0,3.913
10,154,perceptual,0.03,0.2,competitor,competitor,0,5.498
10,155,numeric,0.03,0.05,competitor,target,1,4.198
10,156,perceptual,0.1,0.05,competitor,decoy,0,3.474
10,157,perceptual,0.1,0.05,target,target,1,5.254
10,158,numeric,0.1,0.2,competitor,target,1,5.19
10,159,perceptual,0.03,0.05,competitor,competitor,0,4.168
10,160,perceptual,0.1,0.2,target,target,1,3.006
10,161,perceptual,0.1,0.05,target,target,1,3.286
10,162,numeric,0.03,0.05,competitor,competitor,0,4.12
10,163,numeric,0.1,0.2,target,target,1,2.864
10,164,perceptual,0.1,0.05,competitor,target,1,2.931
10,165,perceptual,0.1,0.05,competitor,target,1,2.393
10,166,numeric,0.1,0.2,competitor,target,1,2.393
10,167,numeric,0.1,0.05,competitor,target,1,3.646
10,168,numeric,0.03,0.05,target,target,1,2.612
10,169,numeric,0.03,0.2,competitor,target,1,3.449
10,170,numeric,0.1,0.2,competitor,target,1,3.074
10,171,numeric,0.03,0.05,competitor,competitor,0,2.513
10,172,perceptual,0.03,0.05,competitor,competitor,0,2.237
10,173,numeric,0.1,0.05,target,decoy,0,3.374
10,174,numeric,0.1,0.05,competitor,competitor,0,2.287
10,175,perceptual,0.03,0.05,target,target,1,2.388
10,176,perceptual,0.1,0.2,competitor,decoy,0,2.759
10,177,perceptual,0.1,0.05,competitor,target,1,2.244
10,178,perceptual,0.03,0.05,competitor,decoy,0,1.895
10,179,perceptual,0.03,0.2,competitor,decoy,0,2.196
10,180,perceptual,0.1,0.2,target,competitor,0,2.011
10,181,numeric,0.1,0.05,competitor,competitor,0,4.25
10,182,perceptual,0.1,0.2,competitor,competitor,0,3.441
10,183,numeric,0.1,0.05,target,decoy,0,3.866
10,184,perceptual,0.1,0.2,target,target,1,2.303
10,185,numeric,0.03,0.05,target,competitor,0,3.312
10,186,numeric,0.03,0.2,competitor,target,1,5.603
10,187,perceptual,0.03,0.05,target,decoy,0,2.493
10,188,perceptual,0.1,0.05,competitor,competitor,0,2.362
10,189,numeric,0.03,0.05,target,target,1,6.274
10,190,perceptual,0.1,0.05,target,target,1,4.784
10,191,perceptual,0.03,0.2,competitor,decoy,0,2.375
10,192,perceptual,0.1,0.2,competitor,target,1,2.435
11,1,numeric,0.1,0.05,target,competitor,0,8.545
11,2,perceptual,0.1,0.05,competitor,target,1,6.388
11,3,perceptual,0.03,0.05,target,target,1,9.68
11,4,perceptual,0.03,0.2,competitor,competitor,0,7.358
11,5,numeric,0.03,0.05,target,target,1,8.042
11,6,numeric,0.1,0.2,target,target,1,5.797
11,7,numeric,0.03,0.2,competitor,competitor,0,9.622
11,8,perceptual,0.1,0.2,competitor,decoy,0,5.94
11,9,perceptual,0.1,0.2,competitor,target,1,8.737
11,10,numeric,0.1,0.05,target,target,1,9.966
11,11,perceptual,0.03,0.05,competitor,competitor,0,8.727
11,12,numeric,0.1,0.2,target,target,1,10.429
11,13,numeric,0.03,0.2,target,competitor,0,7.993
11,14,perceptual,0.1,0.05,target,competitor,0,5.134
11,15,numeric,0.03,0.2,competitor,competitor,0,8.351
11,16,numeric,0.03,0.2,competitor,competitor,0,13.189
11,17,numeric,0.1,0.05,competitor,target,1,7.711
11,18,numeric,0.03,0.2,competitor,decoy,0,12.012
11,19,perceptual,0.03,0.05,competitor,target,1,6.189
11,20,perceptual,0.1,0.2,target,competitor,0,4.81
11,21,perceptual,0.03,0.05,target,target,1,7.507
11,22,perceptual,0.03,0.05,competitor,competitor,0,7.578
11,23,numeric,0.1,0.05,target,target,1,10.039
11,24,numeric,0.1,0.05,competitor,competitor,0,8.644
11,25,perceptual,0.1,0.05,competitor,competitor,0,6.646
11,26,perceptual,0.03,0.05,target,target,1,8.539
11,27,numeric,0.1,0.2,competitor,target,1,6.466
11,28,perceptual,0.03,0.05,target,target,1,9.036
11,29,perceptual,0.1,0.2,competitor,decoy,0,5.455
11,30,numeric,0.1,0.2,target,competitor,0,12.371
11,31,numeric,0.1,0.05,target,decoy,0,8.279
11,32,perceptual,0.03,0.2,target,decoy,0,4.427
11,33,numeric,0.1,0.2,competitor,competitor,0,5.889
11,34,numeric,0.03,0.05,competitor,competitor,0,10.661
11,35,perceptual,0.1,0.2,target,target,1,4.204
11,36,perceptual,0.1,0.2,target,decoy,0,6.561
11,37,numeric,0.1,0.2,competitor,target,1,7.021
11,38,perceptual,0.03,0.2,competitor,competitor,0,7.127
11,39,numeric,0.03,0.05,target,target,1,7.195
11,40,numeric,0.1,0.05,target,target,1,8.032
11,41,numeric,0.03,0.2,target,target,1,8.435
11,42,numeric,0.03,0.05,target,target,1,15.076
11,43,numeric,0.03,0.2,target,target,1,8.363
11,44,numeric,0.03,0.2,target,target,1,7.094
11,45,numeric,0.03,0.05,target,competitor,0,5.043
11,46,numeric,0.1,0.2,competitor,target,1,11.115
11,47,perceptual,0.1,0.05,competitor,target,1,5.818
11,48,perceptual,0.1,0.2,target,target,1,6.738
11,49,perceptual,0.03,0.05,target,decoy,0,5.238
11,50,perceptual,0.1,0.05,target,decoy,0,5.778
11,51,perceptual,0.1,0.05,competitor,decoy,0,4.845
11,52,numeric,0.1,0.2,target,competitor,0,6.26
11,53,numeric,0.03,0.2,target,target,1,9.966
11,54,numeric,0.03,0.05,competitor,target,1,8.093
11,55,perceptual,0.1,0.05,target,decoy,0,4.855
11,56,perceptual,0.03,0.2,competitor,decoy,0,5.309
11,57,numeric,0.03,0.05,competitor,target,1,11.291
11,58,numeric,0.1,0.05,target,target,1,8.196
11,59,numeric,0.03,0.2,target,competitor,0,6.449
11,60,numeric,0.03,0.2,target,target,1,14.003
11,61,perceptual,0.03,0.05,target,target,1,5.904
11,62,perceptual,0.03,0.2,competitor,target,1,4.324
11,63,perceptual,0.03,0.05,competitor,target,1,3.584
11,64,numeric,0.1,0.2,competitor,target,1,12.457
11,65,perceptual,0.03,0.05,competitor,competitor,0,6.22
11,66,perceptual,0.1,0.2,competitor,competitor,0,6.841
11,67,perceptual,0.1,0.05,target,decoy,0,5.212
11,68,numeric,0.03,0.2,competitor,competitor,0,5.849
11,69,numeric,0.03,0.2,target,target,1,4.256
11,70,numeric,0.03,0.05,competitor,target,1,12.032
11,71,perceptual,0.03,0.2,target,target,1,6.626
11,72,perceptual,0.1,0.2,target,target,1,9.792
11,73,numeric,0.03,0.05,competitor,competitor,0,6.589
11,74,perceptual,0.03,0.05,competitor,decoy,0,4.383
11,75,perceptual,0.1,0.2,competitor,target,1,3.506
11,76,numeric,0.03,0.2,competitor,target,1,6.893
11,77,numeric,0.03,0.2,target,target,1,9.093
11,78,numeric,0.03,0.2,competitor,target,1,6.134
11,79,numeric,0.1,0.05,competitor,target,1,10.987
11,80,perceptual,0.1,0.05,target,decoy,0,6.938
11,81,numeric,0.1,0.05,competitor,target,1,5.719
11,82,numeric,0.03,0.05,target,competitor,0,5.665
11,83,perceptual,0.1,0.2,target,target,1,8.937
11,84,perceptual,0.03,0.2,target,target,1,4.296
11,85,numeric,0.1,0.2,target,target,1,6.297
11,86,numeric,0.1,0.05,competitor,target,1,10.109
11,87,perceptual,0.1,0.05,competitor,target,1,7.179
11,88,perceptual,0.03,0.2,competitor,target,1,5.291
11,89,perceptual,0.1,0.05,competitor,target,1,9.689
11,90,perceptual,0.1,0.05,competitor,target,1,7.925
11,91,perceptual,0.03,0.05,competitor,target,1,11.615
11,92,numeric,0.03,0.05,target,competitor,0,7.454
11,93,perceptual,0.03,0.2,competitor,target,1,13.968
11,94,perceptual,0.1,0.2,competitor,target,1,4.173
11,95,perceptual,0.03,0.2,competitor,competitor,0,6.455
11,96,numeric,0.03,0.2,target,competitor,0,5.194
11,97,numeric,0.1,0.2,competitor,competitor,0,8.586
11,98,numeric,0.1,0.05,target,competitor,0,9.904
11,99,perceptual,0.03,0.05,target,target,1,5.567
11,100,perceptual,0.1,0.05,target,target,1,5.28
11,101,perceptual,0.03,0.2,target,competitor,0,6.553
11,102,numeric,0.03,0.05,competitor,competitor,0,9.32
11,103,numeric,0.03,0.2,competitor,competitor,0,5.98
11,104,perceptual,0.03,0.05,target,target,1,4.04
11,105,numeric,0.1,0.2,target,target,1,13.142
11,106,numeric,0.03,0.2,competitor,competitor,0,8.697
11,107,numeric,0.1,0.05,competitor,target,1,5.565
11,108,numeric,0.1,0.2,competitor,competitor,0,11.707
11,109,perceptual,0.1,0.2,competitor,target,1,6.052
11,110,numeric,0.03,0.05,target,target,1,6.733
11,111,numeric,0.03,0.05,target,target,1,11.063
11,112,perceptual,0.1,0.05,competitor,target,1,8.293
11,113,perceptual,0.03,0.05,target,competitor,0,6.351
11,114,perceptual,0.1,0.05,target,target,1,8.939
11,115,numeric,0.1,0.05,competitor,decoy,0,9.826
11,116,perceptual,0.03,0.05,competitor,decoy,0,4.482
11,117,numeric,0.1,0.05,competitor,target,1,7.735
11,118,perceptual,0.1,0.2,competitor,target,1,8.185
11,119,perceptual,0.1,0.05,target,target,1,9.142
11,120,numeric,0.1,0.05,target,target,1,5.06
11,121,numeric,0.1,0.2,target,competitor,0,15.421
11,122,perceptual,0.1,0.2,target,target,1,3.946
11,123,perceptual,0.03,0.2,target,competitor,0,7.281
11,124,perceptual,0.03,0.2,target,target,1,7.092
11,125,perceptual,0.03,0.05,competitor,competitor,0,4.565
