participant,trial_counter,condition,target_to_competitor,decoy_reduction,decoy_on,chosen_item,correct,rt
1,1,perceptual,0.1,0.05,target,competitor,0,8.789
1,2,numeric,0.1,0.05,competitor,target,1,11.558
1,3,numeric,0.03,0.05,competitor,competitor,0,11.009
1,4,perceptual,0.1,0.05,competitor,competitor,0,9.165
1,5,numeric,0.1,0.05,competitor,target,1,8.781
1,6,numeric,0.1,0.05,competitor,target,1,8.239
1,7,perceptual,0.1,0.2,target,decoy,0,7.205
1,8,numeric,0.1,0.05,target,target,1,12.584
1,9,numeric,0.1,0.05,competitor,target,1,6.903
1,10,perceptual,0.1,0.2,competitor,target,1,5.977
1,11,numeric,0.03,0.05,target,competitor,0,11.016
1,12,perceptual,0.03,0.2,competitor,target,1,9.81
1,13,numeric,0.03,0.05,competitor,target,1,11.533
1,14,perceptual,0.03,0.05,target,competitor,0,11.903
1,15,numeric,0.1,0.2,target,target,1,8.085
1,16,perceptual,0.1,0.05,competitor,target,1,8.512
1,17,perceptual,0.1,0.2,competitor,competitor,0,10.692
1,18,numeric,0.03,0.2,target,competitor,0,14.387
1,19,perceptual,0.1,0.2,target,competitor,0,6.448
1,20,numeric,0.1,0.2,target,target,1,9.848
1,21,numeric,0.1,0.05,target,target,1,10.286
1,22,numeric,0.1,0.2,competitor,decoy,0,7.27
1,23,perceptual,0.1,0.2,competitor,target,1,7.513
1,24,perceptual,0.1,0.05,competitor,target,1,8.238
1,25,perceptual,0.03,0.2,competitor,competitor,0,13.912
1,26,numeric,0.03,0.2,competitor,competitor,0,8.286
1,27,perceptual,0.03,0.2,target,decoy,0,4.846
1,28,numeric,0.03,0.2,target,target,1,6.608
1,29,numeric,0.03,0.2,target,target,1,12.443
1,30,numeric,0.1,0.2,target,target,1,9.986
1,31,perceptual,0.03,0.05,competitor,competitor,0,6.555
1,32,perceptual,0.1,0.2,competitor,decoy,0,5.117
1,33,numeric,0.1,0.05,competitor,target,1,7.769
1,34,perceptual,0.03,0.05,target,target,1,10.105
1,35,perceptual,0.03,0.05,target,competitor,0,5.058
1,36,numeric,0.1,0.2,competitor,competitor,0,10.649
1,37,numeric,0.1,0.05,target,target,1,8.743
1,38,perceptual,0.03,0.2,target,target,1,5.947
1,39,perceptual,0.03,0.2,target,competitor,0,4.697
1,40,perceptual,0.1,0.2,target,target,1,7.37
1,41,numeric,0.03,0.05,target,target,1,14.616
1,42,numeric,0.03,0.2,competitor,decoy,0,11.597
1,43,perceptual,0.1,0.05,competitor,decoy,0,9.201
1,44,numeric,0.03,0.2,competitor,competitor,0,12.102
1,45,perceptual,0.03,0.2,competitor,competitor,0,7.687
1,46,perceptual,0.1,0.2,target,competitor,0,4.657
1,47,numeric,0.1,0.2,competitor,target,1,10.298
1,48,numeric,0.1,0.2,competitor,target,1,8.848
1,49,numeric,0.1,0.05,competitor,target,1,10.283
1,50,numeric,0.03,0.05,competitor,competitor,0,10.025
1,51,numeric,0.1,0.05,competitor,target,1,7.345
1,52,perceptual,0.1,0.05,target,target,1,7.576
1,53,perceptual,0.03,0.2,competitor,decoy,0,10.646
1,54,perceptual,0.03,0.2,target,competitor,0,5.152
1,55,perceptual,0.03,0.05,competitor,target,1,3.632
1,56,numeric,0.1,0.2,competitor,decoy,0,5.364
1,57,numeric,0.1,0.2,target,competitor,0,10.878
1,58,numeric,0.03,0.2,competitor,target,1,5.726
1,59,numeric,0.1,0.05,competitor,target,1,3.32
1,60,perceptual,0.1,0.05,target,target,1,6.108
1,61,perceptual,0.03,0.2,target,competitor,0,3.891
1,62,numeric,0.1,0.2,competitor,target,1,9.545
1,63,perceptual,0.1,0.05,target,target,1,6.501
1,64,numeric,0.03,0.2,competitor,target,1,4.768
1,65,perceptual,0.1,0.2,competitor,competitor,0,4.653
1,66,numeric,0.1,0.2,target,competitor,0,4.601
1,67,numeric,0.03,0.2,target,competitor,0,4.802
1,68,numeric,0.03,0.2,target,decoy,0,4.941
1,69,perceptual,0.03,0.05,competitor,competitor,0,4.301
1,70,perceptual,0.03,0.05,target,competitor,0,3.539
1,71,perceptual,0.03,0.05,target,target,1,7.075
1,72,perceptual,0.1,0.05,competitor,target,1,3.531
1,73,numeric,0.03,0.05,target,target,1,5.872
1,74,perceptual,0.03,0.2,target,target,1,4.241
1,75,numeric,0.03,0.2,target,target,1,10.474
1,76,numeric,0.1,0.2,competitor,target,1,8.634
1,77,perceptual,0.1,0.05,competitor,target,1,3.718
1,78,numeric,0.1,0.2,competitor,competitor,0,6.208
1,79,perceptual,0.1,0.2,target,target,1,3.415
1,80,perceptual,0.1,0.2,competitor,competitor,0,9.269
1,81,perceptual,0.03,0.05,target,decoy,0,8.041
1,82,perceptual,0.1,0.05,target,target,1,10.089
1,83,numeric,0.03,0.2,target,target,1,5.77
1,84,perceptual,0.03,0.05,competitor,decoy,0,5.705
1,85,numeric,0.03,0.2,competitor,target,1,6.219
1,86,perceptual,0.03,0.05,competitor,competitor,0,4.221
1,87,perceptual,0.03,0.05,competitor,decoy,0,5.805
1,88,numeric,0.03,0.05,competitor,competitor,0,4.852
1,89,perceptual,0.03,0.2,competitor,competitor,0,3.452
1,90,numeric,0.1,0.05,target,competitor,0,4.714
1,91,perceptual,0.03,0.2,target,decoy,0,4.378
1,92,numeric,0.1,0.2,target,target,1,11.361
1,93,perceptual,0.03,0.2,target,target,1,6.785
1,94,numeric,0.03,0.2,competitor,target,1,7.71
1,95,numeric,0.1,0.05,competitor,target,1,5.255
1,96,perceptual,0.1,0.2,target,decoy,0,4.559
1,97,numeric,0.1,0.05,target,competitor,0,7.634
1,98,perceptual,0.1,0.2,target,target,1,4.882
1,99,perceptual,0.1,0.05,competitor,competitor,0,5.524
1,100,perceptual,0.1,0.05,target,competitor,0,3.043
1,101,numeric,0.03,0.05,target,target,1,5.08
1,102,numeric,0.03,0.05,target,competitor,0,5.172
1,103,perceptual,0.03,0.2,competitor,target,1,4.757
1,104,perceptual,0.03,0.05,target,target,1,4.83
1,105,numeric,0.1,0.05,target,competitor,0,4.486
1,106,perceptual,0.1,0.05,target,target,1,3.721
1,107,numeric,0.03,0.05,target,competitor,0,3.43
1,108,perceptual,0.1,0.05,competitor,competitor,0,5.248
1,109,numeric,0.1,0.05,target,competitor,0,12.121
1,110,perceptual,0.1,0.2,competitor,target,1,4.22
1,111,perceptual,0.03,0.05,target,target,1,4.718
1,112,numeric,0.1,0.2,target,target,1,3.961
1,113,numeric,0.1,0.2,target,target,1,3.771
1,114,numeric,0.1,0.2,competitor,target,1,4.244
1,115,perceptual,0.03,0.05,competitor,target,1,4.034
1,116,numeric,0.1,0.05,target,decoy,0,5.256
1,117,numeric,0.03,0.2,target,decoy,0,2.575
1,118,perceptual,0.03,0.05,competitor,competitor,0,5.584
1,119,numeric,0.1,0.05,competitor,competitor,0,6.342
1,120,perceptual,0.03,0.2,competitor,target,1,7.707
1,121,numeric,0.1,0.2,competitor,target,1,4.271
1,122,perceptual,0.1,0.2,target,competitor,0,2.956
1,123,numeric,0.03,0.2,competitor,competitor,0,3.588
1,124,numeric,0.03,0.2,competitor,target,1,9.838
1,125,perceptual,0.03,0.2,competitor,decoy,0,6.925
1,126,perceptual,0.1,0.2,target,target,1,4.146
1,127,numeric,0.03,0.05,competitor,target,1,2.753
1,128,numeric,0.1,0.2,competitor,competitor,0,3.989
1,129,perceptual,0.1,0.2,competitor,competitor,0,5.041
1,130,perceptual,0.1,0.2,competitor,target,1,4.981
1,131,perceptual,0.1,0.2,target,competitor,0,5.314
1,132,numeric,0.03,0.2,competitor,competitor,0,4.249
1,133,perceptual,0.03,0.2,competitor,target,1,3.196
1,134,numeric,0.03,0.2,target,decoy,0,6.26
1,135,perceptual,0.1,0.2,target,target,1,4.574
1,136,perceptual,0.1,0.2,target,competitor,0,8.71
1,137,numeric,0.1,0.05,competitor,competitor,0,8.836
1,138,numeric,0.1,0.2,target,target,1,9.641
1,139,perceptual,0.1,0.05,target,target,1,6.229
1,140,perceptual,0.03,0.2,target,target,1,7.813
1,141,numeric,0.1,0.05,target,target,1,5.792
1,142,numeric,0.03,0.05,target,decoy,0,4.228
1,143,numeric,0.03,0.05,competitor,competitor,0,8.544
1,144,perceptual,0.1,0.2,competitor,target,1,2.996
1,145,perceptual,0.03,0.2,target,target,1,4.017
1,146,perceptual,0.1,0.05,competitor,target,1,2.892
1,147,numeric,0.03,0.05,competitor,decoy,0,3.744
1,148,numeric,0.03,0.05,competitor,target,1,3.388
1,149,numeric,0.1,0.2,competitor,decoy,0,2.793
1,150,perceptual,0.1,0.05,target,decoy,0,3.995
1,151,perceptual,0.1,0.05,target,competitor,0,3.743
1,152,perceptual,0.1,0.05,competitor,target,1,2.473
1,153,numeric,0.03,0.05,target,competitor,0,3.601
1,154,numeric,0.03,0.05,competitor,competitor,0,2.894
1,155,numeric,0.03,0.05,target,decoy,0,4.844
1,156,perceptual,0.1,0.05,competitor,target,1,6.764
1,157,numeric,0.03,0.2,target,competitor,0,3.757
1,158,numeric,0.03,0.2,competitor,target,1,2.681
1,159,numeric,0.03,0.05,target,target,1,3.272
1,160,numeric,0.03,0.2,competitor,competitor,0,3.502
1,161,numeric,0.03,0.05,target,competitor,0,3.223
1,162,numeric,0.1,0.05,target,decoy,0,2.501
1,163,numeric,0.03,0.2,target,target,1,2.265
1,164,numeric,0.03,0.05,competitor,competitor,0,3.666
1,165,perceptual,0.03,0.2,target,target,1,3.058
1,166,perceptual,0.1,0.05,competitor,target,1,2.053
1,167,perceptual,0.03,0.05,target,target,1,6.224
1,168,numeric,0.03,0.05,competitor,competitor,0,3.253
1,169,numeric,0.1,0.2,target,competitor,0,3.543
1,170,numeric,0.1,0.05,competitor,target,1,3.483
1,171,perceptual,0.03,0.2,competitor,target,1,2.933
1,172,numeric,0.1,0.05,target,target,1,3.645
1,173,perceptual,0.1,0.05,target,competitor,0,5.786
1,174,numeric,0.03,0.05,target,competitor,0,3.65
1,175,perceptual,0.03,0.05,target,competitor,0,2.9
1,176,perceptual,0.03,0.2,competitor,competitor,0,2.358
1,177,perceptual,0.03,0.2,competitor,target,1,3.349
1,178,perceptual,0.03,0.05,competitor,target,1,4.091
1,179,perceptual,0.03,0.05,competitor,competitor,0,2.866
1,180,numeric,0.1,0.2,target,target,1,2.702
1,181,perceptual,0.03,0.05,target,target,1,3.283
1,182,perceptual,0.1,0.2,competitor,decoy,0,5.166
1,183,perceptual,0.03,0.05,competitor,target,1,4.03
1,184,perceptual,0.1,0.05,target,decoy,0,6.131
1,185,numeric,0.1,0.2,target,target,1,3.426
1,186,perceptual,0.1,0.2,competitor,decoy,0,4.525
1,187,perceptual,0.03,0.2,target,competitor,0,3.464
1,188,numeric,0.03,0.2,target,target,1,5.04
1,189,perceptual,0.03,0.05,target,competitor,0,4.89
1,190,perceptual,0.03,0.05,competitor,decoy,0,4.6
1,191,numeric,0.1,0.05,target,target,1,7.805
1,192,numeric,0.03,0.05,competitor,competitor,0,6.893
2,1,perceptual,0.03,0.05,target,decoy,0,9.424
2,2,perceptual,0.1,0.05,target,target,1,9.45
2,3,numeric,0.1,0.05,target,decoy,0,10.441
2,4,numeric,0.1,0.05,target,competitor,0,8.637
2,5,numeric,0.03,0.2,target,target,1,15.689
2,6,perceptual,0.1,0.05,competitor,target,1,5.874
2,7,numeric,0.03,0.05,competitor,competitor,0,7.178
2,8,numeric,0.03,0.05,target,target,1,9.003
2,9,perceptual,0.03,0.2,competitor,competitor,0,4.86
2,10,perceptual,0.03,0.2,competitor,target,1,9.861
2,11,numeric,0.1,0.05,competitor,target,1,7.525
2,12,numeric,0.1,0.2,target,target,1,5.848
2,13,perceptual,0.1,0.05,competitor,competitor,0,6.02
2,14,perceptual,0.03,0.2,target,target,1,4.936
2,15,numeric,0.03,0.05,competitor,competitor,0,8.652
2,16,numeric,0.03,0.05,target,decoy,0,6.429
2,17,perceptual,0.1,0.2,competitor,target,1,4.353
2,18,numeric,0.1,0.2,target,competitor,0,4.53
2,19,numeric,0.03,0.2,competitor,target,1,6.304
2,20,perceptual,0.1,0.05,target,competitor,0,5.494
2,21,numeric,0.03,0.05,target,target,1,4.304
2,22,numeric,0.03,0.2,competitor,competitor,0,4.938
2,23,numeric,0.1,0.2,competitor,target,1,4.558
2,24,numeric,0.03,0.2,target,competitor,0,4.478
2,25,numeric,0.03,0.05,competitor,decoy,0,9.285
2,26,perceptual,0.03,0.2,competitor,target,1,4.468
2,27,numeric,0.1,0.05,competitor,target,1,8.221
2,28,perceptual,0.03,0.05,target,competitor,0,4.815
2,29,numeric,0.03,0.2,competitor,target,1,4.913
2,30,numeric,0.1,0.2,target,competitor,0,3.64
2,31,numeric,0.1,0.05,target,competitor,0,4.908
2,32,numeric,0.1,0.2,target,target,1,4.706
2,33,perceptual,0.03,0.05,target,decoy,0,2.978
2,34,perceptual,0.1,0.2,target,competitor,0,3.331
2,35,perceptual,0.03,0.05,competitor,target,1,13.111
2,36,perceptual,0.1,0.2,competitor,target,1,6.715
2,37,numeric,0.03,0.2,target,target,1,6.245
2,38,numeric,0.03,0.05,target,target,1,16.291
2,39,numeric,0.03,0.05,target,competitor,0,7.182
2,40,numeric,0.1,0.2,competitor,competitor,0,9.08
2,41,perceptual,0.1,0.05,target,competitor,0,6.114
2,42,numeric,0.1,0.05,competitor,decoy,0,11.876
2,43,perceptual,0.03,0.05,target,target,1,11.371
2,44,numeric,0.1,0.05,competitor,competitor,0,15.354
2,45,numeric,0.1,0.2,target,target,1,9.037
2,46,numeric,0.03,0.2,competitor,competitor,0,15.564
2,47,perceptual,0.1,0.2,competitor,target,1,6.662
2,48,perceptual,0.1,0.2,competitor,target,1,5.718
2,49,perceptual,0.1,0.2,competitor,target,1,4.518
2,50,perceptual,0.1,0.05,target,decoy,0,7.945
2,51,perceptual,0.03,0.05,competitor,target,1,5.43
2,52,numeric,0.03,0.2,competitor,competitor,0,4.92
2,53,numeric,0.03,0.2,competitor,target,1,5.487
2,54,perceptual,0.03,0.05,competitor,target,1,6.419
2,55,perceptual,0.1,0.05,competitor,target,1,3.185
2,56,perceptual,0.03,0.2,competitor,target,1,9.863
2,57,perceptual,0.03,0.05,target,competitor,0,14.569
2,58,perceptual,0.03,0.05,competitor,competitor,0,3.805
2,59,perceptual,0.03,0.05,target,target,1,3.624
2,60,perceptual,0.03,0.2,target,target,1,3.64
2,61,numeric,0.03,0.2,target,target,1,8.722
2,62,perceptual,0.1,0.2,competitor,target,1,3.532
2,63,numeric,0.1,0.05,target,decoy,0,4.622
2,64,numeric,0.1,0.2,competitor,target,1,3.662
2,65,perceptual,0.1,0.2,target,target,1,3.086
2,66,perceptual,0.03,0.2,competitor,competitor,0,3.588
2,67,perceptual,0.1,0.2,target,competitor,0,3.524
2,68,numeric,0.1,0.05,competitor,competitor,0,4.549
2,69,numeric,0.03,0.2,target,target,1,8.736
2,70,perceptual,0.03,0.2,competitor,target,1,4.808
2,71,perceptual,0.03,0.2,target,target,1,9.33
2,72,perceptual,0.03,0.05,target,competitor,0,6.014
2,73,numeric,0.03,0.2,competitor,target,1,6.229
2,74,numeric,0.03,0.2,competitor,competitor,0,8.801
2,75,perceptual,0.03,0.05,competitor,decoy,0,3.479
2,76,perceptual,0.03,0.05,competitor,target,1,3.611
2,77,perceptual,0.1,0.2,target,target,1,5.427
2,78,perceptual,0.1,0.2,target,competitor,0,4.558
2,79,numeric,0.1,0.2,competitor,competitor,0,4.588
2,80,numeric,0.1,0.05,competitor,target,1,6.88
2,81,numeric,0.1,0.05,target,target,1,3.708
2,82,numeric,0.1,0.05,target,competitor,0,3.257
2,83,perceptual,0.1,0.05,target,decoy,0,9.674
2,84,numeric,0.03,0.05,competitor,competitor,0,4.909
2,85,numeric,0.03,0.05,target,target,1,5.758
2,86,numeric,0.1,0.2,competitor,target,1,8.021
2,87,numeric,0.1,0.05,target,target,1,4.581
2,88,perceptual,0.03,0.05,target,competitor,0,5.391
2,89,perceptual,0.1,0.05,competitor,competitor,0,4.16
2,90,numeric,0.1,0.2,target,target,1,8.448
2,91,numeric,0.03,0.05,competitor,competitor,0,6.928
2,92,perceptual,0.03,0.05,competitor,target,1,4.023
2,93,numeric,0.03,0.05,competitor,target,1,5.041
2,94,perceptual,0.03,0.2,target,competitor,0,4.284
2,95,perceptual,0.03,0.2,competitor,competitor,0,5.963
2,96,numeric,0.03,0.05,competitor,decoy,0,8.509
2,97,numeric,0.03,0.2,target,target,1,5
2,98,numeric,0.1,0.2,target,competitor,0,3.995
2,99,perceptual,0.03,0.2,competitor,competitor,0,3.68
2,100,perceptual,0.1,0.05,competitor,target,1,4.415
2,101,perceptual,0.03,0.05,competitor,target,1,4.882
2,102,perceptual,0.1,0.2,competitor,target,1,3.541
2,103,numeric,0.1,0.2,target,competitor,0,5.37
2,104,numeric,0.1,0.05,competitor,target,1,3.701
2,105,numeric,0.03,0.2,competitor,target,1,8.089
2,106,numeric,0.1,0.05,target,competitor,0,6.446
2,107,perceptual,0.1,0.2,target,competitor,0,2.991
2,108,numeric,0.1,0.05,competitor,target,1,5.421
2,109,numeric,0.03,0.05,competitor,competitor,0,7.366
2,110,perceptual,0.03,0.05,target,target,1,4.368
2,111,numeric,0.03,0.2,target,target,1,8.013
2,112,numeric,0.1,0.2,competitor,target,1,4.835
2,113,perceptual,0.03,0.2,target,competitor,0,3.74
2,114,perceptual,0.03,0.05,competitor,target,1,4.317
2,115,perceptual,0.1,0.05,target,target,1,4.483
2,116,numeric,0.03,0.2,competitor,target,1,7.185
2,117,perceptual,0.03,0.2,target,target,1,4.064
2,118,numeric,0.1,0.2,competitor,target,1,5.035
2,119,numeric,0.03,0.2,target,target,1,15.697
2,120,perceptual,0.03,0.05,target,target,1,5.706
2,121,numeric,0.03,0.2,target,competitor,0,3.678
2,122,perceptual,0.03,0.2,competitor,target,1,3.046
2,123,numeric,0.1,0.2,competitor,competitor,0,5.283
2,124,perceptual,0.1,0.05,target,target,1,3.537
2,125,perceptual,0.1,0.05,target,decoy,0,3.271
2,126,perceptual,0.1,0.2,target,target,1,7.025
2,127,numeric,0.1,0.2,competitor,competitor,0,6.436
2,128,numeric,0.03,0.2,target,target,1,11.247
2,129,numeric,0.1,0.05,target,competitor,0,3.83
2,130,perceptual,0.1,0.05,competitor,decoy,0,3.915
2,131,perceptual,0.1,0.05,competitor,target,1,3.51
2,132,numeric,0.03,0.2,target,target,1,5.413
2,133,perceptual,0.03,0.2,target,competitor,0,5.359
2,134,numeric,0.1,0.2,target,target,1,18.198
2,135,perceptual,0.03,0.2,target,target,1,3.104
2,136,numeric,0.1,0.2,target,target,1,4.997
2,137,numeric,0.03,0.05,target,competitor,0,8.637
2,138,numeric,0.1,0.05,competitor,target,1,8.675
2,139,numeric,0.03,0.2,target,target,1,5.455
2,140,perceptual,0.03,0.2,target,competitor,0,4.33
2,141,perceptual,0.03,0.2,target,target,1,3.332
2,142,perceptual,0.03,0.2,target,competitor,0,6.279
2,143,numeric,0.1,0.2,target,target,1,5.38
2,144,numeric,0.03,0.05,competitor,target,1,7.524
2,145,numeric,0.1,0.05,target,target,1,4.497
2,146,numeric,0.03,0.05,target,competitor,0,4.816
2,147,perceptual,0.03,0.2,target,competitor,0,3.087
2,148,perceptual,0.1,0.2,competitor,competitor,0,3.106
2,149,perceptual,0.1,0.2,target,competitor,0,4.237
2,150,perceptual,0.1,0.05,target,competitor,0,2.758
2,151,perceptual,0.1,0.2,competitor,target,1,3.252
2,152,numeric,0.03,0.05,target,target,1,4.885
2,153,perceptual,0.1,0.2,target,competitor,0,3.913
2,154,perceptual,0.03,0.2,competitor,competitor,0,5.498
2,155,numeric,0.03,0.05,competitor,target,1,4.198
2,156,perceptual,0.1,0.05,competitor,decoy,0,3.474
2,157,perceptual,0.1,0.05,target,target,1,5.254
2,158,numeric,0.1,0.2,competitor,target,1,5.19
2,159,perceptual,0.03,0.05,competitor,competitor,0,4.168
2,160,perceptual,0.1,0.2,target,target,1,3.006
2,161,perceptual,0.1,0.05,target,target,1,3.286
2,162,numeric,0.03,0.05,competitor,competitor,0,4.12
2,163,numeric,0.1,0.2,target,target,1,2.864
2,164,perceptual,0.1,0.05,competitor,target,1,2.931
2,165,perceptual,0.1,0.05,competitor,target,1,2.393
2,166,numeric,0.1,0.2,competitor,target,1,2.393
2,167,numeric,0.1,0.05,competitor,target,1,3.646
2,168,numeric,0.03,0.05,target,target,1,2.612
2,169,numeric,0.03,0.2,competitor,target,1,3.449
2,170,numeric,0.1,0.2,competitor,target,1,3.074
2,171,numeric,0.03,0.05,competitor,competitor,0,2.513
2,172,perceptual,0.03,0.05,competitor,competitor,0,2.237
2,173,numeric,0.1,0.05,target,decoy,0,3.374
2,174,numeric,0.1,0.05,competitor,competitor,0,2.287
2,175,perceptual,0.03,0.05,target,target,1,2.388
2,176,perceptual,0.1,0.2,competitor,decoy,0,2.759
2,177,perceptual,0.1,0.05,competitor,target,1,2.244
2,178,perceptual,0.03,0.05,competitor,decoy,0,1.895
2,179,perceptual,0.03,0.2,competitor,decoy,0,2.196
2,180,perceptual,0.1,0.2,target,competitor,0,2.011
2,181,numeric,0.1,0.05,competitor,competitor,0,4.25
2,182,perceptual,0.1,0.2,competitor,competitor,0,3.441
2,183,numeric,0.1,0.05,target,decoy,0,3.866
2,184,perceptual,0.1,0.2,target,target,1,2.303
2,185,numeric,0.03,0.05,target,competitor,0,3.312
2,186,numeric,0.03,0.2,competitor,target,1,5.603
2,187,perceptual,0.03,0.05,target,decoy,0,2.493
2,188,perceptual,0.1,0.05,competitor,competitor,0,2.362
2,189,numeric,0.03,0.05,target,target,1,6.274
2,190,perceptual,0.1,0.05,target,target,1,4.784
2,191,perceptual,0.03,0.2,competitor,decoy,0,2.375
2,192,perceptual,0.1,0.2,competitor,target,1,2.435
3,1,perceptual,0.03,0.05,target,target,1,8.223
3,2,perceptual,0.1,0.05,target,target,1,4.552
3,3,numeric,0.1,0.2,target,target,1,5.882
3,4,perceptual,0.1,0.2,competitor,target,1,5.027
3,5,numeric,0.03,0.05,target,target,1,6.473
3,6,numeric,0.1,0.2,target,target,1,7.816
3,7,perceptual,0.1,0.2,target,target,1,5.036
3,8,perceptual,0.03,0.2,target,target,1,7.865
3,9,numeric,0.03,0.2,target,target,1,6.283
3,10,numeric,0.1,0.2,competitor,target,1,7.5
3,11,numeric,0.1,0.2,competitor,target,1,5.149
3,12,numeric,0.03,0.2,target,competitor,0,10.17
3,13,numeric,0.03,0.05,target,target,1,7.757
3,14,numeric,0.1,0.05,competitor,target,1,7.516
3,15,numeric,0.1,0.05,target,target,1,9.553
3,16,perceptual,0.1,0.05,competitor,target,1,5.733
3,17,perceptual,0.1,0.05,target,target,1,4.24
3,18,perceptual,0.1,0.2,competitor,target,1,4.764
3,19,perceptual,0.03,0.05,target,target,1,4.973
3,20,perceptual,0.03,0.2,target,target,1,3.915
3,21,numeric,0.1,0.05,competitor,target,1,6.566
3,22,numeric,0.1,0.2,target,target,1,7.373
3,23,perceptual,0.03,0.05,competitor,target,1,7.713
3,24,numeric,0.03,0.05,competitor,target,1,8.084
3,25,perceptual,0.1,0.2,competitor,target,1,6.1
3,26,perceptual,0.03,0.05,competitor,target,1,10.371
3,27,numeric,0.1,0.05,competitor,competitor,0,7.013
3,28,numeric,0.1,0.05,target,competitor,0,10.15
3,29,numeric,0.03,0.05,target,target,1,8.254
3,30,perceptual,0.03,0.05,target,target,1,6.566
3,31,perceptual,0.1,0.2,competitor,competitor,0,5.932
3,32,perceptual,0.03,0.05,competitor,target,1,5.723
3,33,perceptual,0.03,0.2,target,target,1,5.489
3,34,numeric,0.03,0.2,target,target,1,8.917
3,35,numeric,0.03,0.2,competitor,competitor,0,10.589
3,36,perceptual,0.03,0.2,competitor,competitor,0,6.982
3,37,numeric,0.1,0.05,competitor,target,1,5.832
3,38,perceptual,0.03,0.05,competitor,target,1,8.509
3,39,perceptual,0.03,0.05,target,decoy,0,8.241
3,40,perceptual,0.03,0.05,competitor,competitor,0,7.897
3,41,numeric,0.03,0.05,target,target,1,8.055
3,42,perceptual,0.03,0.2,competitor,target,1,9.633
3,43,perceptual,0.03,0.2,target,competitor,0,7.127
3,44,perceptual,0.1,0.2,target,target,1,8.515
3,45,perceptual,0.1,0.05,competitor,target,1,5.916
3,46,perceptual,0.1,0.05,target,target,1,5.834
3,47,perceptual,0.1,0.2,target,competitor,0,9.051
3,48,numeric,0.03,0.2,target,target,1,6.548
3,49,perceptual,0.03,0.2,target,target,1,3.572
3,50,perceptual,0.1,0.05,competitor,decoy,0,3.531
3,51,perceptual,0.03,0.05,target,decoy,0,9.068
3,52,perceptual,0.03,0.05,target,target,1,11.55
3,53,perceptual,0.1,0.2,target,decoy,0,6.11
3,54,perceptual,0.03,0.05,target,competitor,0,8.567
3,55,numeric,0.1,0.2,competitor,competitor,0,7.046
3,56,perceptual,0.03,0.2,competitor,target,1,9.782
3,57,perceptual,0.1,0.05,competitor,target,1,5.183
3,58,numeric,0.1,0.05,target,target,1,7.073
3,59,numeric,0.1,0.2,competitor,competitor,0,8.868
3,60,perceptual,0.1,0.2,target,target,1,4.947
3,61,perceptual,0.03,0.2,target,competitor,0,4.425
3,62,numeric,0.1,0.2,target,target,1,11.048
3,63,perceptual,0.1,0.05,target,target,1,6.157
3,64,numeric,0.1,0.2,target,target,1,4.571
3,65,numeric,0.03,0.05,competitor,target,1,4.587
3,66,perceptual,0.03,0.2,competitor,target,1,5.406
3,67,perceptual,0.1,0.2,competitor,target,1,5.048
3,68,numeric,0.1,0.2,target,target,1,6.552
3,69,perceptual,0.1,0.2,target,target,1,4.144
3,70,numeric,0.1,0.05,competitor,target,1,6.28
3,71,numeric,0.1,0.05,target,target,1,7.332
3,72,numeric,0.03,0.05,competitor,target,1,5.632
3,73,numeric,0.03,0.2,competitor,competitor,0,8.97
3,74,numeric,0.1,0.2,competitor,competitor,0,8.585
3,75,numeric,0.03,0.2,target,target,1,11.853
3,76,numeric,0.03,0.05,target,competitor,0,8.433
3,77,numeric,0.03,0.05,target,target,1,10.098
3,78,perceptual,0.03,0.05,target,target,1,10.765
3,79,perceptual,0.1,0.2,target,target,1,6.741
3,80,perceptual,0.03,0.2,competitor,competitor,0,6.387
3,81,perceptual,0.03,0.05,competitor,decoy,0,9.009
3,82,perceptual,0.03,0.2,target,competitor,0,8.267
3,83,numeric,0.03,0.2,competitor,competitor,0,4.9
3,84,perceptual,0.1,0.2,competitor,target,1,3.706
3,85,numeric,0.03,0.2,competitor,target,1,5.897
3,86,perceptual,0.1,0.2,target,target,1,6.022
3,87,perceptual,0.1,0.2,competitor,target,1,9.89
3,88,perceptual,0.1,0.2,target,target,1,7.382
3,89,numeric,0.1,0.05,competitor,target,1,4.832
3,90,numeric,0.03,0.2,target,competitor,0,8.878
3,91,perceptual,0.03,0.05,target,target,1,10.046
3,92,perceptual,0.1,0.05,target,target,1,8.615
3,93,numeric,0.1,0.05,competitor,target,1,5.151
3,94,perceptual,0.1,0.05,target,decoy,0,7.982
3,95,numeric,0.03,0.05,competitor,competitor,0,11.715
3,96,perceptual,0.1,0.2,target,target,1,7.632
3,97,perceptual,0.1,0.2,competitor,target,1,4.839
3,98,perceptual,0.1,0.05,competitor,target,1,5.337
3,99,perceptual,0.1,0.05,competitor,target,1,7.866
3,100,perceptual,0.1,0.05,target,decoy,0,9.836
3,101,perceptual,0.03,0.05,competitor,target,1,15.931
3,102,perceptual,0.1,0.05,competitor,target,1,4.384
3,103,perceptual,0.1,0.05,target,target,1,11.724
3,104,numeric,0.03,0.05,competitor,target,1,4.92
3,105,perceptual,0.03,0.2,target,target,1,4.564
3,106,numeric,0.1,0.05,competitor,target,1,4.348
3,107,perceptual,0.03,0.05,competitor,target,1,4.43
3,108,numeric,0.1,0.05,target,target,1,5.502
3,109,numeric,0.03,0.2,target,target,1,5.019
3,110,numeric,0.03,0.2,target,target,1,7.433
3,111,perceptual,0.1,0.05,competitor,target,1,4.099
3,112,perceptual,0.1,0.2,target,target,1,3.435
3,113,numeric,0.1,0.2,target,target,1,7.389
3,114,perceptual,0.03,0.2,competitor,target,1,6.052
3,115,numeric,0.1,0.05,target,target,1,5.707
3,116,numeric,0.1,0.2,target,target,1,3.949
3,117,perceptual,0.1,0.2,competitor,target,1,4.399
3,118,numeric,0.1,0.05,competitor,target,1,6.777
3,119,perceptual,0.03,0.2,target,competitor,0,2.748
3,120,numeric,0.03,0.05,target,competitor,0,7.984
3,121,perceptual,0.1,0.2,competitor,target,1,4.117
3,122,perceptual,0.1,0.05,target,target,1,9.683
3,123,numeric,0.03,0.2,competitor,target,1,16.697
3,124,numeric,0.03,0.2,competitor,target,1,13.995
3,125,numeric,0.03,0.05,competitor,target,1,13.321
3,126,numeric,0.1,0.2,competitor,target,1,7.038
3,127,perceptual,0.03,0.2,competitor,competitor,0,10.202
3,128,numeric,0.03,0.05,competitor,target,1,7.15
3,129,perceptual,0.03,0.2,competitor,target,1,4.589
3,130,numeric,0.1,0.05,competitor,target,1,5.8
3,131,numeric,0.1,0.2,target,competitor,0,7.891
3,132,numeric,0.1,0.2,target,target,1,8.719
3,133,numeric,0.03,0.2,competitor,competitor,0,9.55
3,134,numeric,0.1,0.05,target,target,1,8.514
3,135,numeric,0.03,0.05,target,target,1,14.571
3,136,numeric,0.1,0.2,competitor,target,1,10.38
3,137,numeric,0.03,0.2,target,target,1,6.209
3,138,numeric,0.1,0.2,competitor,target,1,6.218
3,139,perceptual,0.1,0.05,competitor,target,1,5.334
3,140,perceptual,0.03,0.05,target,competitor,0,5.92
3,141,numeric,0.1,0.2,target,target,1,10.67
3,142,numeric,0.03,0.05,competitor,target,1,12.132
3,143,numeric,0.03,0.2,target,competitor,0,6.716
3,144,numeric,0.03,0.05,target,target,1,16.32
3,145,perceptual,0.1,0.05,target,target,1,7.376
3,146,numeric,0.1,0.05,target,target,1,5.673
3,147,numeric,0.03,0.2,competitor,target,1,6.507
3,148,numeric,0.03,0.05,target,target,1,10.235
3,149,perceptual,0.1,0.2,target,target,1,7.184
3,150,numeric,0.03,0.2,target,target,1,14.174
3,151,perceptual,0.1,0.05,target,target,1,4.354
3,152,numeric,0.1,0.2,competitor,target,1,9.316
3,153,numeric,0.03,0.05,target,target,1,15.221
3,154,perceptual,0.03,0.2,target,competitor,0,11.732
3,155,numeric,0.1,0.05,target,target,1,5.015
3,156,perceptual,0.03,0.2,target,target,1,10.783
3,157,perceptual,0.03,0.05,target,target,1,8.805
3,158,perceptual,0.03,0.05,target,target,1,6.633
3,159,numeric,0.03,0.05,competitor,target,1,12.865
3,160,perceptual,0.03,0.05,competitor,competitor,0,11.957
3,161,perceptual,0.1,0.05,target,decoy,0,7.928
3,162,numeric,0.03,0.05,competitor,target,1,6.365
3,163,perceptual,0.03,0.2,target,competitor,0,7.016
3,164,numeric,0.1,0.05,target,target,1,8.088
3,165,perceptual,0.1,0.2,competitor,competitor,0,6.998
3,166,numeric,0.03,0.05,target,target,1,6.904
3,167,numeric,0.03,0.05,competitor,competitor,0,8.337
3,168,numeric,0.03,0.2,competitor,target,1,10.551
3,169,numeric,0.03,0.2,competitor,competitor,0,9.415
3,170,perceptual,0.1,0.05,competitor,target,1,5.95
3,171,perceptual,0.1,0.2,competitor,target,1,6.772
3,172,numeric,0.1,0.2,competitor,target,1,10.79
3,173,numeric,0.03,0.05,competitor,competitor,0,9.994
3,174,numeric,0.1,0.05,target,target,1,11.417
3,175,perceptual,0.03,0.2,competitor,competitor,0,6.249
3,176,perceptual,0.03,0.05,competitor,target,1,7.215
3,177,perceptual,0.03,0.2,competitor,target,1,8.429
3,178,numeric,0.1,0.05,competitor,target,1,6.563
3,179,numeric,0.1,0.05,competitor,target,1,6.479
3,180,perceptual,0.1,0.05,competitor,target,1,6.289
3,181,perceptual,0.03,0.2,competitor,competitor,0,6.288
3,182,numeric,0.03,0.2,target,target,1,15.24
3,183,perceptual,0.03,0.2,competitor,target,1,8.155
3,184,numeric,0.1,0.2,competitor,target,1,14.065
3,185,perceptual,0.03,0.05,competitor,competitor,0,6.585
3,186,numeric,0.1,0.2,competitor,target,1,9.049
3,187,perceptual,0.03,0.05,competitor,competitor,0,7.513
3,188,numeric,0.1,0.2,target,target,1,8.176
3,189,numeric,0.1,0.05,target,target,1,8.17
3,190,perceptual,0.1,0.05,competitor,target,1,6.873
3,191,numeric,0.03,0.2,competitor,target,1,7.789
3,192,numeric,0.03,0.2,competitor,target,1,17.549
4,1,numeric,0.03,0.05,target,competitor,0,12.137
4,2,numeric,0.03,0.05,target,competitor,0,6.2
4,3,perceptual,0.03,0.05,target,target,1,7.223
4,4,perceptual,0.1,0.05,competitor,target,1,6.204
4,5,perceptual,0.1,0.05,competitor,competitor,0,3.139
4,6,perceptual,0.03,0.05,competitor,target,1,5.551
4,7,numeric,0.03,0.2,competitor,target,1,9.738
4,8,perceptual,0.1,0.05,competitor,target,1,8.384
4,9,perceptual,0.1,0.2,target,target,1,7.132
4,10,numeric,0.1,0.2,target,decoy,0,9.09
4,11,numeric,0.03,0.2,target,target,1,5.208
4,12,perceptual,0.03,0.05,competitor,competitor,0,5.849
4,13,numeric,0.03,0.05,competitor,competitor,0,6.216
4,14,numeric,0.03,0.05,competitor,competitor,0,8.135
4,15,numeric,0.03,0.05,competitor,competitor,0,6.166
4,16,numeric,0.03,0.2,target,competitor,0,11.788
4,17,numeric,0.1,0.2,competitor,competitor,0,7.45
4,18,perceptual,0.03,0.05,competitor,target,1,8.334
4,19,numeric,0.03,0.05,competitor,target,1,7.116
4,20,perceptual,0.1,0.2,target,competitor,0,9.016
4,21,perceptual,0.03,0.05,target,decoy,0,8.535
4,22,perceptual,0.1,0.2,target,target,1,7.695
4,23,numeric,0.03,0.05,target,target,1,7.094
4,24,numeric,0.03,0.2,competitor,competitor,0,6.863
4,25,numeric,0.03,0.05,target,target,1,10.235
4,26,numeric,0.03,0.2,target,target,1,5.882
4,27,numeric,0.1,0.05,competitor,competitor,0,6.335
4,28,perceptual,0.1,0.2,competitor,target,1,5.118
4,29,numeric,0.03,0.05,target,target,1,7.266
4,30,numeric,0.1,0.05,target,target,1,5.484
4,31,perceptual,0.1,0.05,competitor,target,1,4.734
4,32,numeric,0.03,0.2,target,target,1,7.249
4,33,perceptual,0.03,0.2,competitor,target,1,8.557
4,34,perceptual,0.1,0.05,target,target,1,4.775
4,35,perceptual,0.1,0.05,target,decoy,0,10.499
4,36,numeric,0.1,0.05,competitor,competitor,0,7.156
4,37,perceptual,0.03,0.05,competitor,competitor,0,5.801
4,38,numeric,0.03,0.05,competitor,competitor,0,8.599
4,39,numeric,0.1,0.2,target,target,1,6.472
4,40,perceptual,0.03,0.05,competitor,decoy,0,4.091
4,41,perceptual,0.1,0.2,competitor,competitor,0,4.071
4,42,numeric,0.03,0.05,competitor,competitor,0,12.017
4,43,perceptual,0.03,0.2,competitor,competitor,0,5.837
4,44,numeric,0.1,0.05,competitor,target,1,7.449
4,45,perceptual,0.1,0.2,target,competitor,0,3.8
4,46,numeric,0.03,0.05,competitor,decoy,0,11.918
4,47,perceptual,0.1,0.2,competitor,target,1,3.588
4,48,numeric,0.1,0.2,target,target,1,6.933
4,49,numeric,0.03,0.2,competitor,target,1,6.452
4,50,perceptual,0.1,0.05,competitor,competitor,0,6.605
4,51,perceptual,0.1,0.05,target,competitor,0,4.554
4,52,numeric,0.1,0.05,competitor,target,1,7.059
4,53,perceptual,0.03,0.2,competitor,target,1,5.62
4,54,perceptual,0.03,0.2,target,competitor,0,4.652
4,55,perceptual,0.1,0.2,competitor,target,1,4.5
4,56,perceptual,0.1,0.05,competitor,competitor,0,6.303
4,57,perceptual,0.1,0.2,competitor,target,1,4.523
4,58,perceptual,0.03,0.05,competitor,decoy,0,5.305
4,59,numeric,0.03,0.05,target,target,1,8.556
4,60,numeric,0.1,0.05,target,target,1,8.781
4,61,numeric,0.03,0.2,competitor,competitor,0,8.979
4,62,perceptual,0.03,0.2,competitor,target,1,4.786
4,63,numeric,0.1,0.2,target,target,1,8.417
4,64,perceptual,0.1,0.05,target,target,1,2.95
4,65,perceptual,0.03,0.05,target,decoy,0,11.085
4,66,perceptual,0.1,0.05,competitor,target,1,5.784
4,67,perceptual,0.1,0.05,competitor,competitor,0,7.974
4,68,numeric,0.03,0.2,target,target,1,10.833
4,69,numeric,0.03,0.2,competitor,competitor,0,6.767
4,70,perceptual,0.03,0.2,competitor,competitor,0,5.519
4,71,numeric,0.1,0.05,target,target,1,4.337
4,72,perceptual,0.1,0.2,target,competitor,0,6.133
4,73,perceptual,0.1,0.05,target,decoy,0,5.166
4,74,numeric,0.1,0.2,target,target,1,5.4
4,75,perceptual,0.03,0.05,competitor,competitor,0,3.633
4,76,perceptual,0.1,0.2,competitor,target,1,2.988
4,77,perceptual,0.1,0.2,target,target,1,3.289
4,78,perceptual,0.03,0.05,target,target,1,6.572
4,79,perceptual,0.03,0.2,target,target,1,3.8
4,80,numeric,0.1,0.2,competitor,target,1,8.272
4,81,numeric,0.1,0.2,competitor,target,1,6.718
4,82,perceptual,0.1,0.2,target,target,1,7.183
4,83,perceptual,0.1,0.05,target,target,1,4.666
4,84,numeric,0.1,0.2,target,target,1,5.922
4,85,numeric,0.1,0.2,competitor,competitor,0,5.649
4,86,numeric,0.1,0.2,target,competitor,0,9.269
4,87,numeric,0.03,0.2,competitor,competitor,0,6.883
4,88,perceptual,0.03,0.2,target,target,1,3.921
4,89,perceptual,0.03,0.05,target,competitor,0,5.069
4,90,perceptual,0.03,0.2,target,competitor,0,4.733
4,91,numeric,0.03,0.2,target,target,1,6.22
4,92,perceptual,0.1,0.05,target,target,1,4.573
4,93,numeric,0.1,0.05,target,target,1,8.449
4,94,perceptual,0.1,0.05,competitor,competitor,0,4.823
4,95,numeric,0.1,0.05,target,target,1,9.819
4,96,perceptual,0.03,0.2,competitor,competitor,0,4.917
4,97,perceptual,0.03,0.2,competitor,target,1,4.521
4,98,numeric,0.1,0.05,target,target,1,7.148
4,99,perceptual,0.1,0.05,target,target,1,3.913
4,100,numeric,0.1,0.05,target,target,1,10.205
4,101,numeric,0.1,0.05,target,target,1,4.981
4,102,numeric,0.03,0.05,competitor,competitor,0,4.903
4,103,perceptual,0.1,0.05,target,competitor,0,3.818
4,104,perceptual,0.03,0.2,target,competitor,0,2.953
4,105,numeric,0.1,0.05,competitor,competitor,0,7.99
4,106,numeric,0.03,0.2,target,competitor,0,8.834
4,107,perceptual,0.03,0.05,target,competitor,0,5.42
4,108,perceptual,0.03,0.2,target,target,1,5.665
4,109,perceptual,0.03,0.2,competitor,competitor,0,3.349
4,110,numeric,0.03,0.2,target,decoy,0,3.412
4,111,perceptual,0.1,0.2,target,competitor,0,4.47
4,112,numeric,0.03,0.2,target,target,1,9.3
4,113,numeric,0.03,0.2,competitor,target,1,7.333
4,114,perceptual,0.1,0.2,competitor,target,1,3.072
4,115,numeric,0.03,0.05,target,target,1,4.866
4,116,numeric,0.03,0.05,target,target,1,8.18
4,117,perceptual,0.03,0.05,competitor,decoy,0,7.57
4,118,numeric,0.03,0.2,competitor,competitor,0,6.566
4,119,numeric,0.1,0.05,competitor,target,1,12.419
4,120,numeric,0.03,0.05,target,decoy,0,6.482
4,121,numeric,0.1,0.05,competitor,target,1,7.55
4,122,perceptual,0.1,0.2,competitor,target,1,3.449
4,123,numeric,0.03,0.2,competitor,target,1,5.817
4,124,numeric,0.03,0.05,competitor,target,1,4.849
4,125,numeric,0.1,0.05,competitor,decoy,0,6.342
4,126,numeric,0.1,0.05,competitor,competitor,0,6.705
4,127,perceptual,0.1,0.2,competitor,target,1,3.028
4,128,perceptual,0.1,0.2,competitor,target,1,2.663
4,129,perceptual,0.03,0.2,competitor,target,1,3.985
4,130,perceptual,0.1,0.2,target,target,1,3.052
4,131,perceptual,0.1,0.2,target,target,1,3.301
4,132,numeric,0.1,0.2,target,target,1,7.133
4,133,numeric,0.1,0.05,competitor,competitor,0,4.949
4,134,numeric,0.1,0.05,competitor,target,1,5.534
4,135,perceptual,0.03,0.05,target,competitor,0,1.216
4,136,perceptual,0.03,0.2,competitor,target,1,3.199
4,137,perceptual,0.03,0.05,competitor,target,1,3.55
4,138,numeric,0.1,0.05,competitor,target,1,6.45
4,139,perceptual,0.03,0.05,target,decoy,0,4.862
4,140,perceptual,0.03,0.05,competitor,decoy,0,3.513
4,141,numeric,0.1,0.2,competitor,target,1,8.1
4,142,numeric,0.1,0.05,target,target,1,9.849
4,143,numeric,0.1,0.2,target,target,1,4.085
4,144,numeric,0.1,0.2,competitor,target,1,6.7
4,145,numeric,0.1,0.2,competitor,competitor,0,5.752
4,146,numeric,0.03,0.05,competitor,competitor,0,10.552
4,147,perceptual,0.1,0.2,competitor,target,1,2.84
4,148,perceptual,0.1,0.2,target,target,1,3.618
4,149,perceptual,0.1,0.2,target,target,1,3.586
4,150,numeric,0.03,0.2,competitor,competitor,0,6.767
4,151,perceptual,0.03,0.2,competitor,target,1,3.341
4,152,perceptual,0.1,0.05,target,target,1,7.214
4,153,perceptual,0.03,0.05,target,target,1,3.98
4,154,perceptual,0.03,0.05,target,competitor,0,3.847
4,155,numeric,0.03,0.05,target,target,1,7.733
4,156,perceptual,0.03,0.05,target,competitor,0,5.437
4,157,perceptual,0.03,0.2,target,target,1,3.568
4,158,perceptual,0.1,0.05,competitor,decoy,0,6.634
4,159,perceptual,0.03,0.2,target,target,1,3.581
4,160,perceptual,0.1,0.2,competitor,target,1,2.737
4,161,numeric,0.03,0.05,competitor,competitor,0,5.211
4,162,numeric,0.1,0.2,competitor,competitor,0,6.795
4,163,numeric,0.1,0.2,competitor,competitor,0,7.896
4,164,perceptual,0.1,0.05,target,target,1,2.434
4,165,numeric,0.1,0.2,competitor,target,1,4.054
4,166,numeric,0.1,0.2,competitor,competitor,0,6.318
4,167,perceptual,0.03,0.05,target,target,1,5.451
4,168,perceptual,0.03,0.2,target,target,1,3.272
4,169,numeric,0.03,0.2,competitor,target,1,5.636
4,170,numeric,0.03,0.05,target,target,1,10.208
4,171,perceptual,0.03,0.2,target,target,1,3.732
4,172,perceptual,0.03,0.2,target,target,1,4.314
4,173,numeric,0.03,0.05,target,target,1,7.529
4,174,numeric,0.03,0.05,competitor,target,1,4.371
4,175,numeric,0.1,0.2,target,target,1,6.301
4,176,numeric,0.1,0.2,competitor,competitor,0,7.669
4,177,perceptual,0.1,0.05,target,target,1,5.477
4,178,numeric,0.03,0.2,target,target,1,5.168
4,179,numeric,0.1,0.2,target,target,1,4.33
4,180,numeric,0.1,0.05,target,target,1,7.139
4,181,perceptual,0.03,0.2,competitor,target,1,3.668
4,182,numeric,0.1,0.2,target,target,1,10.666
4,183,perceptual,0.03,0.05,competitor,decoy,0,3.651
4,184,numeric,0.03,0.2,target,competitor,0,11.42
4,185,perceptual,0.1,0.05,competitor,target,1,3.368
4,186,numeric,0.1,0.05,target,target,1,5.348
4,187,perceptual,0.03,0.05,competitor,competitor,0,5.62
4,188,perceptual,0.1,0.05,competitor,decoy,0,2.72
4,189,numeric,0.03,0.2,competitor,competitor,0,3.903
4,190,numeric,0.03,0.2,target,target,1,7.317
4,191,numeric,0.1,0.05,target,target,1,11.901
4,192,perceptual,0.03,0.2,target,target,1,3.42
5,1,numeric,0.03,0.2,target,target,1,10.965
5,2,perceptual,0.1,0.2,competitor,target,1,8.971
5,3,numeric,0.1,0.05,target,target,1,13.252
5,4,numeric,0.03,0.2,competitor,target,1,9.765
5,5,perceptual,0.03,0.2,competitor,competitor,0,10.256
5,6,numeric,0.1,0.05,competitor,competitor,0,8.271
5,7,numeric,0.1,0.05,competitor,target,1,7.454
5,8,perceptual,0.1,0.2,competitor,target,1,11.149
5,9,numeric,0.1,0.05,competitor,target,1,12.038
5,10,perceptual,0.03,0.05,target,target,1,7.186
5,11,perceptual,0.1,0.2,target,target,1,4.613
5,12,numeric,0.1,0.2,competitor,competitor,0,16.442
5,13,numeric,0.03,0.2,target,target,1,12.275
5,14,perceptual,0.03,0.05,target,competitor,0,12.111
5,15,numeric,0.1,0.2,target,target,1,12.085
5,16,numeric,0.1,0.05,target,decoy,0,6.387
5,17,perceptual,0.1,0.05,target,target,1,10.581
5,18,numeric,0.03,0.2,competitor,competitor,0,12.783
5,19,perceptual,0.03,0.2,competitor,decoy,0,12.146
5,20,numeric,0.1,0.05,competitor,target,1,7.13
5,21,numeric,0.1,0.2,competitor,target,1,10.137
5,22,numeric,0.03,0.2,competitor,competitor,0,14.783
5,23,perceptual,0.1,0.2,target,target,1,4.876
5,24,perceptual,0.03,0.05,target,competitor,0,5.776
5,25,perceptual,0.03,0.05,competitor,competitor,0,7.112
5,26,perceptual,0.03,0.2,target,target,1,8.65
5,27,numeric,0.1,0.05,competitor,competitor,0,13.785
5,28,perceptual,0.1,0.2,target,target,1,5.298
5,29,perceptual,0.03,0.05,target,decoy,0,14.091
5,30,perceptual,0.03,0.05,target,target,1,6.063
5,31,numeric,0.03,0.05,target,target,1,8.227
5,32,perceptual,0.03,0.05,target,target,1,7.758
5,33,numeric,0.1,0.2,competitor,target,1,14.233
5,34,perceptual,0.1,0.2,target,target,1,6.419
5,35,perceptual,0.1,0.2,competitor,target,1,14.23
5,36,numeric,0.03,0.05,competitor,competitor,0,12.578
5,37,numeric,0.1,0.05,competitor,target,1,14.667
5,38,perceptual,0.1,0.05,competitor,competitor,0,7.5
5,39,perceptual,0.1,0.2,target,target,1,13.504
5,40,perceptual,0.03,0.2,competitor,competitor,0,11.125
5,41,perceptual,0.1,0.2,target,target,1,13.476
5,42,perceptual,0.03,0.05,competitor,target,1,14.069
5,43,perceptual,0.03,0.2,competitor,target,1,9.42
5,44,perceptual,0.1,0.05,target,competitor,0,14.904
5,45,perceptual,0.1,0.05,target,target,1,16.282
5,46,perceptual,0.1,0.05,competitor,target,1,11.407
5,47,perceptual,0.03,0.05,competitor,target,1,14.44
5,48,perceptual,0.03,0.2,competitor,competitor,0,10.581
5,49,perceptual,0.1,0.2,target,target,1,5.73
5,50,numeric,0.1,0.05,target,target,1,8.191
5,51,numeric,0.03,0.05,competitor,competitor,0,8.854
5,52,numeric,0.03,0.05,target,target,1,11.298
5,54,perceptual,0.03,0.05,target,target,1,6.265
5,55,perceptual,0.03,0.2,competitor,target,1,7.453
5,56,numeric,0.03,0.2,target,target,1,4.544
5,57,numeric,0.03,0.05,target,target,1,8.816
5,58,numeric,0.1,0.05,target,target,1,5.316
5,59,numeric,0.03,0.05,target,target,1,6.903
5,60,perceptual,0.03,0.2,competitor,competitor,0,6.034
5,61,numeric,0.03,0.05,competitor,competitor,0,6.623
5,62,numeric,0.1,0.05,target,target,1,11.322
5,63,perceptual,0.03,0.05,target,target,1,8.424
5,64,perceptual,0.03,0.05,competitor,competitor,0,19.559
5,65,numeric,0.1,0.05,target,target,1,6.702
5,66,perceptual,0.1,0.05,target,target,1,5.319
5,67,perceptual,0.1,0.2,competitor,competitor,0,6.521
5,68,perceptual,0.1,0.05,target,target,1,9.292
5,69,numeric,0.1,0.2,competitor,target,1,10.172
5,70,perceptual,0.1,0.05,target,decoy,0,8.494
5,71,perceptual,0.1,0.05,competitor,target,1,6.805
5,72,numeric,0.03,0.2,competitor,target,1,8.375
5,73,perceptual,0.1,0.2,target,competitor,0,15.09
5,74,perceptual,0.03,0.05,competitor,target,1,9.836
5,75,perceptual,0.03,0.05,competitor,decoy,0,5.654
5,76,numeric,0.1,0.2,target,target,1,5.76
5,77,perceptual,0.1,0.2,competitor,target,1,11.818
5,78,perceptual,0.03,0.2,competitor,competitor,0,5.538
5,79,numeric,0.1,0.05,target,target,1,8.315
5,80,perceptual,0.1,0.2,competitor,target,1,5.76
5,81,numeric,0.1,0.2,target,target,1,6.779
5,82,numeric,0.1,0.2,target,target,1,8.741
5,83,perceptual,0.03,0.05,competitor,decoy,0,16.136
5,84,perceptual,0.03,0.2,target,target,1,7.807
5,85,perceptual,0.03,0.2,target,target,1,11.503
5,86,numeric,0.1,0.05,competitor,target,1,11.493
5,87,numeric,0.03,0.2,target,target,1,6.108
5,88,numeric,0.03,0.2,target,competitor,0,5.81
5,89,perceptual,0.1,0.2,competitor,competitor,0,7.293
5,90,numeric,0.1,0.05,competitor,target,1,9.624
5,91,perceptual,0.03,0.2,target,target,1,3.735
5,92,numeric,0.03,0.2,competitor,competitor,0,13.843
5,93,numeric,0.03,0.2,target,target,1,6.393
5,94,perceptual,0.03,0.2,target,target,1,5.885
5,95,perceptual,0.1,0.2,target,target,1,13.522
5,96,numeric,0.1,0.05,target,target,1,10.726
5,97,perceptual,0.1,0.2,target,competitor,0,19.08
5,98,numeric,0.03,0.2,competitor,target,1,5.141
5,99,numeric,0.1,0.2,target,target,1,18.341
5,100,numeric,0.03,0.05,competitor,target,1,5.576
5,101,numeric,0.1,0.05,competitor,target,1,7.157
5,102,perceptual,0.03,0.05,target,target,1,7.766
5,103,numeric,0.1,0.05,target,target,1,8.352
5,104,numeric,0.03,0.05,target,target,1,9.185
5,105,numeric,0.03,0.2,target,target,1,7.62
5,106,numeric,0.1,0.2,competitor,competitor,0,6.298
5,107,numeric,0.1,0.2,target,target,1,6.444
5,108,perceptual,0.1,0.2,competitor,target,1,5.32
5,109,numeric,0.03,0.05,competitor,competitor,0,6.15
5,110,numeric,0.03,0.05,competitor,target,1,10.644
5,111,numeric,0.1,0.05,competitor,competitor,0,10.143
5,112,perceptual,0.1,0.05,target,target,1,5.597
5,113,numeric,0.03,0.05,target,target,1,13.829
5,114,perceptual,0.1,0.05,competitor,competitor,0,7.154
5,115,perceptual,0.1,0.05,target,target,1,9.107
5,116,numeric,0.03,0.05,target,target,1,5.357
5,117,perceptual,0.03,0.05,competitor,competitor,0,8.552
5,118,numeric,0.03,0.2,competitor,competitor,0,3.673
5,119,numeric,0.1,0.2,competitor,competitor,0,6.59
5,120,numeric,0.1,0.2,target,target,1,9.065
5,121,perceptual,0.1,0.05,target,target,1,6.591
5,122,numeric,0.03,0.2,competitor,target,1,9.79
5,123,numeric,0.03,0.2,target,target,1,8.651
5,124,perceptual,0.1,0.05,competitor,target,1,7.938
5,125,numeric,0.03,0.05,competitor,competitor,0,10.746
5,126,perceptual,0.03,0.05,competitor,target,1,12.032
5,127,numeric,0.1,0.2,target,target,1,5.095
5,128,perceptual,0.03,0.05,target,target,1,8.736
5,129,perceptual,0.1,0.05,competitor,target,1,4.633
5,130,numeric,0.03,0.2,target,competitor,0,6.545
5,131,perceptual,0.1,0.2,competitor,competitor,0,4.492
5,132,perceptual,0.1,0.2,target,target,1,4.286
5,133,perceptual,0.1,0.05,competitor,target,1,5.863
5,134,numeric,0.03,0.2,target,target,1,5.194
5,135,perceptual,0.03,0.2,competitor,decoy,0,7.03
5,136,perceptual,0.03,0.2,target,target,1,9.023
5,137,perceptual,0.1,0.05,target,target,1,7.763
5,138,numeric,0.03,0.2,competitor,target,1,8.929
5,139,numeric,0.03,0.05,target,target,1,4.95
5,140,perceptual,0.03,0.05,target,target,1,4.696
5,141,perceptual,0.03,0.05,target,target,1,5.272
5,142,perceptual,0.1,0.05,competitor,target,1,17.729
5,143,numeric,0.1,0.2,competitor,competitor,0,5.929
5,144,numeric,0.03,0.2,target,target,1,5.741
5,145,perceptual,0.1,0.05,competitor,target,1,5.555
5,146,numeric,0.03,0.05,competitor,competitor,0,4.956
5,147,perceptual,0.03,0.2,target,competitor,0,5.904
5,148,numeric,0.1,0.2,competitor,target,1,4.013
5,149,numeric,0.1,0.2,competitor,competitor,0,6.052
5,150,numeric,0.03,0.05,target,competitor,0,5.344
5,151,perceptual,0.03,0.2,competitor,competitor,0,4.249
5,152,numeric,0.1,0.2,competitor,target,1,7.832
5,153,numeric,0.1,0.2,target,target,1,5.188
5,154,numeric,0.1,0.05,competitor,competitor,0,5.479
5,155,numeric,0.03,0.05,target,target,1,11.435
5,156,numeric,0.1,0.2,competitor,target,1,5.075
5,157,numeric,0.1,0.05,competitor,target,1,7.84
5,158,perceptual,0.1,0.05,competitor,competitor,0,6.792
5,159,perceptual,0.1,0.05,competitor,competitor,0,5.556
5,160,numeric,0.1,0.05,target,target,1,5.822
5,161,perceptual,0.03,0.2,target,target,1,5.157
5,162,numeric,0.1,0.2,target,target,1,4.947
5,163,numeric,0.03,0.05,competitor,competitor,0,3.899
5,164,perceptual,0.03,0.2,target,target,1,4.49
5,165,perceptual,0.1,0.05,target,target,1,5.257
5,166,perceptual,0.1,0.2,competitor,target,1,3.108
5,167,perceptual,0.03,0.2,target,target,1,3.209
5,168,perceptual,0.1,0.05,competitor,target,1,3.603
5,169,numeric,0.03,0.05,competitor,competitor,0,4.712
5,170,perceptual,0.03,0.05,competitor,target,1,8.226
5,171,perceptual,0.1,0.2,competitor,target,1,13.432
5,172,numeric,0.03,0.05,competitor,target,1,5.916
5,173,perceptual,0.1,0.05,target,target,1,10.833
5,174,numeric,0.03,0.2,target,target,1,4.647
5,175,numeric,0.03,0.2,competitor,competitor,0,7.476
5,176,numeric,0.03,0.05,competitor,target,1,6.479
5,177,numeric,0.1,0.2,target,target,1,4.385
5,178,numeric,0.03,0.05,target,target,1,7.531
5,179,perceptual,0.03,0.2,target,target,1,7.736
5,180,numeric,0.1,0.2,target,target,1,5.734
5,181,perceptual,0.03,0.05,competitor,target,1,4.529
5,182,numeric,0.1,0.05,target,decoy,0,5.006
5,183,numeric,0.03,0.05,target,target,1,5.954
5,184,perceptual,0.1,0.2,competitor,target,1,3.246
5,185,numeric,0.1,0.05,target,target,1,5.844
5,186,perceptual,0.03,0.2,competitor,target,1,5.335
5,187,perceptual,0.1,0.2,target,target,1,4.467
5,188,numeric,0.03,0.2,competitor,target,1,13.695
5,189,perceptual,0.03,0.2,target,target,1,5.171
5,190,perceptual,0.03,0.2,competitor,target,1,9.965
5,191,numeric,0.1,0.2,competitor,target,1,5.695
5,192,numeric,0.03,0.2,competitor,competitor,0,7.478
6,1,numeric,0.1,0.05,target,decoy,0,14.063
6,2,perceptual,0.03,0.05,competitor,competitor,0,6.315
6,3,numeric,0.1,0.05,competitor,competitor,0,7.461
6,4,numeric,0.1,0.05,competitor,target,1,5.25
6,5,perceptual,0.03,0.2,competitor,target,1,5.004
6,7,numeric,0.03,0.05,target,competitor,0,4.507
6,8,perceptual,0.1,0.05,target,target,1,6.507
6,9,numeric,0.1,0.2,competitor,competitor,0,12.048
6,10,numeric,0.03,0.2,competitor,target,1,12.008
6,11,numeric,0.1,0.05,competitor,decoy,0,12.903
6,12,numeric,0.03,0.05,competitor,target,1,4.982
6,13,perceptual,0.1,0.05,competitor,target,1,3.731
6,14,numeric,0.1,0.2,target,target,1,8.651
6,15,perceptual,0.03,0.2,competitor,target,1,9.787
6,16,perceptual,0.1,0.05,competitor,target,1,6.516
6,17,perceptual,0.03,0.05,target,target,1,10.858
6,18,numeric,0.03,0.2,target,competitor,0,11.346
6,19,perceptual,0.1,0.2,competitor,target,1,3.093
6,20,numeric,0.1,0.05,competitor,competitor,0,9.471
6,21,perceptual,0.1,0.2,target,target,1,4.933
6,22,numeric,0.1,0.05,competitor,target,1,6.606
6,23,numeric,0.03,0.2,target,competitor,0,6.326
6,24,perceptual,0.03,0.2,target,target,1,7.149
6,25,perceptual,0.03,0.05,target,competitor,0,3.988
6,26,perceptual,0.1,0.05,competitor,decoy,0,7.73
6,27,perceptual,0.03,0.05,target,target,1,5.557
6,28,perceptual,0.03,0.2,competitor,target,1,5.215
6,29,numeric,0.1,0.2,target,target,1,5.99
6,30,numeric,0.03,0.05,competitor,competitor,0,8.331
6,31,perceptual,0.03,0.05,competitor,decoy,0,6.556
6,32,perceptual,0.1,0.05,competitor,competitor,0,7.834
6,33,numeric,0.1,0.05,competitor,target,1,4.508
6,34,numeric,0.03,0.2,target,target,1,6.448
6,35,perceptual,0.1,0.05,target,target,1,5.878
6,36,perceptual,0.1,0.05,target,target,1,6.458
6,37,perceptual,0.1,0.2,target,decoy,0,5.299
6,38,perceptual,0.03,0.05,target,decoy,0,4.014
6,39,perceptual,0.03,0.2,target,decoy,0,3.766
6,40,numeric,0.03,0.2,target,target,1,9.041
6,41,numeric,0.03,0.05,competitor,competitor,0,7.563
6,42,perceptual,0.03,0.05,competitor,target,1,4.06
6,43,numeric,0.03,0.2,target,target,1,4.199
6,44,perceptual,0.1,0.2,target,target,1,6.714
6,45,perceptual,0.1,0.2,target,target,1,4.909
6,46,numeric,0.1,0.05,target,decoy,0,6.019
6,47,perceptual,0.03,0.2,competitor,target,1,5.385
6,48,numeric,0.1,0.2,competitor,target,1,6.087
6,49,perceptual,0.03,0.05,competitor,decoy,0,4.31
6,50,numeric,0.1,0.05,competitor,competitor,0,3.627
6,51,numeric,0.1,0.05,target,competitor,0,3.169
6,52,numeric,0.1,0.05,target,target,1,3.573
6,53,perceptual,0.1,0.2,target,target,1,3.014
6,54,numeric,0.03,0.2,competitor,competitor,0,6.334
6,55,perceptual,0.03,0.05,target,target,1,3.345
6,56,numeric,0.03,0.05,competitor,competitor,0,5.658
6,57,numeric,0.1,0.2,target,target,1,5.131
6,58,perceptual,0.03,0.2,target,competitor,0,5.604
6,59,numeric,0.1,0.2,competitor,competitor,0,5.588
6,60,numeric,0.1,0.05,target,target,1,8.593
6,61,perceptual,0.1,0.05,competitor,target,1,5.182
6,62,perceptual,0.1,0.05,target,competitor,0,3.689
6,63,numeric,0.1,0.05,competitor,target,1,7.188
6,64,perceptual,0.1,0.05,target,decoy,0,3.905
6,65,numeric,0.03,0.05,target,competitor,0,7.37
6,66,perceptual,0.03,0.05,competitor,target,1,3.314
6,67,perceptual,0.03,0.05,competitor,competitor,0,2.979
6,68,numeric,0.1,0.2,target,target,1,8.373
6,69,perceptual,0.1,0.05,competitor,competitor,0,3.098
6,70,numeric,0.1,0.2,competitor,target,1,6.447
6,71,perceptual,0.03,0.2,target,competitor,0,3.793
6,72,numeric,0.1,0.05,target,decoy,0,2.43
6,73,numeric,0.03,0.05,competitor,target,1,2.446
6,74,perceptual,0.03,0.05,target,competitor,0,4.216
6,75,perceptual,0.03,0.2,target,decoy,0,2.344
6,76,perceptual,0.03,0.2,competitor,decoy,0,4.452
6,77,numeric,0.03,0.2,competitor,target,1,3.688
6,78,numeric,0.03,0.05,competitor,target,1,4.002
6,79,numeric,0.03,0.2,competitor,target,1,2.662
6,80,numeric,0.03,0.2,target,competitor,0,3.135
6,81,perceptual,0.1,0.2,competitor,decoy,0,3.006
6,82,perceptual,0.03,0.2,competitor,target,1,2.628
6,83,perceptual,0.03,0.2,competitor,target,1,2.616
6,84,numeric,0.03,0.2,target,decoy,0,7.89
6,85,numeric,0.03,0.2,target,competitor,0,10.167
6,86,perceptual,0.1,0.05,competitor,target,1,3.616
6,87,numeric,0.1,0.2,target,competitor,0,3.565
6,88,perceptual,0.1,0.2,target,target,1,2.303
6,89,numeric,0.1,0.2,competitor,target,1,8.8
6,90,numeric,0.03,0.05,competitor,competitor,0,7.512
6,91,perceptual,0.03,0.05,target,competitor,0,3.347
6,92,numeric,0.1,0.05,target,target,1,10.129
6,93,numeric,0.03,0.05,competitor,competitor,0,7.212
6,94,numeric,0.03,0.05,target,target,1,5.499
6,95,numeric,0.1,0.05,target,target,1,7.162
6,96,numeric,0.1,0.2,competitor,competitor,0,7.278
6,97,perceptual,0.1,0.05,target,target,1,6.196
6,98,perceptual,0.03,0.05,target,competitor,0,6.04
6,99,numeric,0.03,0.2,competitor,competitor,0,5.049
6,100,perceptual,0.03,0.05,target,decoy,0,4.117
6,101,numeric,0.03,0.2,target,competitor,0,4.782
6,102,perceptual,0.1,0.05,competitor,competitor,0,4.187
6,103,perceptual,0.1,0.2,competitor,competitor,0,2.498
6,104,numeric,0.03,0.05,competitor,target,1,5.776
6,105,numeric,0.03,0.2,target,target,1,4.95
6,106,perceptual,0.1,0.2,target,target,1,3.362
6,107,numeric,0.03,0.05,target,target,1,6.449
6,108,numeric,0.03,0.05,target,competitor,0,4.877
6,109,perceptual,0.1,0.2,target,competitor,0,4.139
6,110,numeric,0.03,0.2,competitor,target,1,3.821
6,111,numeric,0.1,0.2,target,target,1,3.773
6,112,numeric,0.03,0.2,target,target,1,2.328
6,113,numeric,0.1,0.2,competitor,target,1,2.897
6,114,perceptual,0.03,0.2,target,decoy,0,3.594
6,115,numeric,0.03,0.2,competitor,competitor,0,3.272
6,116,numeric,0.1,0.05,target,target,1,2.961
6,117,perceptual,0.03,0.05,competitor,competitor,0,2.949
6,118,numeric,0.03,0.05,target,target,1,5.953
6,119,numeric,0.1,0.05,competitor,target,1,3.873
6,120,numeric,0.1,0.05,competitor,target,1,5.178
6,121,perceptual,0.1,0.05,competitor,decoy,0,3.112
6,122,perceptual,0.1,0.05,competitor,competitor,0,2.901
6,123,perceptual,0.03,0.05,competitor,decoy,0,2.969
6,124,numeric,0.03,0.05,target,competitor,0,2.328
6,125,perceptual,0.03,0.05,competitor,target,1,3.748
6,126,numeric,0.03,0.05,competitor,competitor,0,3.781
6,127,numeric,0.1,0.2,competitor,decoy,0,4.027
6,128,perceptual,0.1,0.05,target,competitor,0,3.293
6,129,perceptual,0.1,0.2,competitor,competitor,0,3.971
6,130,numeric,0.03,0.2,competitor,target,1,3.075
6,131,perceptual,0.03,0.2,competitor,target,1,2.559
6,132,numeric,0.03,0.2,competitor,competitor,0,4.842
6,133,numeric,0.03,0.05,competitor,target,1,6.545
6,134,numeric,0.1,0.2,competitor,competitor,0,5.714
6,135,perceptual,0.1,0.05,target,competitor,0,3.759
6,136,numeric,0.1,0.2,target,target,1,3.057
6,137,perceptual,0.1,0.2,target,decoy,0,5.089
6,138,perceptual,0.03,0.2,target,competitor,0,2.326
6,139,perceptual,0.03,0.2,competitor,target,1,5.007
6,140,perceptual,0.03,0.05,target,target,1,3.195
6,141,perceptual,0.1,0.2,competitor,target,1,2.634
6,142,numeric,0.03,0.05,target,target,1,6.315
6,143,perceptual,0.1,0.2,competitor,decoy,0,3.229
6,144,perceptual,0.03,0.2,target,competitor,0,2.17
6,145,perceptual,0.03,0.05,target,decoy,0,4.19
6,146,perceptual,0.1,0.05,competitor,decoy,0,2.34
6,147,numeric,0.1,0.2,competitor,competitor,0,2.57
6,148,perceptual,0.03,0.2,target,decoy,0,2.595
6,149,perceptual,0.03,0.2,competitor,decoy,0,2.544
6,150,numeric,0.1,0.05,target,target,1,6.743
6,151,numeric,0.03,0.2,target,target,1,6.318
6,152,numeric,0.03,0.05,target,target,1,7.317
6,153,numeric,0.1,0.2,competitor,target,1,6.017
6,154,numeric,0.1,0.2,target,competitor,0,2.848
6,155,perceptual,0.03,0.2,competitor,decoy,0,2.42
6,156,perceptual,0.03,0.05,target,decoy,0,3.288
6,157,perceptual,0.03,0.2,target,target,1,5.222
6,158,numeric,0.03,0.05,target,target,1,5.682
6,159,numeric,0.1,0.2,competitor,target,1,2.772
6,160,numeric,0.1,0.05,target,decoy,0,3.125
6,161,perceptual,0.1,0.05,target,target,1,2.365
6,162,perceptual,0.1,0.05,target,target,1,3.887
6,163,numeric,0.03,0.2,competitor,competitor,0,3.004
6,164,perceptual,0.1,0.2,competitor,competitor,0,2.985
6,165,numeric,0.1,0.2,target,target,1,3.821
6,166,perceptual,0.03,0.05,competitor,target,1,2.948
6,167,numeric,0.1,0.2,target,target,1,6.312
6,168,perceptual,0.1,0.2,competitor,competitor,0,4.037
6,169,numeric,0.1,0.2,target,competitor,0,4.268
6,170,numeric,0.03,0.2,competitor,competitor,0,3.292
6,171,perceptual,0.03,0.05,competitor,target,1,5.916
6,172,numeric,0.03,0.05,target,competitor,0,6.874
6,173,perceptual,0.1,0.2,competitor,competitor,0,3.443
6,174,perceptual,0.03,0.2,target,competitor,0,3.987
6,175,numeric,0.1,0.05,competitor,target,1,4.018
6,176,perceptual,0.1,0.2,target,competitor,0,3.025
6,177,perceptual,0.1,0.2,target,decoy,0,2.947
6,178,perceptual,0.03,0.05,competitor,decoy,0,2.763
6,179,perceptual,0.03,0.2,target,target,1,2.488
6,180,numeric,0.1,0.2,target,competitor,0,7.237
6,181,numeric,0.1,0.05,competitor,competitor,0,5.466
6,182,perceptual,0.1,0.05,target,competitor,0,2.51
6,183,perceptual,0.03,0.2,competitor,competitor,0,3.26
6,184,perceptual,0.1,0.2,competitor,target,1,3.388
6,185,numeric,0.03,0.05,competitor,target,1,6.826
6,186,perceptual,0.1,0.2,target,competitor,0,3.351
6,187,numeric,0.03,0.2,competitor,target,1,6.927
6,188,perceptual,0.1,0.2,competitor,target,1,2.618
6,189,numeric,0.1,0.05,target,decoy,0,2.82
6,190,perceptual,0.1,0.05,competitor,target,1,2.793
6,191,perceptual,0.1,0.05,target,decoy,0,3.564
6,192,perceptual,0.1,0.2,competitor,competitor,0,4.195
7,1,perceptual,0.1,0.05,competitor,target,1,11.289
7,3,numeric,0.03,0.05,target,target,1,0.185
7,4,perceptual,0.1,0.05,target,target,1,6.052
7,5,numeric,0.03,0.05,target,competitor,0,4.371
7,6,perceptual,0.1,0.2,target,competitor,0,4.804
7,7,perceptual,0.1,0.05,competitor,target,1,3.256
7,8,numeric,0.1,0.05,competitor,target,1,13.249
7,9,numeric,0.03,0.05,competitor,competitor,0,14.071
7,10,numeric,0.1,0.05,target,competitor,0,11.951
7,11,perceptual,0.03,0.05,competitor,target,1,3.126
7,12,numeric,0.03,0.2,competitor,target,1,4.292
7,13,numeric,0.1,0.05,target,target,1,11.358
7,14,numeric,0.03,0.2,target,competitor,0,4.244
7,15,perceptual,0.1,0.05,competitor,target,1,4.562
7,16,perceptual,0.03,0.05,target,target,1,8.365
7,17,numeric,0.1,0.2,competitor,target,1,4.651
7,18,numeric,0.1,0.2,target,target,1,9.7
7,19,numeric,0.03,0.05,target,target,1,15.198
7,21,perceptual,0.1,0.2,competitor,decoy,0,0.325
7,22,perceptual,0.03,0.05,competitor,target,1,3.57
7,23,perceptual,0.1,0.2,target,target,1,4.514
7,24,perceptual,0.1,0.2,competitor,target,1,3.254
7,25,numeric,0.1,0.2,competitor,target,1,6.229
7,26,numeric,0.1,0.2,competitor,target,1,8.313
7,27,perceptual,0.03,0.2,competitor,target,1,10.242
7,28,perceptual,0.1,0.2,target,target,1,4.021
7,29,perceptual,0.03,0.2,target,competitor,0,6.401
7,30,perceptual,0.03,0.2,competitor,target,1,4.824
7,31,perceptual,0.1,0.05,competitor,target,1,4.664
7,32,numeric,0.03,0.2,competitor,competitor,0,12.658
7,33,perceptual,0.1,0.05,target,target,1,9.025
7,34,numeric,0.1,0.2,target,target,1,8.509
7,35,perceptual,0.03,0.2,target,target,1,3.497
7,36,perceptual,0.1,0.05,target,target,1,6.848
7,37,perceptual,0.03,0.05,target,competitor,0,6.119
7,38,perceptual,0.03,0.2,competitor,competitor,0,14.3
7,39,perceptual,0.1,0.2,competitor,target,1,7.37
7,40,numeric,0.1,0.05,competitor,target,1,11.432
7,41,numeric,0.1,0.2,competitor,target,1,8.493
7,42,numeric,0.1,0.05,competitor,decoy,0,11.369
7,43,perceptual,0.03,0.05,target,competitor,0,6.469
7,44,perceptual,0.03,0.05,target,target,1,9.889
7,45,perceptual,0.1,0.05,competitor,target,1,8.994
7,46,perceptual,0.03,0.2,competitor,competitor,0,10.048
7,47,numeric,0.1,0.2,competitor,competitor,0,11.476
7,48,perceptual,0.1,0.2,target,target,1,3.212
7,49,numeric,0.03,0.2,target,competitor,0,5.776
7,50,numeric,0.03,0.05,target,target,1,10.129
7,51,perceptual,0.1,0.05,competitor,target,1,5.114
7,52,numeric,0.03,0.2,target,target,1,5.353
7,53,perceptual,0.1,0.05,target,target,1,3.064
7,54,perceptual,0.1,0.05,target,target,1,2.235
7,55,numeric,0.03,0.2,target,target,1,12.102
7,56,perceptual,0.03,0.05,target,competitor,0,3.905
7,57,numeric,0.03,0.2,competitor,competitor,0,14.573
7,58,numeric,0.03,0.05,competitor,competitor,0,17.555
7,59,numeric,0.1,0.05,competitor,target,1,7.748
7,60,numeric,0.1,0.05,target,competitor,0,6.018
7,61,numeric,0.1,0.2,target,competitor,0,6.683
7,62,numeric,0.03,0.2,competitor,competitor,0,10.466
7,63,perceptual,0.03,0.2,competitor,target,1,7.803
7,64,numeric,0.03,0.2,target,target,1,4.638
7,65,perceptual,0.03,0.05,competitor,competitor,0,7.204
7,66,perceptual,0.03,0.2,competitor,competitor,0,6.634
7,67,perceptual,0.03,0.2,competitor,target,1,2.538
7,68,numeric,0.1,0.2,competitor,competitor,0,9.292
7,69,numeric,0.03,0.2,competitor,target,1,3.688
7,70,perceptual,0.1,0.2,competitor,decoy,0,2.318
7,71,numeric,0.03,0.2,target,target,1,2.76
7,72,numeric,0.1,0.2,target,target,1,2.121
7,73,numeric,0.03,0.05,competitor,competitor,0,4.321
7,74,numeric,0.03,0.2,competitor,target,1,2.009
7,75,perceptual,0.03,0.2,target,competitor,0,2
7,76,numeric,0.1,0.05,target,decoy,0,2.196
7,77,perceptual,0.1,0.05,competitor,decoy,0,2.397
7,78,perceptual,0.1,0.2,competitor,target,1,2.722
7,79,perceptual,0.03,0.05,target,decoy,0,2
7,80,perceptual,0.1,0.2,target,target,1,2.224
7,81,perceptual,0.03,0.05,competitor,target,1,2.1
7,82,numeric,0.1,0.05,target,target,1,2.567
7,83,perceptual,0.1,0.2,target,target,1,2.657
7,84,numeric,0.03,0.05,competitor,target,1,1.989
7,85,perceptual,0.1,0.05,target,target,1,3.366
7,86,numeric,0.03,0.05,competitor,decoy,0,2.518
7,87,numeric,0.1,0.05,competitor,competitor,0,2.349
7,88,perceptual,0.03,0.2,target,target,1,2.739
7,89,numeric,0.1,0.05,competitor,decoy,0,1.821
7,90,perceptual,0.03,0.05,target,competitor,0,1.612
7,91,numeric,0.1,0.2,competitor,decoy,0,1.431
7,92,numeric,0.1,0.05,competitor,decoy,0,1.442
7,93,perceptual,0.03,0.05,competitor,competitor,0,1.653
7,94,numeric,0.03,0.05,competitor,decoy,0,1.689
7,95,perceptual,0.1,0.2,competitor,target,1,2.136
7,96,perceptual,0.03,0.2,target,target,1,1.889
7,97,numeric,0.03,0.05,target,decoy,0,1.511
7,98,perceptual,0.1,0.05,target,competitor,0,1.37
7,99,perceptual,0.03,0.05,target,competitor,0,1.449
7,100,perceptual,0.1,0.2,competitor,target,1,1.693
7,101,numeric,0.03,0.05,target,competitor,0,2.069
7,102,numeric,0.1,0.05,competitor,target,1,2.308
7,103,numeric,0.03,0.2,competitor,target,1,5.397
7,104,numeric,0.03,0.2,target,target,1,2.064
7,105,numeric,0.1,0.2,competitor,target,1,2.082
7,106,perceptual,0.1,0.05,competitor,target,1,2.236
7,107,numeric,0.1,0.2,target,target,1,3.399
7,108,numeric,0.1,0.05,target,target,1,5.421
7,109,perceptual,0.03,0.05,competitor,decoy,0,6.374
7,110,perceptual,0.03,0.2,competitor,competitor,0,10.795
7,111,numeric,0.03,0.05,target,decoy,0,3.423
7,112,numeric,0.1,0.2,target,decoy,0,2.027
7,113,perceptual,0.03,0.05,target,target,1,3.055
7,114,numeric,0.1,0.2,target,target,1,2.429
7,115,numeric,0.03,0.2,target,target,1,2.313
7,116,perceptual,0.1,0.2,competitor,target,1,2.199
7,117,perceptual,0.1,0.05,target,competitor,0,5.469
7,118,perceptual,0.03,0.2,competitor,competitor,0,3.721
7,119,perceptual,0.03,0.2,target,target,1,1.8
7,120,numeric,0.03,0.2,target,decoy,0,2.612
7,121,numeric,0.03,0.05,target,decoy,0,2.574
7,122,perceptual,0.1,0.2,target,decoy,0,1.807
7,123,numeric,0.03,0.05,competitor,target,1,2.57
7,124,perceptual,0.1,0.2,target,target,1,2.211
7,125,perceptual,0.1,0.05,target,target,1,2.147
7,126,numeric,0.1,0.2,target,competitor,0,3.223
7,127,perceptual,0.1,0.2,competitor,target,1,2.883
7,128,numeric,0.1,0.2,competitor,competitor,0,3.762
7,129,numeric,0.1,0.2,target,target,1,3.83
7,130,numeric,0.1,0.2,competitor,competitor,0,1.766
7,131,numeric,0.03,0.05,competitor,competitor,0,1.956
7,132,numeric,0.1,0.05,target,target,1,2.399
7,133,perceptual,0.03,0.2,target,competitor,0,3.383
7,134,numeric,0.1,0.05,target,decoy,0,2.252
7,135,perceptual,0.1,0.05,competitor,competitor,0,2.499
7,136,numeric,0.1,0.2,competitor,competitor,0,2.168
7,137,numeric,0.03,0.2,competitor,decoy,0,2.507
7,138,perceptual,0.03,0.05,competitor,target,1,1.854
7,139,numeric,0.1,0.05,target,target,1,1.614
7,140,perceptual,0.03,0.2,target,target,1,1.944
7,141,numeric,0.1,0.2,target,target,1,2.209
7,142,numeric,0.1,0.2,target,target,1,4.343
7,143,perceptual,0.03,0.05,target,target,1,2.258
7,144,perceptual,0.03,0.05,competitor,target,1,2.284
7,145,perceptual,0.03,0.05,competitor,target,1,4.032
7,146,perceptual,0.03,0.2,competitor,target,1,3.153
7,147,perceptual,0.03,0.05,target,target,1,7.99
7,148,numeric,0.1,0.05,target,target,1,2.833
7,149,numeric,0.03,0.05,competitor,competitor,0,2.858
7,150,perceptual,0.1,0.2,target,target,1,2.672
7,151,numeric,0.03,0.05,competitor,competitor,0,11.398
7,152,perceptual,0.1,0.2,competitor,target,1,4.144
7,153,perceptual,0.1,0.05,competitor,target,1,4.286
7,154,numeric,0.03,0.2,target,decoy,0,7.097
7,155,numeric,0.03,0.2,target,competitor,0,0.309
7,156,numeric,0.03,0.05,target,target,1,6.944
7,157,perceptual,0.03,0.05,competitor,competitor,0,3.166
7,158,perceptual,0.1,0.05,competitor,target,1,3.29
7,159,perceptual,0.1,0.2,target,decoy,0,3.8
7,160,numeric,0.03,0.2,competitor,target,1,5.702
7,161,perceptual,0.1,0.2,competitor,target,1,2.26
7,162,numeric,0.03,0.2,competitor,competitor,0,6.478
7,163,perceptual,0.03,0.2,target,target,1,3.207
7,164,perceptual,0.1,0.2,target,target,1,3.301
7,165,numeric,0.03,0.05,target,target,1,3.973
7,166,perceptual,0.03,0.2,competitor,target,1,4.213
7,167,numeric,0.03,0.2,target,competitor,0,3.924
7,168,numeric,0.1,0.2,competitor,competitor,0,3.334
7,169,perceptual,0.03,0.05,target,decoy,0,4.748
7,170,numeric,0.1,0.05,competitor,competitor,0,2.485
7,171,perceptual,0.1,0.05,target,target,1,6.273
7,172,numeric,0.1,0.2,target,target,1,2.02
7,173,perceptual,0.03,0.2,target,target,1,2.146
7,174,perceptual,0.1,0.05,target,competitor,0,1.723
7,175,perceptual,0.03,0.05,competitor,competitor,0,2.625
7,176,perceptual,0.03,0.05,competitor,target,1,3.064
7,177,numeric,0.1,0.05,competitor,target,1,3.212
7,178,numeric,0.1,0.05,target,target,1,1.83
7,179,numeric,0.03,0.2,competitor,target,1,2.16
7,180,numeric,0.03,0.05,competitor,target,1,2.193
7,182,perceptual,0.03,0.2,target,target,1,2.154
7,183,perceptual,0.1,0.2,target,target,1,4.403
7,184,perceptual,0.03,0.2,target,target,1,15.243
7,185,numeric,0.1,0.05,competitor,decoy,0,9.457
7,186,perceptual,0.1,0.05,competitor,target,1,4.631
7,187,perceptual,0.1,0.05,target,target,1,5.307
7,188,numeric,0.1,0.05,competitor,competitor,0,3.08
7,189,numeric,0.03,0.2,competitor,target,1,3.372
7,190,perceptual,0.03,0.2,competitor,target,1,5.739
7,191,perceptual,0.1,0.2,competitor,competitor,0,4.327
7,192,numeric,0.1,0.05,target,target,1,1.718
8,1,perceptual,0.03,0.2,target,target,1,12.436
8,2,perceptual,0.1,0.2,target,target,1,5.71
8,3,numeric,0.1,0.2,target,competitor,0,5.404
8,4,numeric,0.03,0.05,target,competitor,0,6.808
8,5,perceptual,0.03,0.2,target,decoy,0,5.199
8,6,numeric,0.1,0.2,competitor,competitor,0,5.078
8,8,numeric,0.1,0.05,target,target,1,6.364
8,9,numeric,0.03,0.05,target,target,1,5.944
8,10,numeric,0.1,0.2,target,target,1,5.355
8,11,perceptual,0.03,0.2,target,competitor,0,4.483
8,12,perceptual,0.03,0.2,competitor,competitor,0,3.152
8,13,numeric,0.1,0.2,target,target,1,5.348
8,14,perceptual,0.1,0.05,target,decoy,0,4.237
8,15,perceptual,0.03,0.2,target,competitor,0,3.26
8,16,numeric,0.03,0.2,target,decoy,0,5.256
8,17,perceptual,0.1,0.05,competitor,target,1,3.036
8,18,perceptual,0.03,0.2,target,target,1,3.453
8,19,perceptual,0.03,0.2,competitor,competitor,0,3.754
8,20,numeric,0.03,0.05,target,competitor,0,3.634
8,21,numeric,0.03,0.05,target,competitor,0,5.102
8,22,perceptual,0.1,0.2,competitor,target,1,3.251
8,23,numeric,0.1,0.2,competitor,target,1,4.313
8,24,numeric,0.1,0.05,competitor,target,1,3.632
8,25,perceptual,0.1,0.2,competitor,target,1,2.67
8,26,numeric,0.03,0.2,competitor,competitor,0,2.997
8,27,perceptual,0.1,0.2,competitor,competitor,0,2.849
8,28,perceptual,0.1,0.2,target,target,1,3.99
8,29,numeric,0.1,0.2,target,target,1,4.545
8,30,numeric,0.03,0.2,target,target,1,3.636
8,31,numeric,0.03,0.2,competitor,decoy,0,6.863
8,32,numeric,0.03,0.2,target,competitor,0,3.407
8,33,perceptual,0.03,0.05,target,competitor,0,2.181
8,34,perceptual,0.03,0.2,target,decoy,0,1.935
8,35,numeric,0.1,0.2,target,target,1,4.196
8,36,numeric,0.1,0.2,target,competitor,0,3.321
8,37,perceptual,0.1,0.2,competitor,target,1,3.138
8,38,numeric,0.1,0.05,target,decoy,0,6.544
8,39,perceptual,0.03,0.2,competitor,competitor,0,3.384
8,40,perceptual,0.1,0.05,target,target,1,3.101
8,41,numeric,0.1,0.2,target,decoy,0,3.63
8,42,numeric,0.03,0.2,target,target,1,3.739
8,43,perceptual,0.03,0.05,competitor,decoy,0,2.61
8,44,perceptual,0.1,0.05,target,target,1,3.411
8,45,numeric,0.1,0.05,competitor,target,1,6.866
8,46,perceptual,0.1,0.05,competitor,competitor,0,3.044
8,47,perceptual,0.1,0.05,competitor,competitor,0,4.736
8,48,perceptual,0.1,0.05,competitor,target,1,4.961
8,49,numeric,0.1,0.05,competitor,target,1,3.358
8,50,perceptual,0.1,0.05,competitor,competitor,0,1.924
8,51,perceptual,0.03,0.05,target,competitor,0,3.274
8,52,numeric,0.03,0.05,target,target,1,4.914
8,53,numeric,0.03,0.2,target,target,1,4.941
8,54,numeric,0.1,0.2,competitor,competitor,0,3.076
8,55,numeric,0.1,0.05,target,competitor,0,3.242
8,56,perceptual,0.03,0.05,competitor,decoy,0,3.789
8,57,numeric,0.03,0.2,competitor,target,1,4.685
8,58,numeric,0.1,0.05,competitor,target,1,3.427
8,59,perceptual,0.1,0.05,target,target,1,3.239
8,60,numeric,0.03,0.2,competitor,decoy,0,5.712
8,61,numeric,0.03,0.05,competitor,decoy,0,7.069
8,62,numeric,0.03,0.2,competitor,target,1,9.622
8,63,perceptual,0.03,0.2,competitor,target,1,3.527
8,64,numeric,0.1,0.05,target,competitor,0,4.076
8,65,perceptual,0.1,0.05,competitor,competitor,0,2.98
8,66,perceptual,0.03,0.05,competitor,target,1,2.986
8,67,numeric,0.1,0.05,target,decoy,0,4.071
8,68,numeric,0.1,0.2,target,target,1,3.258
8,69,numeric,0.1,0.2,competitor,target,1,3.787
8,70,numeric,0.03,0.05,competitor,target,1,4.052
8,71,numeric,0.03,0.05,competitor,decoy,0,6.755
8,72,numeric,0.03,0.05,competitor,decoy,0,4.101
8,73,perceptual,0.1,0.2,competitor,target,1,2.784
8,74,perceptual,0.03,0.05,competitor,target,1,2.801
8,75,numeric,0.1,0.05,competitor,target,1,4.323
8,76,numeric,0.03,0.2,target,competitor,0,3.757
8,77,perceptual,0.1,0.05,target,decoy,0,2.888
8,78,numeric,0.1,0.2,competitor,competitor,0,3.781
8,79,perceptual,0.03,0.05,target,competitor,0,2.794
8,80,perceptual,0.1,0.05,competitor,target,1,5.761
8,81,numeric,0.03,0.05,competitor,decoy,0,2.923
8,82,numeric,0.1,0.05,competitor,target,1,3.107
8,83,numeric,0.1,0.05,target,target,1,4.959
8,84,perceptual,0.1,0.2,target,competitor,0,5.562
8,85,perceptual,0.03,0.05,competitor,decoy,0,3.282
8,86,numeric,0.1,0.05,competitor,target,1,3.378
8,87,perceptual,0.1,0.2,target,decoy,0,3.382
8,88,numeric,0.03,0.05,competitor,target,1,2.97
8,89,perceptual,0.03,0.2,competitor,target,1,3.422
8,90,perceptual,0.03,0.05,target,decoy,0,3.099
8,91,perceptual,0.1,0.2,target,target,1,6.439
8,92,numeric,0.1,0.2,competitor,competitor,0,4.338
8,93,perceptual,0.03,0.05,competitor,competitor,0,3.588
8,94,numeric,0.03,0.2,target,competitor,0,4.151
8,95,numeric,0.1,0.05,target,decoy,0,4.616
8,96,numeric,0.03,0.05,target,competitor,0,5.013
8,97,perceptual,0.03,0.05,competitor,decoy,0,2.798
8,98,numeric,0.03,0.2,competitor,decoy,0,4.157
8,99,perceptual,0.03,0.05,target,competitor,0,2.55
8,100,perceptual,0.03,0.05,competitor,competitor,0,3.708
8,101,numeric,0.03,0.2,target,target,1,4.067
8,102,perceptual,0.1,0.2,target,competitor,0,4.465
8,103,numeric,0.03,0.2,competitor,target,1,4.25
8,104,numeric,0.1,0.05,target,decoy,0,5.34
8,105,numeric,0.1,0.2,competitor,target,1,4.491
8,106,perceptual,0.1,0.05,target,target,1,2.491
8,107,perceptual,0.03,0.05,target,decoy,0,4.112
8,108,perceptual,0.1,0.2,competitor,target,1,3.419
8,109,perceptual,0.1,0.05,target,target,1,2.452
8,110,perceptual,0.1,0.2,target,competitor,0,3.424
8,111,perceptual,0.03,0.05,competitor,decoy,0,2.71
8,112,numeric,0.1,0.2,competitor,decoy,0,5.05
8,113,numeric,0.03,0.2,target,competitor,0,5.547
8,114,perceptual,0.03,0.2,target,target,1,4.092
8,115,numeric,0.1,0.2,target,competitor,0,3.468
8,116,perceptual,0.1,0.05,target,target,1,1.977
8,117,perceptual,0.1,0.2,competitor,target,1,3.442
8,118,numeric,0.03,0.2,target,competitor,0,5.301
8,119,numeric,0.1,0.2,target,target,1,4.073
8,120,perceptual,0.03,0.05,competitor,target,1,5.149
8,121,numeric,0.1,0.05,competitor,competitor,0,5.618
8,122,perceptual,0.1,0.05,competitor,target,1,2.919
8,123,perceptual,0.1,0.05,target,target,1,3.183
8,124,numeric,0.03,0.05,competitor,target,1,8.269
8,125,perceptual,0.03,0.2,target,target,1,2.972
8,126,numeric,0.1,0.05,competitor,target,1,7.323
8,127,perceptual,0.1,0.2,competitor,target,1,4.5
8,128,numeric,0.03,0.05,target,target,1,4.117
8,129,perceptual,0.03,0.2,competitor,competitor,0,3.204
8,130,numeric,0.03,0.05,competitor,target,1,4.01
8,131,perceptual,0.1,0.2,target,target,1,2.89
8,132,perceptual,0.03,0.2,competitor,target,1,5.959
8,133,perceptual,0.1,0.05,competitor,competitor,0,3.291
8,134,numeric,0.1,0.05,target,competitor,0,3.491
8,135,numeric,0.1,0.2,target,target,1,5.304
8,136,numeric,0.1,0.2,competitor,target,1,3.956
8,137,perceptual,0.03,0.05,competitor,competitor,0,3.643
8,138,numeric,0.03,0.2,competitor,target,1,4.302
8,139,perceptual,0.03,0.05,target,competitor,0,4.094
8,140,numeric,0.03,0.2,competitor,target,1,3.783
8,141,perceptual,0.1,0.05,target,target,1,5.719
8,142,numeric,0.03,0.05,target,decoy,0,6.605
8,143,perceptual,0.03,0.05,target,decoy,0,4.834
8,144,perceptual,0.03,0.2,target,target,1,3.264
8,145,numeric,0.1,0.05,target,competitor,0,4.076
8,146,perceptual,0.1,0.05,target,target,1,3.607
8,147,perceptual,0.1,0.05,competitor,target,1,3.34
8,148,perceptual,0.03,0.2,competitor,competitor,0,3.25
8,149,numeric,0.1,0.05,competitor,decoy,0,7.455
8,150,perceptual,0.03,0.2,target,competitor,0,3.979
8,151,numeric,0.03,0.2,target,target,1,5.599
8,152,perceptual,0.03,0.05,target,decoy,0,3.334
8,153,perceptual,0.03,0.2,competitor,target,1,2.695
8,154,perceptual,0.03,0.2,competitor,target,1,3.699
8,155,numeric,0.03,0.2,competitor,competitor,0,4.59
8,156,perceptual,0.03,0.2,competitor,competitor,0,6.05
8,157,numeric,0.03,0.05,target,decoy,0,6.529
8,158,numeric,0.03,0.05,competitor,competitor,0,5.427
8,159,numeric,0.03,0.2,target,decoy,0,6.284
8,160,numeric,0.03,0.05,competitor,decoy,0,7.364
8,161,perceptual,0.1,0.2,target,target,1,2.538
8,162,numeric,0.1,0.2,competitor,target,1,7.38
8,163,numeric,0.03,0.2,competitor,target,1,6.196
8,164,numeric,0.1,0.05,target,target,1,5.04
8,165,numeric,0.1,0.2,target,competitor,0,3.65
8,166,numeric,0.1,0.2,competitor,decoy,0,4.807
8,167,perceptual,0.1,0.2,target,target,1,3.191
8,168,perceptual,0.1,0.2,competitor,target,1,3.434
8,169,perceptual,0.03,0.2,target,target,1,5.305
8,170,numeric,0.1,0.05,competitor,target,1,5.974
8,171,perceptual,0.03,0.2,competitor,competitor,0,2.935
8,172,numeric,0.1,0.05,competitor,target,1,7.116
8,173,perceptual,0.1,0.2,competitor,competitor,0,2.931
8,174,perceptual,0.1,0.2,target,competitor,0,3.5
8,175,perceptual,0.03,0.05,target,competitor,0,5.495
8,176,perceptual,0.03,0.05,target,target,1,5.781
8,177,numeric,0.1,0.2,competitor,decoy,0,6.012
8,178,perceptual,0.03,0.05,competitor,target,1,2.487
8,179,numeric,0.1,0.05,target,competitor,0,4.722
8,180,numeric,0.03,0.05,competitor,decoy,0,4.828
8,181,perceptual,0.03,0.05,target,decoy,0,4.85
8,182,perceptual,0.1,0.2,target,target,1,2.323
8,183,numeric,0.03,0.2,competitor,decoy,0,5.674
8,184,numeric,0.03,0.05,target,competitor,0,9.52
8,185,perceptual,0.03,0.2,target,target,1,2.904
8,186,perceptual,0.1,0.2,competitor,competitor,0,3.717
8,187,perceptual,0.1,0.05,competitor,target,1,6.593
8,188,perceptual,0.1,0.05,target,target,1,3.744
8,189,perceptual,0.1,0.05,competitor,target,1,5.373
8,190,numeric,0.03,0.05,competitor,target,1,6.798
8,191,perceptual,0.1,0.2,competitor,competitor,0,6.721
8,192,numeric,0.03,0.05,target,competitor,0,4.751
9,1,perceptual,0.1,0.05,competitor,target,1,6.26
9,2,numeric,0.1,0.2,competitor,target,1,8.755
9,3,numeric,0.1,0.2,target,competitor,0,4.983
9,4,perceptual,0.1,0.05,target,competitor,0,2.649
9,5,perceptual,0.03,0.05,target,target,1,4.868
9,6,perceptual,0.03,0.05,competitor,target,1,5.754
9,7,numeric,0.1,0.2,target,competitor,0,4.198
9,8,perceptual,0.1,0.2,target,target,1,2.634
9,9,numeric,0.03,0.05,target,target,1,5.25
9,10,numeric,0.1,0.2,target,target,1,6.931
9,11,perceptual,0.03,0.05,competitor,competitor,0,3.972
9,12,numeric,0.1,0.2,target,target,1,6.741
9,13,numeric,0.03,0.2,competitor,target,1,5.449
9,14,perceptual,0.1,0.2,target,target,1,2.198
9,15,numeric,0.03,0.05,target,target,1,6.117
9,16,numeric,0.03,0.2,target,target,1,5.416
9,17,perceptual,0.03,0.05,competitor,competitor,0,3.073
9,18,perceptual,0.03,0.05,competitor,competitor,0,4.363
9,19,numeric,0.03,0.2,target,competitor,0,6.082
9,20,numeric,0.03,0.05,target,competitor,0,3.748
9,21,numeric,0.03,0.2,competitor,competitor,0,8.53
9,22,perceptual,0.1,0.2,competitor,target,1,2.644
9,23,numeric,0.03,0.2,competitor,target,1,5.683
9,24,numeric,0.03,0.05,target,competitor,0,4.454
9,25,perceptual,0.1,0.2,competitor,target,1,7.921
9,26,numeric,0.03,0.05,target,target,1,6.965
9,27,numeric,0.1,0.05,competitor,target,1,6.819
9,28,numeric,0.1,0.2,target,target,1,6.905
9,29,perceptual,0.03,0.2,target,target,1,3.248
9,30,numeric,0.1,0.05,competitor,competitor,0,4.326
9,31,perceptual,0.1,0.05,target,competitor,0,5.315
9,32,perceptual,0.03,0.05,competitor,target,1,2.98
9,33,perceptual,0.03,0.05,target,target,1,2.003
9,34,numeric,0.03,0.05,target,competitor,0,3.391
9,35,numeric,0.1,0.05,competitor,decoy,0,4.782
9,36,numeric,0.03,0.2,target,competitor,0,7.125
9,37,perceptual,0.1,0.05,competitor,target,1,3.291
9,38,perceptual,0.03,0.2,competitor,competitor,0,7.164
9,39,numeric,0.03,0.05,competitor,decoy,0,7.053
9,40,numeric,0.03,0.2,competitor,target,1,8.496
9,41,perceptual,0.03,0.2,target,target,1,0.053
9,42,numeric,0.03,0.05,competitor,target,1,5.071
9,43,numeric,0.1,0.2,competitor,competitor,0,5.066
9,44,perceptual,0.1,0.05,target,target,1,3.724
9,45,perceptual,0.1,0.2,target,target,1,3.734
9,46,perceptual,0.03,0.2,competitor,target,1,2.204
9,47,numeric,0.1,0.2,competitor,target,1,5.99
9,48,numeric,0.03,0.05,target,target,1,7.186
9,49,perceptual,0.1,0.2,competitor,competitor,0,2.559
9,50,numeric,0.03,0.05,competitor,competitor,0,5.917
9,51,perceptual,0.1,0.2,competitor,target,1,2.665
9,52,numeric,0.03,0.2,target,target,1,6.179
9,53,numeric,0.03,0.2,competitor,competitor,0,4.697
9,54,numeric,0.03,0.05,target,competitor,0,7.405
9,55,numeric,0.1,0.05,competitor,target,1,7.251
9,56,numeric,0.1,0.05,target,target,1,6.455
9,57,perceptual,0.03,0.05,competitor,competitor,0,3.749
9,58,numeric,0.03,0.2,competitor,target,1,5.571
9,59,numeric,0.1,0.05,competitor,target,1,6.072
9,60,perceptual,0.1,0.05,competitor,target,1,3.357
9,61,perceptual,0.03,0.2,competitor,target,1,3.099
9,62,perceptual,0.03,0.05,target,target,1,3.29
9,63,numeric,0.03,0.05,competitor,competitor,0,7.899
9,64,numeric,0.03,0.2,target,target,1,5.461
9,65,perceptual,0.1,0.05,target,decoy,0,4.672
9,66,numeric,0.1,0.2,competitor,target,1,5.938
9,67,numeric,0.1,0.05,target,target,1,7.506
9,68,numeric,0.03,0.2,target,target,1,6.571
9,69,perceptual,0.03,0.2,competitor,competitor,0,2.874
9,70,perceptual,0.1,0.2,target,target,1,3.548
9,71,perceptual,0.03,0.05,competitor,target,1,4.416
9,72,perceptual,0.1,0.05,target,competitor,0,4.598
9,73,numeric,0.1,0.2,target,target,1,5.197
9,74,perceptual,0.1,0.2,competitor,competitor,0,3.348
9,75,numeric,0.03,0.2,competitor,target,1,4.715
9,76,perceptual,0.03,0.2,competitor,target,1,2.496
9,77,numeric,0.1,0.2,competitor,competitor,0,2.915
9,78,perceptual,0.03,0.05,target,decoy,0,2.443
9,79,perceptual,0.03,0.05,competitor,target,1,4.812
9,80,perceptual,0.03,0.2,target,target,1,2.771
9,81,perceptual,0.1,0.2,target,target,1,3.36
9,82,numeric,0.03,0.2,target,target,1,5.864
9,83,numeric,0.1,0.05,target,target,1,6.279
9,84,perceptual,0.1,0.05,target,target,1,2.288
9,85,numeric,0.03,0.2,competitor,competitor,0,3.234
9,86,perceptual,0.03,0.05,target,target,1,4.748
9,87,numeric,0.03,0.2,target,target,1,4.203
9,88,perceptual,0.03,0.05,competitor,competitor,0,3.051
9,89,numeric,0.03,0.2,target,target,1,6.118
9,90,numeric,0.1,0.2,competitor,target,1,5.152
9,91,numeric,0.1,0.2,target,target,1,7.248
9,92,perceptual,0.03,0.2,competitor,target,1,2.968
9,93,perceptual,0.03,0.05,competitor,target,1,3.122
9,94,numeric,0.1,0.05,competitor,target,1,5.389
9,95,numeric,0.1,0.05,target,decoy,0,5.122
9,96,perceptual,0.1,0.05,competitor,competitor,0,3.266
9,97,numeric,0.1,0.05,target,target,1,4.158
9,98,numeric,0.03,0.05,target,target,1,7.206
9,99,perceptual,0.03,0.05,target,decoy,0,2.663
9,100,perceptual,0.03,0.2,target,competitor,0,3.661
9,101,numeric,0.03,0.2,competitor,target,1,7.037
9,102,numeric,0.03,0.05,target,target,1,9.028
9,103,perceptual,0.1,0.05,competitor,competitor,0,3.579
9,104,perceptual,0.1,0.2,target,competitor,0,4.985
9,105,perceptual,0.1,0.05,target,decoy,0,3.714
9,106,perceptual,0.1,0.05,target,decoy,0,3.766
9,107,numeric,0.1,0.05,competitor,competitor,0,5.348
9,108,perceptual,0.03,0.2,competitor,competitor,0,3.554
9,109,numeric,0.1,0.05,target,target,1,4.914
9,110,numeric,0.03,0.05,competitor,target,1,7.163
9,111,perceptual,0.1,0.2,competitor,target,1,2.61
9,112,numeric,0.1,0.2,competitor,target,1,14.911
9,113,perceptual,0.1,0.2,target,target,1,3.178
9,114,numeric,0.03,0.2,target,competitor,0,5.168
9,115,perceptual,0.1,0.05,competitor,competitor,0,3.418
9,116,numeric,0.03,0.05,competitor,target,1,10.148
9,117,perceptual,0.1,0.2,competitor,target,1,2.476
9,118,numeric,0.1,0.05,competitor,target,1,6.014
9,119,numeric,0.1,0.05,competitor,target,1,5.385
9,120,perceptual,0.03,0.2,competitor,target,1,3.551
9,121,numeric,0.03,0.2,target,target,1,7.522
9,122,numeric,0.1,0.05,competitor,target,1,8.435
9,123,numeric,0.03,0.05,competitor,decoy,0,8.102
9,124,numeric,0.1,0.2,competitor,target,1,9.921
9,125,numeric,0.03,0.2,competitor,competitor,0,5.637
9,126,perceptual,0.1,0.2,competitor,target,1,3.231
9,127,numeric,0.1,0.2,target,target,1,7.38
9,128,numeric,0.1,0.2,target,target,1,7.615
9,129,numeric,0.1,0.2,competitor,target,1,5.177
9,130,numeric,0.03,0.05,target,competitor,0,5.03
9,131,numeric,0.1,0.05,competitor,target,1,5.352
9,132,perceptual,0.03,0.05,target,target,1,3.965
9,133,perceptual,0.03,0.2,competitor,competitor,0,3.129
9,134,perceptual,0.03,0.2,target,target,1,2.732
9,135,perceptual,0.03,0.05,target,competitor,0,4.4
9,136,perceptual,0.03,0.2,target,target,1,2.985
9,137,perceptual,0.1,0.2,target,target,1,3.246
9,138,numeric,0.03,0.05,competitor,target,1,9.422
9,139,numeric,0.1,0.2,competitor,target,1,7.651
9,140,perceptual,0.03,0.2,competitor,competitor,0,5.15
9,141,numeric,0.1,0.05,target,target,1,3.814
9,142,numeric,0.03,0.05,competitor,target,1,5.862
9,143,perceptual,0.1,0.2,competitor,target,1,3.901
9,144,numeric,0.1,0.2,target,target,1,4.874
9,145,numeric,0.03,0.05,competitor,target,1,5.138
9,146,perceptual,0.03,0.2,target,target,1,2.444
9,147,perceptual,0.03,0.05,target,competitor,0,4.908
9,148,numeric,0.1,0.05,target,target,1,6.584
9,149,perceptual,0.1,0.2,target,competitor,0,4.699
9,150,perceptual,0.03,0.2,target,competitor,0,2.482
9,151,numeric,0.03,0.05,target,target,1,4.709
9,152,perceptual,0.1,0.2,competitor,target,1,2.295
9,153,perceptual,0.1,0.2,target,competitor,0,2.851
9,154,perceptual,0.1,0.05,target,target,1,4.274
9,155,perceptual,0.1,0.05,competitor,target,1,3.771
9,156,numeric,0.1,0.05,target,target,1,3.853
9,157,perceptual,0.03,0.2,target,target,1,2.601
9,158,numeric,0.03,0.05,competitor,competitor,0,5.171
9,159,perceptual,0.1,0.2,target,competitor,0,2.648
9,160,perceptual,0.03,0.05,target,target,1,2.282
9,161,perceptual,0.1,0.05,competitor,target,1,4.316
9,162,numeric,0.03,0.05,competitor,target,1,4.068
9,163,perceptual,0.1,0.2,competitor,target,1,2.715
9,164,perceptual,0.1,0.05,competitor,target,1,3.043
9,165,perceptual,0.1,0.2,competitor,competitor,0,3.063
9,166,numeric,0.03,0.2,target,target,1,9.041
9,167,perceptual,0.03,0.2,competitor,competitor,0,2.834
9,168,numeric,0.1,0.05,target,target,1,4.449
9,169,numeric,0.1,0.2,competitor,target,1,7.973
9,170,perceptual,0.03,0.05,target,competitor,0,2.433
9,171,numeric,0.1,0.05,competitor,competitor,0,8.787
9,172,perceptual,0.03,0.2,target,competitor,0,3.2
9,173,numeric,0.1,0.2,target,target,1,8.855
9,174,perceptual,0.03,0.2,competitor,target,1,2.532
9,175,perceptual,0.1,0.05,target,competitor,0,1.987
9,176,numeric,0.1,0.2,competitor,target,1,4.356
9,177,perceptual,0.1,0.05,competitor,decoy,0,4.585
9,178,perceptual,0.03,0.2,target,decoy,0,2.511
9,179,perceptual,0.03,0.2,target,competitor,0,2.925
9,180,perceptual,0.1,0.2,target,competitor,0,3.229
9,181,numeric,0.03,0.2,competitor,competitor,0,7.757
9,182,perceptual,0.03,0.05,competitor,target,1,3.332
9,183,perceptual,0.1,0.05,competitor,target,1,2.637
9,184,perceptual,0.1,0.05,target,competitor,0,3.398
9,185,perceptual,0.1,0.05,competitor,target,1,3.065
9,186,numeric,0.1,0.05,target,target,1,6.376
9,187,numeric,0.1,0.2,target,target,1,4.413
9,188,perceptual,0.03,0.05,competitor,competitor,0,2.229
9,189,perceptual,0.1,0.05,target,decoy,0,4.778
9,190,perceptual,0.03,0.05,target,competitor,0,3.111
9,191,numeric,0.03,0.2,competitor,target,1,4.194
9,192,numeric,0.1,0.05,target,target,1,5.492
10,1,numeric,0.03,0.05,target,target,1,6.345
10,2,numeric,0.03,0.05,competitor,competitor,0,7.18
10,3,numeric,0.1,0.2,target,target,1,4.658
10,4,perceptual,0.1,0.2,target,target,1,4.168
10,5,numeric,0.1,0.2,target,target,1,5.263
10,6,perceptual,0.03,0.2,target,target,1,3.46
10,7,perceptual,0.03,0.05,target,competitor,0,3.074
10,8,numeric,0.1,0.2,target,target,1,5.573
10,9,perceptual,0.1,0.2,competitor,target,1,3.103
10,10,numeric,0.03,0.05,competitor,competitor,0,5.253
10,11,numeric,0.03,0.2,competitor,competitor,0,8.617
10,12,perceptual,0.03,0.2,target,target,1,4.218
10,13,perceptual,0.03,0.05,competitor,target,1,3.058
10,14,numeric,0.1,0.05,competitor,target,1,9.478
10,15,perceptual,0.1,0.05,target,competitor,0,4.149
10,16,perceptual,0.03,0.05,target,target,1,2.892
10,17,perceptual,0.03,0.2,competitor,competitor,0,2.961
10,18,numeric,0.03,0.2,target,target,1,4.308
10,19,numeric,0.03,0.05,target,target,1,6.61
10,20,numeric,0.03,0.2,competitor,target,1,7.279
10,21,numeric,0.1,0.2,competitor,target,1,8.209
10,22,numeric,0.03,0.05,competitor,target,1,3.872
10,23,perceptual,0.1,0.05,competitor,target,1,4.308
10,24,numeric,0.1,0.05,target,target,1,7.569
10,25,perceptual,0.1,0.2,competitor,target,1,6.6
10,26,perceptual,0.03,0.05,competitor,competitor,0,4.301
10,27,perceptual,0.03,0.05,competitor,decoy,0,4.08
10,28,perceptual,0.03,0.2,competitor,competitor,0,2.912
10,29,perceptual,0.03,0.05,competitor,competitor,0,4.451
10,30,perceptual,0.03,0.2,target,competitor,0,3.295
10,31,perceptual,0.1,0.05,target,target,1,5.795
10,32,numeric,0.03,0.2,target,target,1,7.277
10,33,numeric,0.03,0.05,target,target,1,4.148
10,34,numeric,0.03,0.05,competitor,competitor,0,7.642
10,35,numeric,0.03,0.05,competitor,target,1,10.892
10,36,perceptual,0.03,0.05,target,decoy,0,4.518
10,37,numeric,0.1,0.2,target,target,1,5.065
10,38,numeric,0.1,0.05,target,competitor,0,13.343
10,39,numeric,0.03,0.05,competitor,target,1,7.13
10,40,perceptual,0.03,0.2,target,target,1,4.737
10,41,numeric,0.1,0.2,target,target,1,6.486
10,42,perceptual,0.1,0.2,target,target,1,3.408
10,43,perceptual,0.03,0.05,competitor,target,1,3.985
10,44,perceptual,0.03,0.2,target,competitor,0,3.529
10,45,perceptual,0.1,0.2,competitor,target,1,4.56
10,46,perceptual,0.1,0.05,competitor,target,1,3.158
10,47,perceptual,0.03,0.2,competitor,target,1,2.856
10,48,perceptual,0.1,0.05,target,target,1,5.713
10,49,numeric,0.1,0.2,competitor,target,1,5.818
10,50,numeric,0.03,0.2,target,competitor,0,6.392
10,51,perceptual,0.03,0.2,competitor,target,1,3.208
10,52,numeric,0.1,0.05,target,target,1,9.806
10,53,numeric,0.03,0.2,target,competitor,0,6.559
10,54,numeric,0.1,0.05,competitor,target,1,4.423
10,55,numeric,0.03,0.2,target,competitor,0,3.347
10,56,numeric,0.1,0.2,target,target,1,8.4
10,57,perceptual,0.03,0.05,target,target,1,5.637
10,58,numeric,0.03,0.05,target,competitor,0,6.771
10,59,numeric,0.1,0.2,competitor,target,1,7.667
10,60,numeric,0.1,0.05,target,target,1,7.357
10,61,numeric,0.1,0.05,competitor,target,1,8.947
10,62,perceptual,0.03,0.2,competitor,competitor,0,3.798
10,63,perceptual,0.03,0.2,competitor,competitor,0,2.857
10,64,numeric,0.1,0.05,target,target,1,5.992
10,65,perceptual,0.03,0.05,competitor,target,1,4.409
10,66,perceptual,0.1,0.05,competitor,target,1,5.318
10,67,numeric,0.03,0.2,competitor,target,1,6.255
10,68,numeric,0.1,0.05,competitor,target,1,4.573
10,69,perceptual,0.03,0.05,target,target,1,5.128
10,70,perceptual,0.1,0.2,target,target,1,4.307
10,71,perceptual,0.03,0.05,competitor,target,1,3.151
10,72,perceptual,0.03,0.2,competitor,target,1,5.027
10,73,numeric,0.1,0.2,target,target,1,8.835
10,74,perceptual,0.03,0.2,competitor,competitor,0,3.072
10,75,numeric,0.1,0.2,target,target,1,12.99
10,76,perceptual,0.1,0.05,competitor,target,1,3.265
10,77,numeric,0.1,0.2,target,target,1,6.917
10,78,numeric,0.03,0.05,target,target,1,6.308
10,79,perceptual,0.03,0.2,target,competitor,0,5.436
10,80,perceptual,0.03,0.05,target,decoy,0,4.589
10,81,numeric,0.03,0.05,target,target,1,7.436
10,82,numeric,0.03,0.2,competitor,target,1,6.173
10,83,perceptual,0.1,0.05,target,target,1,6.893
10,84,perceptual,0.1,0.05,target,target,1,3.451
10,85,numeric,0.1,0.2,competitor,target,1,7.064
10,86,perceptual,0.1,0.2,competitor,target,1,2.614
10,87,numeric,0.03,0.2,target,target,1,8.253
10,88,perceptual,0.1,0.05,competitor,target,1,3.836
10,89,perceptual,0.1,0.05,competitor,competitor,0,5.792
10,90,perceptual,0.1,0.2,target,target,1,4.101
10,91,perceptual,0.1,0.2,competitor,target,1,3.16
10,92,perceptual,0.03,0.05,target,competitor,0,4.209
10,93,numeric,0.1,0.2,target,target,1,6.581
10,94,perceptual,0.1,0.2,target,target,1,4.357
10,95,numeric,0.03,0.2,competitor,target,1,6.997
10,96,numeric,0.03,0.2,target,target,1,8.943
10,97,numeric,0.1,0.2,target,competitor,0,8.516
10,98,perceptual,0.03,0.05,competitor,target,1,6.114
10,99,numeric,0.1,0.2,competitor,target,1,5.262
10,100,numeric,0.03,0.2,competitor,competitor,0,10.726
10,101,numeric,0.03,0.2,target,target,1,10.633
10,102,numeric,0.1,0.2,competitor,target,1,6.816
10,103,perceptual,0.1,0.2,target,target,1,5.325
10,104,numeric,0.1,0.05,competitor,target,1,6.907
10,105,numeric,0.03,0.2,competitor,target,1,8.034
10,106,numeric,0.1,0.05,competitor,target,1,5.652
10,107,perceptual,0.03,0.2,target,target,1,5.1
10,108,perceptual,0.1,0.05,target,target,1,7.212
10,109,perceptual,0.03,0.2,target,target,1,5.835
10,110,perceptual,0.1,0.05,competitor,competitor,0,3.603
10,111,perceptual,0.1,0.05,target,decoy,0,4.16
10,112,perceptual,0.03,0.05,target,target,1,3.044
10,113,numeric,0.03,0.2,target,target,1,5.718
10,114,perceptual,0.1,0.05,competitor,target,1,5.55
10,115,numeric,0.1,0.2,competitor,target,1,5.333
10,116,numeric,0.1,0.2,competitor,target,1,4.341
10,117,numeric,0.03,0.05,target,target,1,7.886
10,118,perceptual,0.03,0.05,competitor,target,1,2.992
10,119,perceptual,0.1,0.05,target,target,1,3.056
10,120,perceptual,0.03,0.05,competitor,decoy,0,4.48
10,121,perceptual,0.03,0.05,target,target,1,4.215
10,122,perceptual,0.1,0.05,competitor,target,1,3.009
10,123,numeric,0.03,0.2,competitor,competitor,0,10.119
10,124,perceptual,0.03,0.2,competitor,competitor,0,3.856
10,125,numeric,0.03,0.05,competitor,competitor,0,8.242
10,126,numeric,0.03,0.05,competitor,competitor,0,6.259
10,127,perceptual,0.1,0.2,competitor,target,1,3.64
10,128,numeric,0.1,0.2,target,target,1,7.879
10,129,numeric,0.03,0.05,target,target,1,7.714
10,130,perceptual,0.03,0.2,target,competitor,0,3.241
10,131,numeric,0.1,0.05,competitor,target,1,4.797
10,132,numeric,0.03,0.2,competitor,target,1,8.488
10,133,numeric,0.03,0.2,competitor,target,1,5.266
10,134,perceptual,0.1,0.2,competitor,target,1,3.287
10,135,perceptual,0.03,0.05,competitor,target,1,3.736
10,136,numeric,0.03,0.05,competitor,target,1,8.95
10,137,numeric,0.1,0.05,target,target,1,3.934
10,138,numeric,0.1,0.05,competitor,target,1,9.093
10,139,perceptual,0.1,0.2,competitor,target,1,3.139
10,140,numeric,0.03,0.2,target,target,1,8.025
10,141,numeric,0.1,0.2,competitor,target,1,9.812
10,142,numeric,0.03,0.2,target,target,1,4.783
10,143,perceptual,0.1,0.05,competitor,decoy,0,4.039
10,144,numeric,0.1,0.05,competitor,competitor,0,7.336
10,145,perceptual,0.03,0.05,competitor,competitor,0,4.468
10,146,numeric,0.1,0.2,competitor,target,1,4.507
10,147,perceptual,0.1,0.2,competitor,target,1,3.539
10,148,perceptual,0.03,0.2,target,target,1,5.617
10,149,numeric,0.1,0.2,competitor,decoy,0,9.323
10,150,numeric,0.03,0.05,competitor,target,1,5.336
10,151,perceptual,0.03,0.2,target,target,1,5.192
10,152,numeric,0.03,0.05,target,competitor,0,7.457
10,153,perceptual,0.03,0.2,competitor,target,1,7.085
10,154,numeric,0.03,0.05,competitor,target,1,5.174
10,155,numeric,0.1,0.05,target,target,1,6.203
10,156,perceptual,0.1,0.2,competitor,target,1,3.205
10,157,numeric,0.1,0.05,competitor,target,1,5.635
10,158,perceptual,0.03,0.05,target,target,1,3.499
10,159,perceptual,0.1,0.2,target,target,1,3.011
10,160,numeric,0.03,0.2,competitor,competitor,0,10.401
10,161,numeric,0.03,0.2,target,target,1,6.881
10,162,numeric,0.1,0.05,target,target,1,11.117
10,163,perceptual,0.1,0.2,target,target,1,2.758
10,164,perceptual,0.1,0.2,target,competitor,0,4.757
10,165,perceptual,0.1,0.2,target,competitor,0,3.88
10,166,perceptual,0.1,0.05,target,target,1,5.856
10,167,numeric,0.03,0.05,target,target,1,4.254
10,168,perceptual,0.1,0.05,target,competitor,0,0.152
10,169,perceptual,0.1,0.2,competitor,target,1,3.516
10,170,perceptual,0.1,0.2,target,target,1,5.134
10,171,numeric,0.1,0.05,target,target,1,6.356
10,172,numeric,0.1,0.2,competitor,competitor,0,9.248
10,173,numeric,0.1,0.05,target,target,1,5.011
10,174,numeric,0.1,0.05,target,target,1,5.746
10,175,numeric,0.03,0.05,competitor,competitor,0,12.207
10,176,perceptual,0.1,0.2,target,target,1,4.83
10,177,perceptual,0.03,0.05,target,target,1,4.744
10,178,numeric,0.1,0.05,target,target,1,5.775
10,179,perceptual,0.1,0.05,target,decoy,0,5.254
10,180,perceptual,0.1,0.05,target,target,1,2.71
10,181,numeric,0.1,0.05,competitor,competitor,0,5.277
10,182,perceptual,0.1,0.05,competitor,competitor,0,3.627
10,183,perceptual,0.03,0.05,target,target,1,5.022
10,184,numeric,0.03,0.05,target,competitor,0,9.124
10,185,numeric,0.1,0.05,competitor,target,1,7.653
10,186,perceptual,0.03,0.2,competitor,target,1,3.488
10,187,perceptual,0.1,0.05,competitor,target,1,2.872
10,188,numeric,0.03,0.05,target,competitor,0,8.408
10,189,perceptual,0.03,0.2,target,target,1,3.68
10,190,perceptual,0.03,0.2,competitor,target,1,5.012
10,191,perceptual,0.1,0.2,competitor,target,1,2.718
10,192,numeric,0.03,0.2,competitor,competitor,0,11.096
11,1,numeric,0.1,0.05,target,competitor,0,8.545
11,2,perceptual,0.1,0.05,competitor,target,1,6.388
11,3,perceptual,0.03,0.05,target,target,1,9.68
11,4,perceptual,0.03,0.2,competitor,competitor,0,7.358
11,5,numeric,0.03,0.05,target,target,1,8.042
11,6,numeric,0.1,0.2,target,target,1,5.797
11,7,numeric,0.03,0.2,competitor,competitor,0,9.622
11,8,perceptual,0.1,0.2,competitor,decoy,0,5.94
11,9,perceptual,0.1,0.2,competitor,target,1,8.737
11,10,numeric,0.1,0.05,target,target,1,9.966
11,11,perceptual,0.03,0.05,competitor,competitor,0,8.727
11,12,numeric,0.1,0.2,target,target,1,10.429
11,13,numeric,0.03,0.2,target,competitor,0,7.993
11,14,perceptual,0.1,0.05,target,competitor,0,5.134
11,15,numeric,0.03,0.2,competitor,competitor,0,8.351
11,16,numeric,0.03,0.2,competitor,competitor,0,13.189
11,17,numeric,0.1,0.05,competitor,target,1,7.711
11,18,numeric,0.03,0.2,competitor,decoy,0,12.012
11,19,perceptual,0.03,0.05,competitor,target,1,6.189
11,20,perceptual,0.1,0.2,target,competitor,0,4.81
11,21,perceptual,0.03,0.05,target,target,1,7.507
11,22,perceptual,0.03,0.05,competitor,competitor,0,7.578
11,23,numeric,0.1,0.05,target,target,1,10.039
11,24,numeric,0.1,0.05,competitor,competitor,0,8.644
11,25,perceptual,0.1,0.05,competitor,competitor,0,6.646
11,26,perceptual,0.03,0.05,target,target,1,8.539
11,27,numeric,0.1,0.2,competitor,target,1,6.466
11,28,perceptual,0.03,0.05,target,target,1,9.036
11,29,perceptual,0.1,0.2,competitor,decoy,0,5.455
11,30,numeric,0.1,0.2,target,competitor,0,12.371
11,31,numeric,0.1,0.05,target,decoy,0,8.279
11,32,perceptual,0.03,0.2,target,decoy,0,4.427
11,33,numeric,0.1,0.2,competitor,competitor,0,5.889
11,34,numeric,0.03,0.05,competitor,competitor,0,10.661
11,35,perceptual,0.1,0.2,target,target,1,4.204
11,36,perceptual,0.1,0.2,target,decoy,0,6.561
11,37,numeric,0.1,0.2,competitor,target,1,7.021
11,38,perceptual,0.03,0.2,competitor,competitor,0,7.127
11,39,numeric,0.03,0.05,target,target,1,7.195
11,40,numeric,0.1,0.05,target,target,1,8.032
11,41,numeric,0.03,0.2,target,target,1,8.435
11,42,numeric,0.03,0.05,target,target,1,15.076
11,43,numeric,0.03,0.2,target,target,1,8.363
11,44,numeric,0.03,0.2,target,target,1,7.094
11,45,numeric,0.03,0.05,target,competitor,0,5.043
11,46,numeric,0.1,0.2,competitor,target,1,11.115
11,47,perceptual,0.1,0.05,competitor,target,1,5.818
11,48,perceptual,0.1,0.2,target,target,1,6.738
11,49,perceptual,0.03,0.05,target,decoy,0,5.238
11,50,perceptual,0.1,0.05,target,decoy,0,5.778
11,51,perceptual,0.1,0.05,competitor,decoy,0,4.845
11,52,numeric,0.1,0.2,target,competitor,0,6.26
11,53,numeric,0.03,0.2,target,target,1,9.966
11,54,numeric,0.03,0.05,competitor,target,1,8.093
11,55,perceptual,0.1,0.05,target,decoy,0,4.855
11,56,perceptual,0.03,0.2,competitor,decoy,0,5.309
11,57,numeric,0.03,0.05,competitor,target,1,11.291
11,58,numeric,0.1,0.05,target,target,1,8.196
11,59,numeric,0.03,0.2,target,competitor,0,6.449
11,60,numeric,0.03,0.2,target,target,1,14.003
11,61,perceptual,0.03,0.05,target,target,1,5.904
11,62,perceptual,0.03,0.2,competitor,target,1,4.324
11,63,perceptual,0.03,0.05,competitor,target,1,3.584
11,64,numeric,0.1,0.2,competitor,target,1,12.457
11,65,perceptual,0.03,0.05,competitor,competitor,0,6.22
11,66,perceptual,0.1,0.2,competitor,competitor,0,6.841
11,67,perceptual,0.1,0.05,target,decoy,0,5.212
11,68,numeric,0.03,0.2,competitor,competitor,0,5.849
11,69,numeric,0.03,0.2,target,target,1,4.256
11,70,numeric,0.03,0.05,competitor,target,1,12.032
11,71,perceptual,0.03,0.2,target,target,1,6.626
11,72,perceptual,0.1,0.2,target,target,1,9.792
11,73,numeric,0.03,0.05,competitor,competitor,0,6.589
11,74,perceptual,0.03,0.05,competitor,decoy,0,4.383
11,75,perceptual,0.1,0.2,competitor,target,1,3.506
11,76,numeric,0.03,0.2,competitor,target,1,6.893
11,77,numeric,0.03,0.2,target,target,1,9.093
11,78,numeric,0.03,0.2,competitor,target,1,6.134
11,79,numeric,0.1,0.05,competitor,target,1,10.987
11,80,perceptual,0.1,0.05,target,decoy,0,6.938
11,81,numeric,0.1,0.05,competitor,target,1,5.719
11,82,numeric,0.03,0.05,target,competitor,0,5.665
11,83,perceptual,0.1,0.2,target,target,1,8.937
11,84,perceptual,0.03,0.2,target,target,1,4.296
11,85,numeric,0.1,0.2,target,target,1,6.297
11,86,numeric,0.1,0.05,competitor,target,1,10.109
11,87,perceptual,0.1,0.05,competitor,target,1,7.179
11,88,perceptual,0.03,0.2,competitor,target,1,5.291
11,89,perceptual,0.1,0.05,competitor,target,1,9.689
11,90,perceptual,0.1,0.05,competitor,target,1,7.925
11,91,perceptual,0.03,0.05,competitor,target,1,11.615
11,92,numeric,0.03,0.05,target,competitor,0,7.454
11,93,perceptual,0.03,0.2,competitor,target,1,13.968
11,94,perceptual,0.1,0.2,competitor,target,1,4.173
11,95,perceptual,0.03,0.2,competitor,competitor,0,6.455
11,96,numeric,0.03,0.2,target,competitor,0,5.194
11,97,numeric,0.1,0.2,competitor,competitor,0,8.586
11,98,numeric,0.1,0.05,target,competitor,0,9.904
11,99,perceptual,0.03,0.05,target,target,1,5.567
11,100,perceptual,0.1,0.05,target,target,1,5.28
11,101,perceptual,0.03,0.2,target,competitor,0,6.553
11,102,numeric,0.03,0.05,competitor,competitor,0,9.32
11,103,numeric,0.03,0.2,competitor,competitor,0,5.98
11,104,perceptual,0.03,0.05,target,target,1,4.04
11,105,numeric,0.1,0.2,target,target,1,13.142
11,106,numeric,0.03,0.2,competitor,competitor,0,8.697
11,107,numeric,0.1,0.05,competitor,target,1,5.565
11,108,numeric,0.1,0.2,competitor,competitor,0,11.707
11,109,perceptual,0.1,0.2,competitor,target,1,6.052
11,110,numeric,0.03,0.05,target,target,1,6.733
11,111,numeric,0.03,0.05,target,target,1,11.063
11,112,perceptual,0.1,0.05,competitor,target,1,8.293
11,113,perceptual,0.03,0.05,target,competitor,0,6.351
11,114,perceptual,0.1,0.05,target,target,1,8.939
11,115,numeric,0.1,0.05,competitor,decoy,0,9.826
11,116,perceptual,0.03,0.05,competitor,decoy,0,4.482
11,117,numeric,0.1,0.05,competitor,target,1,7.735
11,118,perceptual,0.1,0.2,competitor,target,1,8.185
11,119,perceptual,0.1,0.05,target,target,1,9.142
