participant,trial_counter,condition,target_to_competitor,decoy_reduction,decoy_on,chosen_item,correct,rt
1,1,numeric,0.1,0.05,target,target,1,10.139
1,2,numeric,0.03,0.05,target,target,1,7.916
1,3,numeric,0.03,0.2,target,target,1,7.49
1,4,perceptual,0.03,0.2,target,competitor,0,10.768
1,5,numeric,0.1,0.05,competitor,target,1,8.773
1,6,perceptual,0.03,0.05,competitor,target,1,6.561
1,7,numeric,0.03,0.05,competitor,target,1,11.181
1,8,numeric,0.1,0.05,target,target,1,8.463
1,9,perceptual,0.1,0.05,target,target,1,4.486
1,10,perceptual,0.03,0.2,competitor,target,1,6.113
1,11,perceptual,0.1,0.2,competitor,competitor,0,5.579
1,12,numeric,0.1,0.05,competitor,target,1,10.589
1,13,perceptual,0.1,0.05,competitor,target,1,4.667
1,14,perceptual,0.1,0.2,competitor,target,1,5.746
1,15,numeric,0.03,0.2,target,target,1,6.228
1,16,perceptual,0.03,0.2,competitor,target,1,8.069
1,17,perceptual,0.03,0.2,competitor,target,1,4.368
1,18,numeric,0.1,0.2,target,target,1,8.743
1,19,numeric,0.03,0.05,target,target,1,9.462
1,20,perceptual,0.1,0.2,target,target,1,6.176
1,21,perceptual,0.03,0.05,competitor,target,1,5.73
1,22,numeric,0.1,0.2,target,target,1,8.497
1,23,numeric,0.1,0.2,target,target,1,7.998
1,24,numeric,0.03,0.05,target,target,1,6.769
1,25,numeric,0.1,0.05,target,target,1,6.514
1,26,numeric,0.03,0.2,target,target,1,7.625
1,27,perceptual,0.1,0.2,target,target,1,4.725
1,28,numeric,0.1,0.2,competitor,target,1,7.477
1,29,perceptual,0.1,0.2,target,target,1,5.146
1,30,numeric,0.03,0.05,competitor,target,1,6.731
1,31,perceptual,0.1,0.2,competitor,target,1,5.348
1,32,perceptual,0.1,0.05,competitor,target,1,6.955
1,33,perceptual,0.03,0.05,target,competitor,0,7.519
1,34,perceptual,0.1,0.2,competitor,target,1,4.749
1,35,numeric,0.1,0.2,target,target,1,5.974
1,36,perceptual,0.03,0.05,target,target,1,8.009
1,37,numeric,0.1,0.2,competitor,target,1,8.776
1,38,perceptual,0.03,0.05,competitor,target,1,9.089
1,39,perceptual,0.1,0.2,target,target,1,5.569
1,40,numeric,0.03,0.2,competitor,competitor,0,8.3
1,41,numeric,0.1,0.2,target,target,1,5.868
1,42,numeric,0.1,0.05,target,target,1,6.235
1,43,perceptual,0.03,0.05,target,target,1,8.219
1,44,perceptual,0.1,0.2,competitor,target,1,3.721
1,45,perceptual,0.03,0.2,target,target,1,3.309
1,46,perceptual,0.1,0.05,competitor,target,1,4.226
1,47,perceptual,0.1,0.2,target,target,1,6.622
1,48,perceptual,0.03,0.2,target,target,1,4.777
1,49,numeric,0.1,0.2,competitor,target,1,5.254
1,50,perceptual,0.1,0.05,competitor,target,1,3.345
1,51,perceptual,0.1,0.2,target,target,1,6.351
1,52,numeric,0.03,0.2,competitor,target,1,8.205
1,53,perceptual,0.03,0.05,target,competitor,0,8.623
1,54,numeric,0.03,0.05,target,target,1,6.667
1,55,perceptual,0.1,0.2,competitor,target,1,4.813
1,56,perceptual,0.03,0.2,target,competitor,0,5.25
1,57,numeric,0.1,0.05,target,target,1,7.817
1,58,numeric,0.1,0.2,target,target,1,9.046
1,59,perceptual,0.1,0.2,competitor,target,1,3.978
1,60,numeric,0.03,0.2,competitor,competitor,0,6.614
1,61,numeric,0.03,0.2,target,target,1,8.995
1,62,perceptual,0.03,0.2,competitor,target,1,6.511
1,63,numeric,0.03,0.2,target,target,1,7.79
1,64,perceptual,0.1,0.05,competitor,target,1,3.063
1,65,numeric,0.1,0.05,target,target,1,5.701
1,66,numeric,0.03,0.2,competitor,target,1,7.923
1,67,perceptual,0.1,0.05,competitor,target,1,6.981
1,68,numeric,0.1,0.2,competitor,target,1,7.424
1,69,perceptual,0.03,0.2,competitor,competitor,0,7.335
1,70,numeric,0.03,0.05,competitor,target,1,7.457
1,71,perceptual,0.1,0.2,target,target,1,6.823
1,72,numeric,0.1,0.2,competitor,target,1,7.887
1,73,numeric,0.1,0.05,target,competitor,0,10.804
1,74,perceptual,0.1,0.05,target,decoy,0,8.766
1,75,perceptual,0.1,0.2,target,target,1,5.664
1,76,perceptual,0.03,0.05,competitor,competitor,0,9.325
1,77,perceptual,0.1,0.05,target,target,1,8.284
1,78,numeric,0.03,0.05,competitor,target,1,8.745
1,79,perceptual,0.03,0.05,competitor,target,1,9.205
1,80,numeric,0.03,0.05,target,target,1,7.321
1,81,numeric,0.03,0.2,target,target,1,6.358
1,82,numeric,0.1,0.05,target,competitor,0,8.804
1,83,perceptual,0.1,0.2,target,target,1,4.988
1,84,numeric,0.1,0.2,competitor,competitor,0,6.625
1,85,numeric,0.03,0.05,competitor,target,1,8.835
1,86,perceptual,0.03,0.05,competitor,target,1,7.669
1,87,perceptual,0.1,0.2,target,target,1,5.085
1,88,perceptual,0.03,0.05,target,target,1,6.792
1,89,numeric,0.1,0.05,competitor,target,1,6.264
1,90,numeric,0.03,0.2,target,target,1,4.278
1,91,numeric,0.1,0.05,competitor,competitor,0,8.684
1,92,perceptual,0.03,0.2,target,competitor,0,4.32
1,93,numeric,0.1,0.05,target,target,1,8.212
1,94,perceptual,0.1,0.05,competitor,target,1,6.29
1,95,perceptual,0.03,0.2,target,target,1,4.306
1,96,perceptual,0.1,0.05,target,target,1,7.755
1,97,numeric,0.1,0.2,competitor,target,1,4.998
1,98,perceptual,0.1,0.05,target,target,1,7.103
1,99,numeric,0.03,0.05,competitor,target,1,6.239
1,100,numeric,0.03,0.2,target,target,1,7.047
1,101,numeric,0.03,0.2,competitor,target,1,10.716
1,102,perceptual,0.1,0.05,competitor,target,1,3.916
1,103,numeric,0.1,0.05,target,target,1,11.188
1,104,numeric,0.03,0.2,competitor,target,1,8.045
1,105,numeric,0.03,0.2,target,competitor,0,8.43
1,106,perceptual,0.03,0.05,target,target,1,7.455
1,107,numeric,0.1,0.05,competitor,decoy,0,4.398
1,108,numeric,0.1,0.2,competitor,target,1,6.47
1,109,numeric,0.1,0.05,competitor,target,1,4.609
1,110,numeric,0.03,0.05,competitor,competitor,0,10.357
1,111,numeric,0.1,0.05,competitor,target,1,4.819
1,112,perceptual,0.03,0.05,competitor,competitor,0,3.654
1,113,numeric,0.03,0.2,competitor,competitor,0,4.622
1,114,perceptual,0.1,0.05,target,target,1,6.82
1,115,numeric,0.03,0.05,target,target,1,5.406
1,116,numeric,0.03,0.2,competitor,target,1,6.979
1,117,perceptual,0.1,0.05,target,target,1,3.846
1,118,perceptual,0.1,0.2,target,competitor,0,4.262
1,119,perceptual,0.03,0.05,competitor,target,1,5.759
1,120,perceptual,0.03,0.05,target,target,1,8.628
1,121,perceptual,0.03,0.05,target,target,1,8.43
1,122,perceptual,0.03,0.05,competitor,competitor,0,6.767
1,123,numeric,0.1,0.05,competitor,competitor,0,7.997
1,124,numeric,0.03,0.05,competitor,target,1,9.494
1,125,numeric,0.1,0.2,competitor,target,1,6.571
1,126,perceptual,0.1,0.2,competitor,target,1,4.755
1,127,perceptual,0.1,0.2,competitor,target,1,5.025
1,128,numeric,0.03,0.05,competitor,target,1,9.261
1,129,perceptual,0.03,0.2,target,target,1,5.485
1,130,numeric,0.03,0.05,target,competitor,0,12.835
1,131,perceptual,0.03,0.05,target,target,1,7.946
1,132,perceptual,0.1,0.2,competitor,target,1,7.193
1,133,perceptual,0.03,0.05,target,competitor,0,9.514
1,134,numeric,0.03,0.05,target,target,1,5.12
1,135,perceptual,0.03,0.2,competitor,target,1,6.974
1,136,perceptual,0.03,0.2,competitor,competitor,0,8.733
1,137,numeric,0.03,0.05,competitor,target,1,6.532
1,138,numeric,0.1,0.2,target,target,1,6.939
1,139,numeric,0.03,0.05,competitor,target,1,7.59
1,140,perceptual,0.1,0.2,competitor,target,1,5.093
1,141,numeric,0.03,0.2,competitor,competitor,0,4.494
1,142,perceptual,0.03,0.2,competitor,target,1,6.797
1,143,numeric,0.1,0.05,competitor,target,1,11.104
1,144,perceptual,0.1,0.05,competitor,target,1,7.789
1,145,numeric,0.1,0.05,competitor,competitor,0,7.943
1,146,numeric,0.1,0.05,target,target,1,10.234
1,147,numeric,0.1,0.2,competitor,target,1,8.834
1,148,numeric,0.1,0.05,target,target,1,6.492
1,149,numeric,0.1,0.2,competitor,competitor,0,8.374
1,150,perceptual,0.03,0.2,competitor,target,1,6.79
1,151,numeric,0.03,0.2,target,competitor,0,10.964
1,152,perceptual,0.1,0.05,competitor,target,1,5.323
1,153,numeric,0.03,0.05,target,competitor,0,10.897
1,154,perceptual,0.1,0.2,competitor,target,1,6.093
1,155,numeric,0.03,0.05,target,target,1,10.546
1,156,perceptual,0.03,0.2,target,competitor,0,5.933
1,157,perceptual,0.03,0.2,competitor,target,1,3.618
1,158,perceptual,0.03,0.2,target,target,1,7.526
1,159,numeric,0.1,0.2,target,target,1,5.052
1,160,perceptual,0.03,0.05,competitor,target,1,10.87
1,161,perceptual,0.03,0.05,target,decoy,0,4.729
1,162,numeric,0.03,0.2,competitor,target,1,7.234
1,163,numeric,0.1,0.05,competitor,target,1,13.94
1,164,numeric,0.1,0.2,target,competitor,0,2.61
1,165,perceptual,0.1,0.05,target,target,1,5.333
1,166,perceptual,0.03,0.05,competitor,target,1,5.606
1,167,perceptual,0.03,0.05,competitor,target,1,5.31
1,168,numeric,0.03,0.2,competitor,target,1,5.137
1,169,perceptual,0.03,0.2,target,target,1,5.436
1,170,perceptual,0.03,0.2,target,target,1,5.41
1,171,perceptual,0.1,0.2,target,target,1,4.794
1,172,numeric,0.1,0.2,target,target,1,6.801
1,173,perceptual,0.03,0.2,target,target,1,6.271
1,174,numeric,0.1,0.05,competitor,target,1,9.714
1,175,perceptual,0.1,0.05,competitor,competitor,0,6.443
1,176,numeric,0.1,0.2,competitor,target,1,6.122
1,177,perceptual,0.1,0.05,target,target,1,6.548
1,178,perceptual,0.03,0.05,target,competitor,0,7.05
1,179,numeric,0.03,0.05,competitor,competitor,0,7.535
1,180,perceptual,0.03,0.2,competitor,target,1,8.55
1,181,numeric,0.03,0.05,target,target,1,7.069
1,182,perceptual,0.1,0.05,target,target,1,5.477
1,183,perceptual,0.1,0.05,target,target,1,4.969
1,184,perceptual,0.1,0.05,competitor,target,1,6.494
1,185,numeric,0.03,0.2,target,target,1,4.722
1,186,numeric,0.1,0.2,target,target,1,9.406
1,187,numeric,0.03,0.2,competitor,target,1,5.519
1,188,numeric,0.1,0.2,target,target,1,9.5
1,189,numeric,0.03,0.05,target,competitor,0,6.419
1,190,numeric,0.03,0.2,target,competitor,0,12.482
1,191,perceptual,0.1,0.05,target,target,1,5.261
1,192,perceptual,0.03,0.2,competitor,competitor,0,9.289
2,1,numeric,0.03,0.05,target,target,1,8.381
2,2,perceptual,0.03,0.05,competitor,decoy,0,5.916
2,3,numeric,0.1,0.2,target,target,1,11.468
2,4,perceptual,0.1,0.05,target,competitor,0,11.423
2,5,numeric,0.1,0.2,competitor,target,1,6.005
2,6,numeric,0.03,0.05,target,decoy,0,1.229
2,7,perceptual,0.03,0.2,target,target,1,5.599
2,8,numeric,0.1,0.2,target,target,1,6.558
2,9,numeric,0.1,0.2,target,target,1,5.122
2,10,perceptual,0.03,0.2,target,target,1,3.68
2,11,perceptual,0.03,0.2,target,competitor,0,4.661
2,12,numeric,0.03,0.05,competitor,target,1,3.029
2,13,perceptual,0.1,0.05,competitor,competitor,0,2.633
2,14,numeric,0.1,0.2,competitor,target,1,3.08
2,15,numeric,0.1,0.05,competitor,target,1,3.479
2,16,numeric,0.1,0.05,target,competitor,0,4.144
2,17,numeric,0.1,0.05,target,target,1,5.629
2,18,numeric,0.03,0.05,target,competitor,0,2.962
2,19,perceptual,0.1,0.05,competitor,competitor,0,4.154
2,20,numeric,0.1,0.05,target,competitor,0,3.562
2,21,numeric,0.1,0.2,competitor,competitor,0,2.776
2,22,numeric,0.1,0.05,target,competitor,0,4.412
2,23,numeric,0.1,0.2,competitor,decoy,0,3.658
2,24,numeric,0.03,0.05,competitor,target,1,2.553
2,25,numeric,0.1,0.2,target,target,1,5.49
2,26,perceptual,0.1,0.05,competitor,target,1,3.548
2,27,perceptual,0.1,0.05,competitor,target,1,4.528
2,28,numeric,0.03,0.05,target,target,1,10.237
2,29,perceptual,0.03,0.2,target,competitor,0,3.35
2,30,numeric,0.1,0.2,target,decoy,0,4.715
2,31,numeric,0.1,0.05,competitor,target,1,2.684
2,32,perceptual,0.1,0.05,target,competitor,0,10.403
2,33,numeric,0.03,0.05,competitor,target,1,4.843
2,34,perceptual,0.03,0.05,competitor,target,1,3.818
2,35,perceptual,0.03,0.2,competitor,decoy,0,6.479
2,36,numeric,0.1,0.2,target,decoy,0,5.391
2,37,perceptual,0.1,0.05,target,decoy,0,7.523
2,38,perceptual,0.1,0.05,competitor,target,1,3.864
2,39,perceptual,0.1,0.05,competitor,target,1,5.121
2,40,numeric,0.1,0.05,competitor,target,1,5.864
2,41,perceptual,0.03,0.2,target,decoy,0,3.651
2,42,perceptual,0.03,0.05,competitor,target,1,4.34
2,43,numeric,0.03,0.2,competitor,competitor,0,5.266
2,44,perceptual,0.03,0.2,competitor,target,1,5.163
2,45,perceptual,0.03,0.2,target,competitor,0,7.362
2,47,perceptual,0.03,0.2,competitor,competitor,0,2.326
2,48,perceptual,0.1,0.2,target,competitor,0,3.559
2,49,perceptual,0.03,0.2,target,target,1,2.406
2,50,numeric,0.03,0.2,competitor,target,1,2.691
2,51,perceptual,0.03,0.05,target,competitor,0,4.776
2,52,perceptual,0.03,0.05,competitor,competitor,0,4.257
2,53,perceptual,0.03,0.05,competitor,target,1,3.574
2,54,numeric,0.1,0.05,target,target,1,3.8
2,55,numeric,0.03,0.2,target,target,1,4.066
2,56,numeric,0.1,0.05,competitor,decoy,0,12.806
2,57,numeric,0.03,0.2,target,target,1,2.956
2,58,perceptual,0.03,0.2,competitor,competitor,0,2.026
2,59,perceptual,0.03,0.05,competitor,competitor,0,2.559
2,60,perceptual,0.1,0.2,target,target,1,3.765
2,61,perceptual,0.03,0.2,target,competitor,0,2.73
2,62,perceptual,0.03,0.05,target,decoy,0,3.408
2,63,numeric,0.03,0.2,target,competitor,0,6.687
2,64,perceptual,0.03,0.05,target,decoy,0,3.105
2,65,numeric,0.1,0.2,competitor,competitor,0,4.368
2,66,numeric,0.1,0.05,competitor,target,1,3.232
2,67,numeric,0.1,0.05,competitor,competitor,0,3.392
2,68,perceptual,0.1,0.05,target,competitor,0,3.033
2,69,numeric,0.03,0.05,competitor,target,1,1.994
2,70,numeric,0.03,0.05,target,competitor,0,4.562
2,71,perceptual,0.1,0.2,competitor,target,1,2.55
2,72,perceptual,0.1,0.05,competitor,target,1,4.187
2,73,perceptual,0.1,0.2,target,target,1,2.998
2,74,perceptual,0.03,0.2,competitor,target,1,2.017
2,75,perceptual,0.03,0.05,target,target,1,3.149
2,76,numeric,0.1,0.2,competitor,target,1,2.719
2,77,perceptual,0.1,0.2,target,target,1,1.867
2,78,numeric,0.1,0.2,target,target,1,4.047
2,79,perceptual,0.03,0.05,target,target,1,3.136
2,80,numeric,0.03,0.05,competitor,competitor,0,4.55
2,81,numeric,0.03,0.05,competitor,decoy,0,4.503
2,82,numeric,0.03,0.2,competitor,competitor,0,3.25
2,83,perceptual,0.1,0.2,competitor,target,1,3.302
2,84,numeric,0.03,0.2,competitor,competitor,0,5.3
2,85,numeric,0.03,0.05,competitor,competitor,0,3.806
2,86,perceptual,0.1,0.2,competitor,target,1,4.498
2,87,perceptual,0.03,0.05,competitor,decoy,0,3.915
2,88,numeric,0.1,0.2,competitor,target,1,6.036
2,89,numeric,0.1,0.2,target,competitor,0,4.259
2,90,numeric,0.1,0.2,competitor,target,1,7.25
2,91,numeric,0.1,0.05,target,competitor,0,4.165
2,92,perceptual,0.1,0.05,target,competitor,0,3.51
2,93,perceptual,0.03,0.2,competitor,target,1,6.005
2,94,numeric,0.1,0.05,competitor,target,1,4.609
2,95,numeric,0.1,0.05,target,target,1,3.724
2,96,perceptual,0.03,0.05,target,target,1,4.097
2,97,numeric,0.1,0.2,target,target,1,5.794
2,98,perceptual,0.1,0.05,target,competitor,0,2.555
2,99,perceptual,0.1,0.2,competitor,target,1,2.697
2,100,perceptual,0.1,0.05,target,target,1,4.505
2,101,perceptual,0.03,0.2,competitor,target,1,5.743
2,102,numeric,0.1,0.05,target,competitor,0,4.111
2,103,perceptual,0.1,0.2,target,competitor,0,2.443
2,104,perceptual,0.1,0.05,target,decoy,0,2.674
2,105,perceptual,0.03,0.2,target,competitor,0,2.112
2,106,numeric,0.03,0.2,target,target,1,4.844
2,107,numeric,0.1,0.2,competitor,target,1,4.166
2,108,perceptual,0.03,0.05,target,target,1,2.614
2,109,perceptual,0.1,0.2,target,decoy,0,3.197
2,110,numeric,0.1,0.05,target,target,1,3.219
2,111,numeric,0.1,0.2,competitor,target,1,3.669
2,112,numeric,0.03,0.05,target,target,1,3.682
2,113,perceptual,0.03,0.2,competitor,target,1,2.608
2,114,numeric,0.1,0.05,competitor,competitor,0,3.206
2,115,perceptual,0.1,0.2,target,decoy,0,3.813
2,116,numeric,0.03,0.2,target,decoy,0,3.138
2,117,numeric,0.03,0.05,target,competitor,0,4.343
2,118,perceptual,0.1,0.05,competitor,target,1,3.646
2,119,numeric,0.1,0.05,competitor,target,1,4.151
2,120,numeric,0.1,0.05,target,target,1,3.228
2,121,perceptual,0.03,0.2,target,competitor,0,2.708
2,122,perceptual,0.03,0.05,target,competitor,0,2.771
2,123,numeric,0.03,0.2,competitor,target,1,5.479
2,124,numeric,0.03,0.2,target,target,1,3.94
2,125,perceptual,0.1,0.05,competitor,target,1,3.977
2,126,perceptual,0.1,0.2,competitor,target,1,2.631
2,127,numeric,0.03,0.2,competitor,competitor,0,3.543
2,128,numeric,0.03,0.05,competitor,target,1,3.456
2,129,numeric,0.1,0.2,target,target,1,2.885
2,130,numeric,0.03,0.2,competitor,target,1,3.121
2,131,perceptual,0.03,0.05,competitor,target,1,2.591
2,132,numeric,0.03,0.2,target,target,1,2.793
2,133,perceptual,0.03,0.2,target,decoy,0,3.195
2,134,perceptual,0.1,0.05,competitor,target,1,2.054
2,135,numeric,0.03,0.05,competitor,competitor,0,5.747
2,136,numeric,0.1,0.05,target,target,1,5.765
2,137,numeric,0.03,0.05,competitor,competitor,0,4.974
2,138,perceptual,0.1,0.2,competitor,decoy,0,3.323
2,139,perceptual,0.03,0.2,competitor,target,1,4.914
2,140,numeric,0.1,0.05,target,decoy,0,2.527
2,141,perceptual,0.1,0.2,competitor,competitor,0,4.466
2,142,perceptual,0.1,0.2,competitor,decoy,0,2.864
2,143,numeric,0.03,0.2,competitor,target,1,3.453
2,144,perceptual,0.1,0.05,target,target,1,4.878
2,145,perceptual,0.1,0.05,competitor,target,1,2.547
2,146,perceptual,0.1,0.2,target,target,1,2.032
2,147,perceptual,0.1,0.05,target,competitor,0,2.47
2,148,numeric,0.1,0.05,competitor,competitor,0,3.464
2,149,numeric,0.1,0.05,competitor,target,1,4.935
2,150,numeric,0.03,0.2,target,competitor,0,2.523
2,151,numeric,0.03,0.2,competitor,target,1,4.195
2,152,perceptual,0.1,0.2,target,target,1,5.032
2,153,numeric,0.1,0.2,target,target,1,4.229
2,154,perceptual,0.03,0.05,competitor,target,1,4.13
2,155,numeric,0.1,0.2,competitor,competitor,0,3.078
2,156,perceptual,0.03,0.05,target,target,1,2.358
2,157,numeric,0.03,0.2,competitor,competitor,0,2.042
2,158,numeric,0.1,0.2,competitor,target,1,3.371
2,159,perceptual,0.1,0.2,competitor,competitor,0,3.478
2,160,numeric,0.03,0.2,target,competitor,0,2.575
2,161,numeric,0.03,0.2,competitor,competitor,0,4.401
2,162,perceptual,0.1,0.2,competitor,target,1,3.187
2,163,perceptual,0.03,0.05,target,target,1,4.317
2,164,numeric,0.03,0.2,target,target,1,3.324
2,165,perceptual,0.1,0.05,competitor,decoy,0,3.818
2,166,numeric,0.03,0.2,competitor,target,1,3.202
2,167,perceptual,0.1,0.05,target,target,1,2.495
2,168,numeric,0.03,0.05,target,decoy,0,3.157
2,169,perceptual,0.03,0.05,competitor,target,1,2.163
2,170,numeric,0.03,0.2,target,target,1,4.135
2,171,perceptual,0.1,0.2,target,target,1,4.527
2,172,perceptual,0.03,0.2,competitor,target,1,2.521
2,173,perceptual,0.03,0.2,competitor,target,1,2.279
2,174,perceptual,0.03,0.2,target,competitor,0,3.557
2,175,perceptual,0.1,0.2,competitor,target,1,2.832
2,176,numeric,0.03,0.2,target,competitor,0,3.619
2,177,perceptual,0.03,0.2,competitor,target,1,2.955
2,178,perceptual,0.03,0.05,target,competitor,0,3.479
2,179,perceptual,0.1,0.05,target,target,1,2.438
2,180,numeric,0.03,0.05,competitor,target,1,3.323
2,181,numeric,0.1,0.05,competitor,target,1,4.579
2,182,numeric,0.03,0.05,target,competitor,0,13.265
2,183,numeric,0.03,0.05,competitor,competitor,0,3.569
2,184,numeric,0.03,0.05,target,competitor,0,2.581
2,185,perceptual,0.1,0.2,competitor,target,1,2.76
2,186,perceptual,0.03,0.05,target,competitor,0,2.677
2,187,numeric,0.03,0.05,target,decoy,0,2.686
2,188,numeric,0.1,0.2,target,target,1,3.128
2,189,perceptual,0.03,0.05,competitor,target,1,3.293
2,190,perceptual,0.1,0.2,target,target,1,3.34
2,191,perceptual,0.1,0.2,target,decoy,0,4.855
2,192,numeric,0.03,0.05,target,target,1,3.58
3,1,perceptual,0.03,0.05,target,decoy,0,9.424
3,2,perceptual,0.1,0.05,target,target,1,9.45
3,3,numeric,0.1,0.05,target,decoy,0,10.441
3,4,numeric,0.1,0.05,target,competitor,0,8.637
3,5,numeric,0.03,0.2,target,target,1,15.689
3,6,perceptual,0.1,0.05,competitor,target,1,5.874
3,7,numeric,0.03,0.05,competitor,competitor,0,7.178
3,8,numeric,0.03,0.05,target,target,1,9.003
3,9,perceptual,0.03,0.2,competitor,competitor,0,4.86
3,10,perceptual,0.03,0.2,competitor,target,1,9.861
3,11,numeric,0.1,0.05,competitor,target,1,7.525
3,12,numeric,0.1,0.2,target,target,1,5.848
3,13,perceptual,0.1,0.05,competitor,competitor,0,6.02
3,14,perceptual,0.03,0.2,target,target,1,4.936
3,15,numeric,0.03,0.05,competitor,competitor,0,8.652
3,16,numeric,0.03,0.05,target,decoy,0,6.429
3,17,perceptual,0.1,0.2,competitor,target,1,4.353
3,18,numeric,0.1,0.2,target,competitor,0,4.53
3,19,numeric,0.03,0.2,competitor,target,1,6.304
3,20,perceptual,0.1,0.05,target,competitor,0,5.494
3,21,numeric,0.03,0.05,target,target,1,4.304
3,22,numeric,0.03,0.2,competitor,competitor,0,4.938
3,23,numeric,0.1,0.2,competitor,target,1,4.558
3,24,numeric,0.03,0.2,target,competitor,0,4.478
3,25,numeric,0.03,0.05,competitor,decoy,0,9.285
3,26,perceptual,0.03,0.2,competitor,target,1,4.468
3,27,numeric,0.1,0.05,competitor,target,1,8.221
3,28,perceptual,0.03,0.05,target,competitor,0,4.815
3,29,numeric,0.03,0.2,competitor,target,1,4.913
3,30,numeric,0.1,0.2,target,competitor,0,3.64
3,31,numeric,0.1,0.05,target,competitor,0,4.908
3,32,numeric,0.1,0.2,target,target,1,4.706
3,33,perceptual,0.03,0.05,target,decoy,0,2.978
3,34,perceptual,0.1,0.2,target,competitor,0,3.331
3,35,perceptual,0.03,0.05,competitor,target,1,13.111
3,36,perceptual,0.1,0.2,competitor,target,1,6.715
3,37,numeric,0.03,0.2,target,target,1,6.245
3,38,numeric,0.03,0.05,target,target,1,16.291
3,39,numeric,0.03,0.05,target,competitor,0,7.182
3,40,numeric,0.1,0.2,competitor,competitor,0,9.08
3,41,perceptual,0.1,0.05,target,competitor,0,6.114
3,42,numeric,0.1,0.05,competitor,decoy,0,11.876
3,43,perceptual,0.03,0.05,target,target,1,11.371
3,44,numeric,0.1,0.05,competitor,competitor,0,15.354
3,45,numeric,0.1,0.2,target,target,1,9.037
3,46,numeric,0.03,0.2,competitor,competitor,0,15.564
3,47,perceptual,0.1,0.2,competitor,target,1,6.662
3,48,perceptual,0.1,0.2,competitor,target,1,5.718
3,49,perceptual,0.1,0.2,competitor,target,1,4.518
3,50,perceptual,0.1,0.05,target,decoy,0,7.945
3,51,perceptual,0.03,0.05,competitor,target,1,5.43
3,52,numeric,0.03,0.2,competitor,competitor,0,4.92
3,53,numeric,0.03,0.2,competitor,target,1,5.487
3,54,perceptual,0.03,0.05,competitor,target,1,6.419
3,55,perceptual,0.1,0.05,competitor,target,1,3.185
3,56,perceptual,0.03,0.2,competitor,target,1,9.863
3,57,perceptual,0.03,0.05,target,competitor,0,14.569
3,58,perceptual,0.03,0.05,competitor,competitor,0,3.805
3,59,perceptual,0.03,0.05,target,target,1,3.624
3,60,perceptual,0.03,0.2,target,target,1,3.64
3,61,numeric,0.03,0.2,target,target,1,8.722
3,62,perceptual,0.1,0.2,competitor,target,1,3.532
3,63,numeric,0.1,0.05,target,decoy,0,4.622
3,64,numeric,0.1,0.2,competitor,target,1,3.662
3,65,perceptual,0.1,0.2,target,target,1,3.086
3,66,perceptual,0.03,0.2,competitor,competitor,0,3.588
3,67,perceptual,0.1,0.2,target,competitor,0,3.524
3,68,numeric,0.1,0.05,competitor,competitor,0,4.549
3,69,numeric,0.03,0.2,target,target,1,8.736
3,70,perceptual,0.03,0.2,competitor,target,1,4.808
3,71,perceptual,0.03,0.2,target,target,1,9.33
3,72,perceptual,0.03,0.05,target,competitor,0,6.014
3,73,numeric,0.03,0.2,competitor,target,1,6.229
3,74,numeric,0.03,0.2,competitor,competitor,0,8.801
3,75,perceptual,0.03,0.05,competitor,decoy,0,3.479
3,76,perceptual,0.03,0.05,competitor,target,1,3.611
3,77,perceptual,0.1,0.2,target,target,1,5.427
3,78,perceptual,0.1,0.2,target,competitor,0,4.558
3,79,numeric,0.1,0.2,competitor,competitor,0,4.588
3,80,numeric,0.1,0.05,competitor,target,1,6.88
3,81,numeric,0.1,0.05,target,target,1,3.708
3,82,numeric,0.1,0.05,target,competitor,0,3.257
3,83,perceptual,0.1,0.05,target,decoy,0,9.674
3,84,numeric,0.03,0.05,competitor,competitor,0,4.909
3,85,numeric,0.03,0.05,target,target,1,5.758
3,86,numeric,0.1,0.2,competitor,target,1,8.021
3,87,numeric,0.1,0.05,target,target,1,4.581
3,88,perceptual,0.03,0.05,target,competitor,0,5.391
3,89,perceptual,0.1,0.05,competitor,competitor,0,4.16
3,90,numeric,0.1,0.2,target,target,1,8.448
3,91,numeric,0.03,0.05,competitor,competitor,0,6.928
3,92,perceptual,0.03,0.05,competitor,target,1,4.023
3,93,numeric,0.03,0.05,competitor,target,1,5.041
3,94,perceptual,0.03,0.2,target,competitor,0,4.284
3,95,perceptual,0.03,0.2,competitor,competitor,0,5.963
3,96,numeric,0.03,0.05,competitor,decoy,0,8.509
3,97,numeric,0.03,0.2,target,target,1,5
3,98,numeric,0.1,0.2,target,competitor,0,3.995
3,99,perceptual,0.03,0.2,competitor,competitor,0,3.68
3,100,perceptual,0.1,0.05,competitor,target,1,4.415
3,101,perceptual,0.03,0.05,competitor,target,1,4.882
3,102,perceptual,0.1,0.2,competitor,target,1,3.541
3,103,numeric,0.1,0.2,target,competitor,0,5.37
3,104,numeric,0.1,0.05,competitor,target,1,3.701
3,105,numeric,0.03,0.2,competitor,target,1,8.089
3,106,numeric,0.1,0.05,target,competitor,0,6.446
3,107,perceptual,0.1,0.2,target,competitor,0,2.991
3,108,numeric,0.1,0.05,competitor,target,1,5.421
3,109,numeric,0.03,0.05,competitor,competitor,0,7.366
3,110,perceptual,0.03,0.05,target,target,1,4.368
3,111,numeric,0.03,0.2,target,target,1,8.013
3,112,numeric,0.1,0.2,competitor,target,1,4.835
3,113,perceptual,0.03,0.2,target,competitor,0,3.74
3,114,perceptual,0.03,0.05,competitor,target,1,4.317
3,115,perceptual,0.1,0.05,target,target,1,4.483
3,116,numeric,0.03,0.2,competitor,target,1,7.185
3,117,perceptual,0.03,0.2,target,target,1,4.064
3,118,numeric,0.1,0.2,competitor,target,1,5.035
3,119,numeric,0.03,0.2,target,target,1,15.697
3,120,perceptual,0.03,0.05,target,target,1,5.706
3,121,numeric,0.03,0.2,target,competitor,0,3.678
3,122,perceptual,0.03,0.2,competitor,target,1,3.046
3,123,numeric,0.1,0.2,competitor,competitor,0,5.283
3,124,perceptual,0.1,0.05,target,target,1,3.537
3,125,perceptual,0.1,0.05,target,decoy,0,3.271
3,126,perceptual,0.1,0.2,target,target,1,7.025
3,127,numeric,0.1,0.2,competitor,competitor,0,6.436
3,128,numeric,0.03,0.2,target,target,1,11.247
3,129,numeric,0.1,0.05,target,competitor,0,3.83
3,130,perceptual,0.1,0.05,competitor,decoy,0,3.915
3,131,perceptual,0.1,0.05,competitor,target,1,3.51
3,132,numeric,0.03,0.2,target,target,1,5.413
3,133,perceptual,0.03,0.2,target,competitor,0,5.359
3,134,numeric,0.1,0.2,target,target,1,18.198
3,135,perceptual,0.03,0.2,target,target,1,3.104
3,136,numeric,0.1,0.2,target,target,1,4.997
3,137,numeric,0.03,0.05,target,competitor,0,8.637
3,138,numeric,0.1,0.05,competitor,target,1,8.675
3,139,numeric,0.03,0.2,target,target,1,5.455
3,140,perceptual,0.03,0.2,target,competitor,0,4.33
3,141,perceptual,0.03,0.2,target,target,1,3.332
3,142,perceptual,0.03,0.2,target,competitor,0,6.279
3,143,numeric,0.1,0.2,target,target,1,5.38
3,144,numeric,0.03,0.05,competitor,target,1,7.524
3,145,numeric,0.1,0.05,target,target,1,4.497
3,146,numeric,0.03,0.05,target,competitor,0,4.816
3,147,perceptual,0.03,0.2,target,competitor,0,3.087
3,148,perceptual,0.1,0.2,competitor,competitor,0,3.106
3,149,perceptual,0.1,0.2,target,competitor,0,4.237
3,150,perceptual,0.1,0.05,target,competitor,0,2.758
3,151,perceptual,0.1,0.2,competitor,target,1,3.252
3,152,numeric,0.03,0.05,target,target,1,4.885
3,153,perceptual,0.1,0.2,target,competitor,0,3.913
3,154,perceptual,0.03,0.2,competitor,competitor,0,5.498
3,155,numeric,0.03,0.05,competitor,target,1,4.198
3,156,perceptual,0.1,0.05,competitor,decoy,0,3.474
3,157,perceptual,0.1,0.05,target,target,1,5.254
3,158,numeric,0.1,0.2,competitor,target,1,5.19
3,159,perceptual,0.03,0.05,competitor,competitor,0,4.168
3,160,perceptual,0.1,0.2,target,target,1,3.006
3,161,perceptual,0.1,0.05,target,target,1,3.286
3,162,numeric,0.03,0.05,competitor,competitor,0,4.12
3,163,numeric,0.1,0.2,target,target,1,2.864
3,164,perceptual,0.1,0.05,competitor,target,1,2.931
3,165,perceptual,0.1,0.05,competitor,target,1,2.393
3,166,numeric,0.1,0.2,competitor,target,1,2.393
3,167,numeric,0.1,0.05,competitor,target,1,3.646
3,168,numeric,0.03,0.05,target,target,1,2.612
3,169,numeric,0.03,0.2,competitor,target,1,3.449
3,170,numeric,0.1,0.2,competitor,target,1,3.074
3,171,numeric,0.03,0.05,competitor,competitor,0,2.513
3,172,perceptual,0.03,0.05,competitor,competitor,0,2.237
3,173,numeric,0.1,0.05,target,decoy,0,3.374
3,174,numeric,0.1,0.05,competitor,competitor,0,2.287
3,175,perceptual,0.03,0.05,target,target,1,2.388
3,176,perceptual,0.1,0.2,competitor,decoy,0,2.759
3,177,perceptual,0.1,0.05,competitor,target,1,2.244
3,178,perceptual,0.03,0.05,competitor,decoy,0,1.895
3,179,perceptual,0.03,0.2,competitor,decoy,0,2.196
3,180,perceptual,0.1,0.2,target,competitor,0,2.011
3,181,numeric,0.1,0.05,competitor,competitor,0,4.25
3,182,perceptual,0.1,0.2,competitor,competitor,0,3.441
3,183,numeric,0.1,0.05,target,decoy,0,3.866
3,184,perceptual,0.1,0.2,target,target,1,2.303
3,185,numeric,0.03,0.05,target,competitor,0,3.312
3,186,numeric,0.03,0.2,competitor,target,1,5.603
3,187,perceptual,0.03,0.05,target,decoy,0,2.493
3,188,perceptual,0.1,0.05,competitor,competitor,0,2.362
3,189,numeric,0.03,0.05,target,target,1,6.274
3,190,perceptual,0.1,0.05,target,target,1,4.784
3,191,perceptual,0.03,0.2,competitor,decoy,0,2.375
3,192,perceptual,0.1,0.2,competitor,target,1,2.435
4,1,perceptual,0.1,0.05,competitor,competitor,0,8.192
4,2,numeric,0.03,0.2,target,target,1,7.961
4,3,perceptual,0.1,0.05,target,decoy,0,4.555
4,4,perceptual,0.03,0.05,target,target,1,6.876
4,5,perceptual,0.1,0.05,target,target,1,4.967
4,6,perceptual,0.03,0.05,competitor,decoy,0,4.981
4,7,numeric,0.1,0.2,competitor,competitor,0,9.484
4,8,perceptual,0.03,0.05,competitor,target,1,6.649
4,9,perceptual,0.1,0.2,target,target,1,3.687
4,10,perceptual,0.1,0.2,target,target,1,5.258
4,11,perceptual,0.1,0.05,target,decoy,0,5.081
4,12,perceptual,0.1,0.05,competitor,decoy,0,4.074
4,13,perceptual,0.1,0.2,target,competitor,0,4.509
4,14,numeric,0.03,0.05,target,target,1,8.826
4,15,perceptual,0.03,0.05,target,decoy,0,6.653
4,16,numeric,0.1,0.2,target,target,1,6.523
4,17,perceptual,0.1,0.05,target,decoy,0,4.135
4,18,numeric,0.03,0.05,competitor,competitor,0,10.007
4,19,perceptual,0.03,0.05,competitor,target,1,7.846
4,20,perceptual,0.1,0.05,target,target,1,7.36
4,21,perceptual,0.1,0.05,target,competitor,0,5.031
4,22,numeric,0.1,0.2,competitor,target,1,8.544
4,23,perceptual,0.1,0.2,target,target,1,4.52
4,24,perceptual,0.1,0.2,target,competitor,0,5.189
4,25,numeric,0.03,0.05,competitor,competitor,0,17.614
4,26,perceptual,0.03,0.05,competitor,target,1,7.33
4,27,perceptual,0.03,0.05,target,target,1,3.945
4,28,numeric,0.1,0.2,competitor,target,1,10.477
4,29,perceptual,0.1,0.05,target,target,1,4.862
4,30,numeric,0.1,0.2,competitor,target,1,7.451
4,31,numeric,0.03,0.05,competitor,target,1,7.762
4,32,numeric,0.03,0.2,target,competitor,0,10.778
4,33,numeric,0.1,0.05,competitor,target,1,7.46
4,34,perceptual,0.1,0.2,competitor,competitor,0,6.502
4,35,numeric,0.03,0.05,target,target,1,7.526
4,36,numeric,0.1,0.05,target,target,1,13.18
4,37,perceptual,0.03,0.2,competitor,competitor,0,8.888
4,38,perceptual,0.1,0.2,competitor,competitor,0,5.996
4,39,numeric,0.03,0.2,competitor,target,1,12.153
4,40,perceptual,0.03,0.05,target,decoy,0,3.689
4,41,perceptual,0.1,0.05,competitor,decoy,0,6.961
4,42,numeric,0.1,0.2,target,target,1,6.062
4,43,perceptual,0.03,0.05,competitor,competitor,0,4.309
4,44,numeric,0.1,0.05,competitor,target,1,8.154
4,45,numeric,0.1,0.05,target,target,1,9.817
4,46,numeric,0.03,0.05,target,competitor,0,14.11
4,47,perceptual,0.03,0.05,competitor,target,1,4.362
4,48,numeric,0.03,0.2,competitor,competitor,0,9.931
4,49,perceptual,0.1,0.2,target,competitor,0,6.757
4,50,perceptual,0.03,0.2,competitor,target,1,4.935
4,51,numeric,0.1,0.05,competitor,target,1,7.912
4,52,numeric,0.03,0.2,competitor,competitor,0,14.655
4,53,numeric,0.03,0.2,target,target,1,6.374
4,54,perceptual,0.03,0.2,competitor,competitor,0,4.312
4,55,numeric,0.03,0.2,competitor,target,1,11.392
4,56,numeric,0.03,0.05,competitor,competitor,0,7.001
4,57,numeric,0.1,0.05,target,target,1,17.241
4,58,perceptual,0.1,0.05,target,competitor,0,5.96
4,59,perceptual,0.1,0.2,competitor,target,1,3.586
4,60,numeric,0.1,0.2,target,target,1,17.518
4,61,perceptual,0.03,0.05,competitor,target,1,5.04
4,62,numeric,0.03,0.2,target,target,1,12.144
4,63,perceptual,0.03,0.05,target,competitor,0,6.103
4,64,perceptual,0.03,0.2,competitor,target,1,4.373
4,65,perceptual,0.03,0.05,target,decoy,0,4.587
4,66,perceptual,0.1,0.05,target,decoy,0,3.751
4,67,numeric,0.03,0.05,competitor,target,1,4.639
4,68,perceptual,0.1,0.2,target,competitor,0,3.725
4,69,numeric,0.03,0.05,competitor,target,1,13.446
4,70,numeric,0.1,0.2,target,target,1,7.416
4,71,numeric,0.1,0.05,competitor,competitor,0,11.24
4,72,perceptual,0.03,0.2,target,competitor,0,4.512
4,73,numeric,0.03,0.2,competitor,target,1,6.856
4,74,perceptual,0.1,0.2,competitor,target,1,7.22
4,75,perceptual,0.1,0.2,target,target,1,4.634
4,76,perceptual,0.03,0.2,target,target,1,3.286
4,77,perceptual,0.1,0.2,competitor,competitor,0,6.495
4,78,numeric,0.03,0.2,target,competitor,0,5.353
4,79,perceptual,0.03,0.2,target,target,1,16.503
4,80,numeric,0.03,0.05,target,target,1,10.699
4,81,perceptual,0.1,0.2,target,competitor,0,4.114
4,82,perceptual,0.1,0.2,target,competitor,0,6.592
4,83,numeric,0.1,0.05,competitor,competitor,0,9.291
4,84,perceptual,0.03,0.2,target,decoy,0,6.538
4,85,perceptual,0.1,0.05,competitor,decoy,0,6.015
4,86,numeric,0.03,0.2,competitor,target,1,10.175
4,87,numeric,0.03,0.2,target,target,1,8.181
4,88,perceptual,0.1,0.2,competitor,target,1,5.461
4,89,numeric,0.1,0.05,target,target,1,6.606
4,90,numeric,0.1,0.2,competitor,target,1,11.908
4,91,numeric,0.03,0.05,competitor,competitor,0,8.703
4,92,perceptual,0.03,0.05,target,competitor,0,4.542
4,93,numeric,0.03,0.2,target,target,1,6.27
4,94,numeric,0.1,0.2,target,target,1,14.2
4,95,numeric,0.1,0.05,competitor,target,1,6.757
4,96,numeric,0.1,0.05,target,target,1,6.357
4,97,perceptual,0.03,0.05,competitor,competitor,0,6.727
4,98,numeric,0.03,0.05,target,target,1,7.225
4,99,numeric,0.03,0.2,competitor,competitor,0,5.664
4,100,numeric,0.1,0.05,target,target,1,14.498
4,101,numeric,0.03,0.05,target,target,1,7.369
4,102,perceptual,0.03,0.2,target,target,1,4.019
4,103,perceptual,0.03,0.2,competitor,competitor,0,5.04
4,104,numeric,0.1,0.05,target,target,1,6.426
4,105,perceptual,0.03,0.2,target,competitor,0,3.889
4,106,numeric,0.03,0.05,competitor,competitor,0,9.921
4,107,numeric,0.1,0.2,target,target,1,10.93
4,108,perceptual,0.1,0.05,competitor,decoy,0,5.238
4,109,perceptual,0.03,0.05,target,decoy,0,5.791
4,110,perceptual,0.1,0.2,competitor,decoy,0,5.524
4,111,numeric,0.03,0.2,target,target,1,7.869
4,112,numeric,0.03,0.2,competitor,target,1,6.524
4,113,perceptual,0.1,0.05,competitor,target,1,9.53
4,114,perceptual,0.1,0.2,competitor,decoy,0,6.169
4,115,numeric,0.03,0.05,target,target,1,6.44
4,116,perceptual,0.03,0.05,competitor,target,1,6.574
4,117,numeric,0.03,0.2,competitor,competitor,0,11.061
4,118,perceptual,0.03,0.2,target,competitor,0,3.488
4,119,numeric,0.1,0.2,target,target,1,10.502
4,120,numeric,0.1,0.05,competitor,target,1,8.048
4,121,numeric,0.1,0.2,competitor,competitor,0,14.122
4,122,numeric,0.1,0.05,competitor,target,1,6.53
4,123,numeric,0.1,0.2,competitor,competitor,0,10.139
4,124,perceptual,0.1,0.2,target,competitor,0,4.534
4,125,perceptual,0.1,0.2,competitor,competitor,0,3.968
4,126,numeric,0.03,0.2,target,competitor,0,6.16
4,127,numeric,0.1,0.2,competitor,target,1,7.9
4,128,numeric,0.03,0.05,competitor,target,1,7.175
4,129,numeric,0.03,0.2,target,target,1,5.594
4,130,perceptual,0.03,0.2,target,decoy,0,4.36
4,131,numeric,0.03,0.05,competitor,competitor,0,6.33
4,132,numeric,0.03,0.2,target,target,1,10.689
4,133,numeric,0.03,0.05,target,target,1,9.749
4,134,numeric,0.1,0.05,competitor,competitor,0,10.317
4,135,perceptual,0.03,0.05,competitor,target,1,3.562
4,136,perceptual,0.03,0.05,competitor,competitor,0,4.433
4,137,numeric,0.1,0.05,target,target,1,10.26
4,138,numeric,0.1,0.05,target,target,1,10.307
4,139,numeric,0.03,0.2,competitor,competitor,0,6.599
4,140,perceptual,0.03,0.2,target,competitor,0,3.315
4,141,perceptual,0.1,0.05,competitor,decoy,0,4.708
4,142,numeric,0.1,0.2,target,target,1,9.445
4,143,perceptual,0.03,0.2,competitor,target,1,4.39
4,144,numeric,0.1,0.2,competitor,competitor,0,8.509
4,145,perceptual,0.1,0.05,competitor,competitor,0,6.331
4,146,perceptual,0.1,0.05,competitor,decoy,0,5.971
4,147,perceptual,0.03,0.05,target,competitor,0,4.734
4,148,numeric,0.1,0.2,target,competitor,0,9.053
4,149,perceptual,0.1,0.2,target,decoy,0,4.421
4,150,perceptual,0.1,0.05,competitor,target,1,4.548
4,151,numeric,0.03,0.05,competitor,target,1,7.36
4,152,perceptual,0.1,0.05,competitor,decoy,0,5.256
4,153,perceptual,0.03,0.05,target,target,1,5.353
4,154,numeric,0.03,0.05,target,target,1,8.619
4,155,perceptual,0.03,0.2,competitor,target,1,4.078
4,156,numeric,0.1,0.2,target,target,1,13.341
4,157,numeric,0.1,0.2,target,target,1,7.465
4,158,numeric,0.03,0.05,target,target,1,8.549
4,159,numeric,0.1,0.05,target,target,1,9.288
4,160,perceptual,0.1,0.2,competitor,target,1,5.943
4,161,perceptual,0.03,0.2,competitor,competitor,0,4.357
4,162,perceptual,0.03,0.2,competitor,competitor,0,2.805
4,163,perceptual,0.03,0.2,target,competitor,0,4.751
4,164,perceptual,0.1,0.05,target,target,1,3.953
4,165,perceptual,0.03,0.2,competitor,competitor,0,6.019
4,166,numeric,0.03,0.2,target,competitor,0,15.167
4,167,numeric,0.1,0.2,competitor,target,1,9.355
4,168,perceptual,0.03,0.05,target,decoy,0,4.347
4,169,perceptual,0.03,0.2,competitor,competitor,0,3.95
4,170,perceptual,0.03,0.05,target,competitor,0,3.174
4,171,numeric,0.1,0.05,competitor,competitor,0,6.48
4,172,numeric,0.1,0.05,target,target,1,6.985
4,173,numeric,0.1,0.2,target,target,1,6.931
4,174,perceptual,0.03,0.2,target,target,1,3.942
4,175,perceptual,0.03,0.05,competitor,target,1,3.037
4,176,perceptual,0.03,0.2,target,target,1,3.69
4,177,perceptual,0.1,0.05,competitor,target,1,3.527
4,178,numeric,0.1,0.05,target,target,1,9.845
4,179,numeric,0.03,0.2,competitor,competitor,0,8.875
4,180,perceptual,0.1,0.05,target,decoy,0,4.097
4,181,numeric,0.03,0.2,competitor,competitor,0,7.305
4,182,numeric,0.1,0.05,competitor,target,1,6.69
4,183,numeric,0.03,0.05,target,competitor,0,6.865
4,184,perceptual,0.1,0.2,competitor,target,1,5.147
4,185,perceptual,0.03,0.2,competitor,competitor,0,5.446
4,186,perceptual,0.1,0.05,target,target,1,4.407
4,187,numeric,0.1,0.2,competitor,target,1,8.307
4,188,perceptual,0.1,0.2,competitor,competitor,0,3.371
4,189,numeric,0.03,0.05,target,target,1,5.757
4,190,numeric,0.1,0.2,competitor,competitor,0,8.531
4,191,numeric,0.03,0.05,competitor,target,1,11.791
4,192,numeric,0.1,0.05,competitor,target,1,11.284
5,1,numeric,0.1,0.2,competitor,target,1,16.153
5,3,perceptual,0.1,0.2,competitor,competitor,0,5.81
5,4,perceptual,0.03,0.2,competitor,competitor,0,11.914
5,5,perceptual,0.03,0.05,competitor,competitor,0,4.332
5,6,perceptual,0.1,0.2,competitor,decoy,0,3.937
5,7,numeric,0.03,0.05,competitor,target,1,17.067
5,8,numeric,0.03,0.2,target,target,1,6.5
5,9,perceptual,0.03,0.2,target,competitor,0,7.82
5,10,numeric,0.03,0.2,target,target,1,16.066
5,11,perceptual,0.1,0.2,competitor,target,1,14.147
5,12,numeric,0.1,0.05,competitor,target,1,13.785
5,13,perceptual,0.03,0.2,target,decoy,0,3.737
5,14,perceptual,0.1,0.05,competitor,decoy,0,4.78
5,15,perceptual,0.1,0.05,target,target,1,3.681
5,16,perceptual,0.03,0.05,competitor,target,1,6.234
5,17,perceptual,0.03,0.2,competitor,decoy,0,5.38
5,18,numeric,0.03,0.05,target,target,1,10.338
5,19,numeric,0.1,0.2,target,target,1,13.404
5,20,perceptual,0.1,0.2,target,decoy,0,5.566
5,21,perceptual,0.03,0.05,competitor,target,1,8.254
5,22,perceptual,0.03,0.2,competitor,target,1,6.033
5,23,numeric,0.03,0.05,target,target,1,15.33
5,24,numeric,0.03,0.05,competitor,competitor,0,9.299
5,25,perceptual,0.1,0.2,target,decoy,0,6.45
5,26,perceptual,0.1,0.2,target,competitor,0,11.401
5,27,perceptual,0.03,0.2,competitor,competitor,0,4.63
5,28,numeric,0.1,0.2,competitor,competitor,0,14.831
5,29,perceptual,0.03,0.05,target,decoy,0,5.505
5,30,numeric,0.1,0.2,competitor,target,1,10.549
5,31,numeric,0.1,0.2,target,decoy,0,12.25
5,32,numeric,0.03,0.05,target,decoy,0,13.331
5,33,numeric,0.1,0.2,target,target,1,7.403
5,34,perceptual,0.03,0.2,competitor,target,1,5.216
5,35,perceptual,0.03,0.05,target,target,1,8.037
5,36,perceptual,0.1,0.05,target,target,1,3.77
5,37,perceptual,0.1,0.2,competitor,decoy,0,4.773
5,38,numeric,0.03,0.05,target,target,1,11.069
5,39,numeric,0.1,0.05,target,target,1,6.603
5,40,perceptual,0.03,0.2,target,target,1,9.85
5,41,perceptual,0.1,0.2,target,decoy,0,8.333
5,42,perceptual,0.1,0.2,target,decoy,0,6.817
5,43,perceptual,0.03,0.05,competitor,competitor,0,5.986
5,44,perceptual,0.03,0.2,target,decoy,0,6.052
5,45,perceptual,0.1,0.05,target,competitor,0,8.437
5,46,perceptual,0.03,0.2,competitor,target,1,4.95
5,47,perceptual,0.03,0.05,target,decoy,0,5.018
5,48,numeric,0.1,0.2,target,target,1,7.64
5,49,numeric,0.1,0.05,competitor,target,1,6.318
5,50,numeric,0.03,0.2,competitor,target,1,6.699
5,51,numeric,0.03,0.2,competitor,competitor,0,13.521
5,52,perceptual,0.03,0.05,competitor,competitor,0,5.083
5,53,perceptual,0.1,0.05,competitor,target,1,4.5
5,54,perceptual,0.1,0.05,competitor,competitor,0,4.925
5,55,numeric,0.03,0.2,target,competitor,0,18.766
5,56,numeric,0.1,0.05,competitor,target,1,9.548
5,57,numeric,0.03,0.05,competitor,target,1,10.499
5,58,numeric,0.1,0.05,target,target,1,9.248
5,59,numeric,0.1,0.2,target,target,1,11.163
5,60,perceptual,0.03,0.2,competitor,target,1,7.299
5,61,numeric,0.1,0.2,target,decoy,0,14.365
5,62,numeric,0.03,0.05,target,target,1,11.622
5,63,perceptual,0.1,0.05,target,decoy,0,9.983
5,64,numeric,0.03,0.05,competitor,decoy,0,4.951
5,65,perceptual,0.1,0.05,target,target,1,9.494
5,66,numeric,0.03,0.05,target,target,1,6.055
5,67,numeric,0.03,0.2,target,competitor,0,6.599
5,68,numeric,0.03,0.2,competitor,competitor,0,6.269
5,69,perceptual,0.03,0.2,competitor,decoy,0,4.55
5,70,perceptual,0.03,0.05,competitor,competitor,0,4.072
5,71,numeric,0.1,0.05,target,competitor,0,10.865
5,72,numeric,0.1,0.05,competitor,target,1,10.816
5,73,numeric,0.03,0.2,competitor,target,1,10.622
5,74,numeric,0.1,0.2,competitor,target,1,5.737
5,75,perceptual,0.1,0.05,competitor,target,1,5.667
5,76,perceptual,0.03,0.2,target,decoy,0,6.653
5,77,perceptual,0.1,0.2,competitor,decoy,0,5.737
5,78,perceptual,0.03,0.05,competitor,competitor,0,5.135
5,79,numeric,0.1,0.05,target,target,1,10.608
5,80,perceptual,0.1,0.2,competitor,target,1,7.14
5,81,perceptual,0.03,0.2,target,competitor,0,7.97
5,82,perceptual,0.1,0.05,target,competitor,0,17.485
5,83,numeric,0.03,0.2,target,target,1,11.983
5,84,perceptual,0.03,0.05,competitor,competitor,0,6.95
5,86,perceptual,0.1,0.2,competitor,competitor,0,0.208
5,87,numeric,0.1,0.2,target,target,1,8.734
5,88,perceptual,0.1,0.2,competitor,competitor,0,6.098
5,89,perceptual,0.1,0.2,target,decoy,0,6.397
5,90,perceptual,0.1,0.2,target,decoy,0,5.787
5,91,perceptual,0.03,0.2,target,decoy,0,4.986
5,92,numeric,0.03,0.2,competitor,target,1,14.383
5,93,perceptual,0.1,0.2,target,competitor,0,5.123
5,95,numeric,0.1,0.2,target,target,1,5.052
5,96,numeric,0.1,0.05,target,target,1,7.118
5,97,perceptual,0.03,0.2,competitor,decoy,0,5.335
5,98,perceptual,0.03,0.05,target,competitor,0,1.734
5,99,numeric,0.1,0.2,competitor,competitor,0,14.6
5,100,numeric,0.1,0.2,competitor,target,1,16.832
5,101,perceptual,0.03,0.2,target,competitor,0,7.885
5,102,numeric,0.1,0.05,competitor,target,1,9.115
5,103,numeric,0.1,0.2,competitor,competitor,0,10.965
5,104,perceptual,0.1,0.2,competitor,decoy,0,4.899
5,105,perceptual,0.1,0.2,competitor,competitor,0,2.381
5,106,perceptual,0.03,0.2,competitor,competitor,0,2.155
5,107,perceptual,0.1,0.05,competitor,target,1,1.72
5,108,numeric,0.03,0.2,target,competitor,0,7.12
5,109,numeric,0.03,0.2,competitor,target,1,5.716
5,110,perceptual,0.1,0.2,target,target,1,5.085
5,111,perceptual,0.03,0.05,target,competitor,0,4.599
5,112,numeric,0.1,0.05,target,decoy,0,12.035
5,113,perceptual,0.1,0.05,competitor,competitor,0,4.562
5,114,perceptual,0.1,0.05,competitor,decoy,0,4.973
5,115,numeric,0.03,0.05,target,competitor,0,10.081
5,116,numeric,0.03,0.2,competitor,competitor,0,10.364
5,117,perceptual,0.1,0.2,competitor,decoy,0,6.149
5,118,perceptual,0.1,0.05,target,competitor,0,3.287
5,119,numeric,0.03,0.2,competitor,competitor,0,7.569
5,120,numeric,0.03,0.2,competitor,competitor,0,9.234
5,121,numeric,0.03,0.05,target,target,1,9.959
5,122,numeric,0.1,0.05,competitor,competitor,0,7.514
5,123,numeric,0.1,0.05,competitor,competitor,0,13.565
5,124,perceptual,0.03,0.05,target,decoy,0,7.82
5,125,perceptual,0.1,0.2,target,competitor,0,8.217
5,126,numeric,0.1,0.05,competitor,target,1,7.086
5,127,numeric,0.1,0.05,target,competitor,0,5.587
5,128,numeric,0.03,0.2,target,competitor,0,8.799
5,129,perceptual,0.03,0.2,target,competitor,0,6.209
5,130,perceptual,0.1,0.05,target,competitor,0,6.118
5,131,numeric,0.1,0.2,competitor,target,1,10.067
5,132,numeric,0.1,0.2,competitor,target,1,5.849
5,133,perceptual,0.03,0.2,competitor,decoy,0,5.19
5,134,perceptual,0.03,0.05,target,competitor,0,4.503
5,135,numeric,0.03,0.05,competitor,target,1,5.401
5,136,numeric,0.03,0.05,competitor,target,1,16.084
5,137,perceptual,0.03,0.05,competitor,decoy,0,4.566
5,138,perceptual,0.03,0.05,target,decoy,0,10.486
5,139,numeric,0.1,0.05,target,target,1,6.784
5,140,perceptual,0.03,0.05,competitor,decoy,0,3.436
5,141,perceptual,0.03,0.05,target,target,1,4
5,142,numeric,0.03,0.2,competitor,target,1,6.95
5,143,numeric,0.1,0.05,competitor,target,1,5.2
5,144,numeric,0.1,0.05,competitor,competitor,0,6.618
5,145,numeric,0.03,0.2,target,target,1,10.953
5,146,numeric,0.03,0.05,competitor,target,1,11.371
5,147,perceptual,0.1,0.2,target,decoy,0,3.705
5,148,numeric,0.1,0.2,target,target,1,7.568
5,149,numeric,0.1,0.05,target,target,1,9.084
5,150,numeric,0.1,0.05,target,competitor,0,9.222
5,151,perceptual,0.03,0.05,target,competitor,0,5.533
5,152,perceptual,0.03,0.2,target,competitor,0,4.989
5,154,numeric,0.1,0.05,target,competitor,0,6.446
5,155,numeric,0.03,0.05,target,target,1,8.146
5,156,numeric,0.03,0.2,target,target,1,9.635
5,157,numeric,0.03,0.05,competitor,competitor,0,17.65
5,158,numeric,0.03,0.2,target,decoy,0,19.6
5,159,numeric,0.03,0.2,target,target,1,19.117
5,160,numeric,0.03,0.2,competitor,target,1,12.6
5,161,perceptual,0.1,0.05,competitor,target,1,11.889
5,162,numeric,0.03,0.05,target,target,1,8.72
5,163,perceptual,0.1,0.05,competitor,decoy,0,6.982
5,164,numeric,0.03,0.05,competitor,competitor,0,17.201
5,165,numeric,0.1,0.05,competitor,competitor,0,17.682
5,166,numeric,0.1,0.2,competitor,target,1,5.836
5,167,perceptual,0.1,0.05,competitor,competitor,0,10.65
5,168,perceptual,0.1,0.2,target,target,1,13.252
5,169,perceptual,0.1,0.05,competitor,decoy,0,6.199
5,170,numeric,0.03,0.2,target,target,1,6.686
5,171,numeric,0.03,0.2,competitor,competitor,0,11.667
5,172,perceptual,0.03,0.2,target,target,1,7.239
5,173,perceptual,0.03,0.05,target,decoy,0,5.706
5,174,perceptual,0.1,0.05,target,competitor,0,4.433
5,175,numeric,0.03,0.05,competitor,competitor,0,9.784
5,176,perceptual,0.1,0.05,target,target,1,6.339
5,177,perceptual,0.03,0.2,competitor,competitor,0,5.39
5,178,numeric,0.1,0.2,target,target,1,8.952
5,180,perceptual,0.1,0.05,target,target,1,5.957
5,181,perceptual,0.1,0.05,competitor,competitor,0,6.533
5,182,perceptual,0.03,0.05,target,competitor,0,3
5,183,numeric,0.1,0.2,competitor,target,1,5.673
5,184,numeric,0.1,0.2,target,target,1,16.601
5,185,perceptual,0.03,0.05,competitor,target,1,6.471
5,186,numeric,0.1,0.2,competitor,competitor,0,6.533
5,187,numeric,0.03,0.05,competitor,target,1,16.345
5,188,perceptual,0.03,0.2,target,competitor,0,6.866
5,189,perceptual,0.03,0.05,competitor,decoy,0,6.55
5,190,numeric,0.1,0.05,target,target,1,8.833
5,191,numeric,0.03,0.05,target,target,1,11.437
5,192,perceptual,0.1,0.05,target,target,1,5.117
6,1,perceptual,0.1,0.05,competitor,target,1,11.289
6,3,numeric,0.03,0.05,target,target,1,0.185
6,4,perceptual,0.1,0.05,target,target,1,6.052
6,5,numeric,0.03,0.05,target,competitor,0,4.371
6,6,perceptual,0.1,0.2,target,competitor,0,4.804
6,7,perceptual,0.1,0.05,competitor,target,1,3.256
6,8,numeric,0.1,0.05,competitor,target,1,13.249
6,9,numeric,0.03,0.05,competitor,competitor,0,14.071
6,10,numeric,0.1,0.05,target,competitor,0,11.951
6,11,perceptual,0.03,0.05,competitor,target,1,3.126
6,12,numeric,0.03,0.2,competitor,target,1,4.292
6,13,numeric,0.1,0.05,target,target,1,11.358
6,14,numeric,0.03,0.2,target,competitor,0,4.244
6,15,perceptual,0.1,0.05,competitor,target,1,4.562
6,16,perceptual,0.03,0.05,target,target,1,8.365
6,17,numeric,0.1,0.2,competitor,target,1,4.651
6,18,numeric,0.1,0.2,target,target,1,9.7
6,19,numeric,0.03,0.05,target,target,1,15.198
6,21,perceptual,0.1,0.2,competitor,decoy,0,0.325
6,22,perceptual,0.03,0.05,competitor,target,1,3.57
6,23,perceptual,0.1,0.2,target,target,1,4.514
6,24,perceptual,0.1,0.2,competitor,target,1,3.254
6,25,numeric,0.1,0.2,competitor,target,1,6.229
6,26,numeric,0.1,0.2,competitor,target,1,8.313
6,27,perceptual,0.03,0.2,competitor,target,1,10.242
6,28,perceptual,0.1,0.2,target,target,1,4.021
6,29,perceptual,0.03,0.2,target,competitor,0,6.401
6,30,perceptual,0.03,0.2,competitor,target,1,4.824
6,31,perceptual,0.1,0.05,competitor,target,1,4.664
6,32,numeric,0.03,0.2,competitor,competitor,0,12.658
6,33,perceptual,0.1,0.05,target,target,1,9.025
6,34,numeric,0.1,0.2,target,target,1,8.509
6,35,perceptual,0.03,0.2,target,target,1,3.497
6,36,perceptual,0.1,0.05,target,target,1,6.848
6,37,perceptual,0.03,0.05,target,competitor,0,6.119
6,38,perceptual,0.03,0.2,competitor,competitor,0,14.3
6,39,perceptual,0.1,0.2,competitor,target,1,7.37
6,40,numeric,0.1,0.05,competitor,target,1,11.432
6,41,numeric,0.1,0.2,competitor,target,1,8.493
6,42,numeric,0.1,0.05,competitor,decoy,0,11.369
6,43,perceptual,0.03,0.05,target,competitor,0,6.469
6,44,perceptual,0.03,0.05,target,target,1,9.889
6,45,perceptual,0.1,0.05,competitor,target,1,8.994
6,46,perceptual,0.03,0.2,competitor,competitor,0,10.048
6,47,numeric,0.1,0.2,competitor,competitor,0,11.476
6,48,perceptual,0.1,0.2,target,target,1,3.212
6,49,numeric,0.03,0.2,target,competitor,0,5.776
6,50,numeric,0.03,0.05,target,target,1,10.129
6,51,perceptual,0.1,0.05,competitor,target,1,5.114
6,52,numeric,0.03,0.2,target,target,1,5.353
6,53,perceptual,0.1,0.05,target,target,1,3.064
6,54,perceptual,0.1,0.05,target,target,1,2.235
6,55,numeric,0.03,0.2,target,target,1,12.102
6,56,perceptual,0.03,0.05,target,competitor,0,3.905
6,57,numeric,0.03,0.2,competitor,competitor,0,14.573
6,58,numeric,0.03,0.05,competitor,competitor,0,17.555
6,59,numeric,0.1,0.05,competitor,target,1,7.748
6,60,numeric,0.1,0.05,target,competitor,0,6.018
6,61,numeric,0.1,0.2,target,competitor,0,6.683
6,62,numeric,0.03,0.2,competitor,competitor,0,10.466
6,63,perceptual,0.03,0.2,competitor,target,1,7.803
6,64,numeric,0.03,0.2,target,target,1,4.638
6,65,perceptual,0.03,0.05,competitor,competitor,0,7.204
6,66,perceptual,0.03,0.2,competitor,competitor,0,6.634
6,67,perceptual,0.03,0.2,competitor,target,1,2.538
6,68,numeric,0.1,0.2,competitor,competitor,0,9.292
6,69,numeric,0.03,0.2,competitor,target,1,3.688
6,70,perceptual,0.1,0.2,competitor,decoy,0,2.318
6,71,numeric,0.03,0.2,target,target,1,2.76
6,72,numeric,0.1,0.2,target,target,1,2.121
6,73,numeric,0.03,0.05,competitor,competitor,0,4.321
6,74,numeric,0.03,0.2,competitor,target,1,2.009
6,75,perceptual,0.03,0.2,target,competitor,0,2
6,76,numeric,0.1,0.05,target,decoy,0,2.196
6,77,perceptual,0.1,0.05,competitor,decoy,0,2.397
6,78,perceptual,0.1,0.2,competitor,target,1,2.722
6,79,perceptual,0.03,0.05,target,decoy,0,2
6,80,perceptual,0.1,0.2,target,target,1,2.224
6,81,perceptual,0.03,0.05,competitor,target,1,2.1
6,82,numeric,0.1,0.05,target,target,1,2.567
6,83,perceptual,0.1,0.2,target,target,1,2.657
6,84,numeric,0.03,0.05,competitor,target,1,1.989
6,85,perceptual,0.1,0.05,target,target,1,3.366
6,86,numeric,0.03,0.05,competitor,decoy,0,2.518
6,87,numeric,0.1,0.05,competitor,competitor,0,2.349
6,88,perceptual,0.03,0.2,target,target,1,2.739
6,89,numeric,0.1,0.05,competitor,decoy,0,1.821
6,90,perceptual,0.03,0.05,target,competitor,0,1.612
6,91,numeric,0.1,0.2,competitor,decoy,0,1.431
6,92,numeric,0.1,0.05,competitor,decoy,0,1.442
6,93,perceptual,0.03,0.05,competitor,competitor,0,1.653
6,94,numeric,0.03,0.05,competitor,decoy,0,1.689
6,95,perceptual,0.1,0.2,competitor,target,1,2.136
6,96,perceptual,0.03,0.2,target,target,1,1.889
6,97,numeric,0.03,0.05,target,decoy,0,1.511
6,98,perceptual,0.1,0.05,target,competitor,0,1.37
6,99,perceptual,0.03,0.05,target,competitor,0,1.449
6,100,perceptual,0.1,0.2,competitor,target,1,1.693
6,101,numeric,0.03,0.05,target,competitor,0,2.069
6,102,numeric,0.1,0.05,competitor,target,1,2.308
6,103,numeric,0.03,0.2,competitor,target,1,5.397
6,104,numeric,0.03,0.2,target,target,1,2.064
6,105,numeric,0.1,0.2,competitor,target,1,2.082
6,106,perceptual,0.1,0.05,competitor,target,1,2.236
6,107,numeric,0.1,0.2,target,target,1,3.399
6,108,numeric,0.1,0.05,target,target,1,5.421
6,109,perceptual,0.03,0.05,competitor,decoy,0,6.374
6,110,perceptual,0.03,0.2,competitor,competitor,0,10.795
6,111,numeric,0.03,0.05,target,decoy,0,3.423
6,112,numeric,0.1,0.2,target,decoy,0,2.027
6,113,perceptual,0.03,0.05,target,target,1,3.055
6,114,numeric,0.1,0.2,target,target,1,2.429
6,115,numeric,0.03,0.2,target,target,1,2.313
6,116,perceptual,0.1,0.2,competitor,target,1,2.199
6,117,perceptual,0.1,0.05,target,competitor,0,5.469
6,118,perceptual,0.03,0.2,competitor,competitor,0,3.721
6,119,perceptual,0.03,0.2,target,target,1,1.8
6,120,numeric,0.03,0.2,target,decoy,0,2.612
6,121,numeric,0.03,0.05,target,decoy,0,2.574
6,122,perceptual,0.1,0.2,target,decoy,0,1.807
6,123,numeric,0.03,0.05,competitor,target,1,2.57
6,124,perceptual,0.1,0.2,target,target,1,2.211
6,125,perceptual,0.1,0.05,target,target,1,2.147
6,126,numeric,0.1,0.2,target,competitor,0,3.223
6,127,perceptual,0.1,0.2,competitor,target,1,2.883
6,128,numeric,0.1,0.2,competitor,competitor,0,3.762
6,129,numeric,0.1,0.2,target,target,1,3.83
6,130,numeric,0.1,0.2,competitor,competitor,0,1.766
6,131,numeric,0.03,0.05,competitor,competitor,0,1.956
6,132,numeric,0.1,0.05,target,target,1,2.399
6,133,perceptual,0.03,0.2,target,competitor,0,3.383
6,134,numeric,0.1,0.05,target,decoy,0,2.252
6,135,perceptual,0.1,0.05,competitor,competitor,0,2.499
6,136,numeric,0.1,0.2,competitor,competitor,0,2.168
6,137,numeric,0.03,0.2,competitor,decoy,0,2.507
6,138,perceptual,0.03,0.05,competitor,target,1,1.854
6,139,numeric,0.1,0.05,target,target,1,1.614
6,140,perceptual,0.03,0.2,target,target,1,1.944
6,141,numeric,0.1,0.2,target,target,1,2.209
6,142,numeric,0.1,0.2,target,target,1,4.343
6,143,perceptual,0.03,0.05,target,target,1,2.258
6,144,perceptual,0.03,0.05,competitor,target,1,2.284
6,145,perceptual,0.03,0.05,competitor,target,1,4.032
6,146,perceptual,0.03,0.2,competitor,target,1,3.153
6,147,perceptual,0.03,0.05,target,target,1,7.99
6,148,numeric,0.1,0.05,target,target,1,2.833
6,149,numeric,0.03,0.05,competitor,competitor,0,2.858
6,150,perceptual,0.1,0.2,target,target,1,2.672
6,151,numeric,0.03,0.05,competitor,competitor,0,11.398
6,152,perceptual,0.1,0.2,competitor,target,1,4.144
6,153,perceptual,0.1,0.05,competitor,target,1,4.286
6,154,numeric,0.03,0.2,target,decoy,0,7.097
6,155,numeric,0.03,0.2,target,competitor,0,0.309
6,156,numeric,0.03,0.05,target,target,1,6.944
6,157,perceptual,0.03,0.05,competitor,competitor,0,3.166
6,158,perceptual,0.1,0.05,competitor,target,1,3.29
6,159,perceptual,0.1,0.2,target,decoy,0,3.8
6,160,numeric,0.03,0.2,competitor,target,1,5.702
6,161,perceptual,0.1,0.2,competitor,target,1,2.26
6,162,numeric,0.03,0.2,competitor,competitor,0,6.478
6,163,perceptual,0.03,0.2,target,target,1,3.207
6,164,perceptual,0.1,0.2,target,target,1,3.301
6,165,numeric,0.03,0.05,target,target,1,3.973
6,166,perceptual,0.03,0.2,competitor,target,1,4.213
6,167,numeric,0.03,0.2,target,competitor,0,3.924
6,168,numeric,0.1,0.2,competitor,competitor,0,3.334
6,169,perceptual,0.03,0.05,target,decoy,0,4.748
6,170,numeric,0.1,0.05,competitor,competitor,0,2.485
6,171,perceptual,0.1,0.05,target,target,1,6.273
6,172,numeric,0.1,0.2,target,target,1,2.02
6,173,perceptual,0.03,0.2,target,target,1,2.146
6,174,perceptual,0.1,0.05,target,competitor,0,1.723
6,175,perceptual,0.03,0.05,competitor,competitor,0,2.625
6,176,perceptual,0.03,0.05,competitor,target,1,3.064
6,177,numeric,0.1,0.05,competitor,target,1,3.212
6,178,numeric,0.1,0.05,target,target,1,1.83
6,179,numeric,0.03,0.2,competitor,target,1,2.16
6,180,numeric,0.03,0.05,competitor,target,1,2.193
6,182,perceptual,0.03,0.2,target,target,1,2.154
6,183,perceptual,0.1,0.2,target,target,1,4.403
6,184,perceptual,0.03,0.2,target,target,1,15.243
6,185,numeric,0.1,0.05,competitor,decoy,0,9.457
6,186,perceptual,0.1,0.05,competitor,target,1,4.631
6,187,perceptual,0.1,0.05,target,target,1,5.307
6,188,numeric,0.1,0.05,competitor,competitor,0,3.08
6,189,numeric,0.03,0.2,competitor,target,1,3.372
6,190,perceptual,0.03,0.2,competitor,target,1,5.739
6,191,perceptual,0.1,0.2,competitor,competitor,0,4.327
6,192,numeric,0.1,0.05,target,target,1,1.718
7,1,numeric,0.1,0.2,competitor,decoy,0,8.13
7,2,numeric,0.03,0.2,competitor,competitor,0,6.43
7,3,perceptual,0.1,0.2,target,target,1,6.055
7,4,numeric,0.1,0.2,competitor,target,1,7.694
7,5,numeric,0.1,0.2,competitor,target,1,5.361
7,6,numeric,0.03,0.05,target,target,1,7.376
7,7,perceptual,0.03,0.2,target,competitor,0,4.899
7,8,numeric,0.1,0.2,competitor,target,1,8.771
7,9,perceptual,0.03,0.05,target,competitor,0,6.661
7,10,numeric,0.03,0.2,target,competitor,0,5.817
7,11,perceptual,0.1,0.05,competitor,target,1,4.616
7,12,perceptual,0.1,0.2,target,target,1,8.588
7,13,numeric,0.1,0.2,target,decoy,0,5.375
7,14,perceptual,0.1,0.2,target,target,1,6.346
7,15,numeric,0.03,0.2,target,target,1,4.197
7,16,numeric,0.1,0.2,target,target,1,5.983
7,17,numeric,0.1,0.05,target,competitor,0,4.605
7,18,perceptual,0.03,0.2,target,target,1,5.177
7,19,numeric,0.1,0.05,target,target,1,5.203
7,20,perceptual,0.1,0.05,competitor,decoy,0,6.877
7,21,numeric,0.03,0.05,competitor,competitor,0,10.595
7,22,perceptual,0.03,0.2,competitor,competitor,0,5.56
7,23,numeric,0.1,0.05,target,competitor,0,6.243
7,24,perceptual,0.03,0.05,competitor,target,1,4.389
7,25,numeric,0.1,0.05,target,decoy,0,3.714
7,26,numeric,0.03,0.05,target,target,1,4.523
7,27,perceptual,0.1,0.05,target,target,1,5.21
7,28,perceptual,0.03,0.2,competitor,decoy,0,4.024
7,29,perceptual,0.03,0.2,competitor,competitor,0,4.167
7,30,perceptual,0.1,0.2,competitor,target,1,6.589
7,31,numeric,0.03,0.05,competitor,target,1,4.363
7,32,perceptual,0.1,0.2,competitor,target,1,5.59
7,33,numeric,0.03,0.05,competitor,target,1,2.785
7,34,perceptual,0.03,0.2,target,decoy,0,4.633
7,35,numeric,0.03,0.05,target,target,1,8.94
7,36,perceptual,0.03,0.2,target,decoy,0,7.893
7,37,numeric,0.03,0.05,target,target,1,9.828
7,38,perceptual,0.03,0.05,target,target,1,5.31
7,39,perceptual,0.1,0.05,target,target,1,4.14
7,40,perceptual,0.03,0.2,target,competitor,0,3.046
7,41,numeric,0.1,0.2,target,target,1,4.297
7,42,perceptual,0.03,0.05,target,target,1,7.674
7,43,perceptual,0.03,0.05,competitor,competitor,0,4.325
7,44,numeric,0.03,0.2,competitor,decoy,0,0.074
7,45,perceptual,0.03,0.05,target,target,1,9.707
7,46,numeric,0.03,0.05,target,target,1,3.938
7,47,perceptual,0.1,0.05,competitor,target,1,2.794
7,48,perceptual,0.1,0.05,target,target,1,4.331
7,49,perceptual,0.03,0.05,target,competitor,0,4.152
7,50,perceptual,0.03,0.2,competitor,target,1,2.459
7,51,perceptual,0.1,0.2,competitor,target,1,3.273
7,52,perceptual,0.1,0.05,competitor,target,1,6.532
7,53,perceptual,0.1,0.05,competitor,competitor,0,5.07
7,54,perceptual,0.03,0.2,competitor,target,1,2.916
7,55,numeric,0.03,0.05,competitor,decoy,0,5.743
7,56,numeric,0.03,0.2,competitor,target,1,5.473
7,57,perceptual,0.1,0.05,competitor,competitor,0,6.486
7,58,numeric,0.1,0.2,competitor,target,1,4.114
7,59,perceptual,0.1,0.2,target,competitor,0,4.042
7,60,perceptual,0.03,0.2,competitor,target,1,5.342
7,61,numeric,0.03,0.2,competitor,target,1,4.377
7,62,perceptual,0.1,0.05,target,decoy,0,2.365
7,63,perceptual,0.03,0.05,target,decoy,0,5.806
7,64,numeric,0.1,0.05,competitor,competitor,0,8.439
7,65,numeric,0.03,0.2,competitor,decoy,0,3.907
7,66,perceptual,0.1,0.05,competitor,competitor,0,3.693
7,67,perceptual,0.03,0.05,competitor,decoy,0,5.074
7,68,perceptual,0.1,0.2,target,decoy,0,3.324
7,69,perceptual,0.03,0.2,competitor,target,1,4.942
7,70,perceptual,0.1,0.05,target,decoy,0,7.56
7,71,perceptual,0.03,0.05,competitor,competitor,0,3.857
7,72,perceptual,0.03,0.05,target,decoy,0,5.35
7,73,numeric,0.1,0.05,competitor,target,1,3.292
7,74,numeric,0.03,0.2,target,target,1,3.706
7,75,numeric,0.03,0.2,target,competitor,0,5.088
7,76,numeric,0.1,0.2,competitor,target,1,4.101
7,77,numeric,0.1,0.05,target,decoy,0,4.939
7,78,numeric,0.1,0.05,target,target,1,3.074
7,79,numeric,0.1,0.2,competitor,competitor,0,4.856
7,80,perceptual,0.03,0.05,competitor,competitor,0,7.619
7,81,numeric,0.1,0.05,target,decoy,0,3.797
7,82,perceptual,0.03,0.05,competitor,target,1,2.675
7,83,numeric,0.03,0.2,target,competitor,0,3.14
7,84,numeric,0.1,0.2,target,decoy,0,3.543
7,85,perceptual,0.03,0.05,target,target,1,4.456
7,86,perceptual,0.03,0.05,competitor,competitor,0,5.026
7,87,perceptual,0.03,0.2,competitor,competitor,0,5.557
7,88,numeric,0.03,0.05,competitor,target,1,5.308
7,89,numeric,0.03,0.2,competitor,competitor,0,9.926
7,90,perceptual,0.1,0.2,target,competitor,0,5.919
7,91,perceptual,0.03,0.05,competitor,target,1,3.187
7,92,perceptual,0.1,0.05,target,target,1,3.525
7,93,perceptual,0.1,0.05,target,competitor,0,8.042
7,94,numeric,0.1,0.2,competitor,target,1,5.825
7,95,numeric,0.1,0.05,competitor,target,1,2.987
7,96,numeric,0.1,0.05,competitor,competitor,0,6.877
7,97,perceptual,0.1,0.2,competitor,target,1,3.568
7,98,perceptual,0.1,0.2,target,competitor,0,2.727
7,99,numeric,0.03,0.05,competitor,target,1,8.175
7,100,numeric,0.03,0.2,target,competitor,0,6.102
7,101,perceptual,0.03,0.05,competitor,target,1,6.874
7,102,perceptual,0.03,0.2,competitor,decoy,0,7.731
7,103,numeric,0.1,0.05,competitor,decoy,0,2.763
7,104,numeric,0.1,0.2,competitor,competitor,0,4.126
7,105,perceptual,0.1,0.2,competitor,decoy,0,4.746
7,106,numeric,0.1,0.05,target,competitor,0,2.782
7,107,numeric,0.03,0.2,competitor,target,1,11.327
7,108,perceptual,0.1,0.2,competitor,target,1,4.24
7,109,perceptual,0.03,0.05,target,target,1,5.475
7,110,numeric,0.03,0.05,competitor,competitor,0,4.479
7,111,numeric,0.1,0.2,target,competitor,0,6.075
7,112,perceptual,0.03,0.2,competitor,target,1,2.978
7,113,numeric,0.03,0.2,target,target,1,3.24
7,114,numeric,0.1,0.05,competitor,competitor,0,3.259
7,115,numeric,0.1,0.2,target,target,1,4.826
7,116,perceptual,0.1,0.2,competitor,target,1,4.6
7,117,numeric,0.1,0.2,target,competitor,0,4.78
7,118,perceptual,0.1,0.2,competitor,decoy,0,8.007
7,119,numeric,0.03,0.05,competitor,target,1,4.209
7,120,numeric,0.1,0.2,target,target,1,6.827
7,121,numeric,0.1,0.2,competitor,target,1,5.007
7,122,numeric,0.1,0.05,competitor,decoy,0,5.427
7,123,numeric,0.1,0.2,target,target,1,4.094
7,124,perceptual,0.1,0.05,competitor,target,1,5.356
7,125,perceptual,0.03,0.05,target,target,1,3.572
7,126,perceptual,0.03,0.05,competitor,decoy,0,7.211
7,127,perceptual,0.03,0.2,target,decoy,0,4.296
7,128,numeric,0.03,0.05,competitor,target,1,3.977
7,129,numeric,0.1,0.2,competitor,target,1,3.133
7,130,numeric,0.1,0.05,competitor,competitor,0,5.56
7,131,numeric,0.1,0.05,competitor,target,1,5.505
7,132,numeric,0.1,0.05,target,competitor,0,5.476
7,133,numeric,0.03,0.05,target,competitor,0,5.245
7,134,perceptual,0.1,0.2,competitor,target,1,6.56
7,135,numeric,0.1,0.2,target,competitor,0,3.279
7,136,numeric,0.1,0.05,target,target,1,8.341
7,137,numeric,0.03,0.2,target,target,1,3.707
7,138,perceptual,0.03,0.05,competitor,decoy,0,6.106
7,139,perceptual,0.03,0.05,target,decoy,0,4.557
7,140,perceptual,0.03,0.2,target,competitor,0,6.094
7,141,perceptual,0.1,0.2,target,target,1,7.165
7,142,numeric,0.1,0.05,competitor,decoy,0,9.209
7,143,numeric,0.1,0.05,competitor,target,1,6.149
7,144,numeric,0.03,0.2,target,competitor,0,4.315
7,145,numeric,0.03,0.2,competitor,target,1,2.157
7,146,numeric,0.03,0.05,competitor,target,1,2.647
7,147,perceptual,0.1,0.05,target,competitor,0,3.721
7,148,perceptual,0.1,0.2,competitor,competitor,0,3.144
7,149,perceptual,0.03,0.2,competitor,decoy,0,3.53
7,150,numeric,0.03,0.05,target,decoy,0,5.859
7,151,numeric,0.03,0.05,target,competitor,0,3.697
7,152,perceptual,0.03,0.05,target,competitor,0,4.006
7,153,numeric,0.03,0.05,competitor,target,1,3.996
7,154,perceptual,0.1,0.05,competitor,competitor,0,4.008
7,155,numeric,0.03,0.2,competitor,decoy,0,7.411
7,156,perceptual,0.1,0.05,competitor,target,1,4.909
7,157,numeric,0.03,0.05,target,target,1,6.624
7,158,perceptual,0.1,0.2,target,competitor,0,3.525
7,159,perceptual,0.03,0.2,target,competitor,0,2.995
7,160,perceptual,0.1,0.2,target,target,1,2.53
7,161,perceptual,0.03,0.2,target,competitor,0,2.684
7,162,numeric,0.03,0.05,target,competitor,0,3.747
7,163,perceptual,0.1,0.05,competitor,decoy,0,5.935
7,164,numeric,0.03,0.05,competitor,target,1,3.499
7,165,perceptual,0.1,0.05,target,decoy,0,4.209
7,166,perceptual,0.1,0.05,target,target,1,7.293
7,167,numeric,0.03,0.05,target,target,1,6.903
7,168,perceptual,0.1,0.2,competitor,competitor,0,3.359
7,169,numeric,0.03,0.2,competitor,decoy,0,5.695
7,170,numeric,0.1,0.05,target,target,1,10.161
7,171,perceptual,0.03,0.2,competitor,target,1,3.978
7,172,perceptual,0.03,0.2,target,competitor,0,2.937
7,173,numeric,0.03,0.2,target,competitor,0,3.123
7,174,perceptual,0.1,0.2,target,target,1,4.791
7,175,numeric,0.1,0.05,competitor,decoy,0,2.697
7,176,numeric,0.03,0.2,competitor,target,1,4.206
7,177,numeric,0.1,0.2,target,target,1,3.751
7,178,perceptual,0.03,0.2,target,decoy,0,4.348
7,179,perceptual,0.03,0.05,competitor,target,1,4.63
7,180,numeric,0.03,0.2,target,decoy,0,7.343
7,181,perceptual,0.1,0.05,competitor,competitor,0,6.205
7,182,numeric,0.1,0.2,target,target,1,3.953
7,183,numeric,0.1,0.05,target,competitor,0,2.61
7,184,perceptual,0.1,0.2,competitor,competitor,0,8.243
7,185,numeric,0.03,0.05,target,competitor,0,10.962
7,186,numeric,0.03,0.2,competitor,competitor,0,6.417
7,187,perceptual,0.1,0.2,target,competitor,0,10.939
7,188,perceptual,0.1,0.05,target,decoy,0,3.393
7,189,numeric,0.03,0.2,target,competitor,0,4.214
7,190,perceptual,0.03,0.2,target,target,1,5.613
7,191,numeric,0.1,0.2,competitor,competitor,0,3.374
7,192,perceptual,0.1,0.05,target,competitor,0,4.477
8,1,perceptual,0.1,0.2,target,target,1,12.143
8,2,numeric,0.1,0.05,competitor,target,1,8.881
8,3,numeric,0.1,0.2,competitor,target,1,0.244
8,4,perceptual,0.1,0.05,target,target,1,7.187
8,5,perceptual,0.03,0.05,target,target,1,10.422
8,6,numeric,0.1,0.2,target,target,1,6.476
8,7,perceptual,0.03,0.05,competitor,target,1,9.75
8,8,perceptual,0.1,0.05,target,target,1,12.026
8,9,numeric,0.1,0.2,target,target,1,10.14
8,10,perceptual,0.03,0.05,competitor,target,1,11.485
8,11,perceptual,0.03,0.05,target,target,1,15.718
8,12,numeric,0.1,0.05,target,target,1,10.507
8,13,numeric,0.1,0.2,competitor,target,1,8.083
8,14,numeric,0.1,0.05,competitor,target,1,12.734
8,15,numeric,0.03,0.05,target,target,1,7.058
8,16,numeric,0.03,0.2,competitor,target,1,8.274
8,17,numeric,0.1,0.05,competitor,competitor,0,11.845
8,18,perceptual,0.1,0.05,competitor,target,1,7.852
8,19,numeric,0.1,0.2,competitor,competitor,0,13.936
8,20,perceptual,0.1,0.05,target,decoy,0,7.876
8,21,perceptual,0.03,0.05,target,target,1,8.461
8,22,numeric,0.1,0.2,target,target,1,8.799
8,23,perceptual,0.1,0.2,target,target,1,3.488
8,24,perceptual,0.03,0.2,target,competitor,0,3.836
8,25,perceptual,0.03,0.05,competitor,decoy,0,8.185
8,26,perceptual,0.03,0.2,target,competitor,0,3.271
8,27,perceptual,0.1,0.2,competitor,target,1,5.893
8,28,numeric,0.03,0.05,competitor,target,1,9.839
8,29,numeric,0.1,0.2,target,target,1,14.286
8,30,numeric,0.03,0.05,competitor,target,1,13.332
8,31,perceptual,0.1,0.2,target,target,1,7.745
8,32,numeric,0.03,0.2,competitor,competitor,0,7.709
8,33,numeric,0.1,0.2,competitor,competitor,0,16.957
8,34,perceptual,0.03,0.2,target,competitor,0,3.979
8,35,perceptual,0.03,0.05,target,competitor,0,7.81
8,36,numeric,0.03,0.05,target,decoy,0,9.192
8,37,perceptual,0.03,0.05,target,target,1,16.839
8,38,perceptual,0.03,0.2,competitor,target,1,8.445
8,39,perceptual,0.1,0.05,target,target,1,5.211
8,40,perceptual,0.03,0.2,competitor,target,1,3.914
8,41,perceptual,0.03,0.05,competitor,target,1,8.442
8,42,numeric,0.03,0.2,target,target,1,9.175
8,43,numeric,0.03,0.2,target,target,1,6.846
8,44,perceptual,0.03,0.2,competitor,target,1,4.45
8,45,numeric,0.1,0.05,target,target,1,5.209
8,46,perceptual,0.03,0.05,competitor,target,1,2.83
8,47,numeric,0.03,0.05,target,target,1,15.521
8,48,perceptual,0.1,0.05,competitor,target,1,7.562
8,49,perceptual,0.1,0.05,target,target,1,6.757
8,50,numeric,0.03,0.2,target,target,1,4.955
8,51,numeric,0.1,0.05,target,target,1,6.464
8,52,numeric,0.1,0.05,target,target,1,6.596
8,53,numeric,0.1,0.2,competitor,target,1,8.433
8,54,numeric,0.03,0.2,target,target,1,9.131
8,55,numeric,0.1,0.2,competitor,target,1,9.647
8,56,numeric,0.1,0.05,competitor,target,1,18.545
8,57,numeric,0.03,0.05,target,target,1,6.5
8,58,numeric,0.03,0.05,competitor,competitor,0,12.649
8,59,perceptual,0.1,0.2,target,target,1,6.824
8,60,perceptual,0.03,0.2,competitor,target,1,3.234
8,61,perceptual,0.03,0.2,target,target,1,3.786
8,62,perceptual,0.03,0.2,target,target,1,4.422
8,63,perceptual,0.1,0.2,target,target,1,6.841
8,64,numeric,0.03,0.2,target,target,1,11.359
8,65,perceptual,0.1,0.2,competitor,target,1,6.258
8,66,perceptual,0.1,0.05,competitor,target,1,2.82
8,67,perceptual,0.1,0.05,target,decoy,0,3.781
8,68,perceptual,0.1,0.2,target,competitor,0,6.626
8,69,numeric,0.1,0.2,competitor,target,1,17.786
8,70,perceptual,0.03,0.2,target,target,1,5.683
8,71,perceptual,0.03,0.2,competitor,competitor,0,2.207
8,72,perceptual,0.03,0.05,competitor,target,1,3.031
8,73,numeric,0.03,0.05,competitor,competitor,0,5.904
8,74,perceptual,0.03,0.05,target,target,1,6.546
8,75,perceptual,0.03,0.2,target,target,1,3.444
8,76,perceptual,0.1,0.05,competitor,competitor,0,5.974
8,77,perceptual,0.1,0.2,competitor,target,1,8.102
8,78,numeric,0.03,0.05,target,target,1,12.131
8,79,numeric,0.1,0.2,competitor,target,1,8.494
8,80,perceptual,0.03,0.2,competitor,competitor,0,4.853
8,81,perceptual,0.03,0.05,target,target,1,5.844
8,82,perceptual,0.1,0.2,target,target,1,4.177
8,83,perceptual,0.1,0.2,competitor,competitor,0,3.639
8,84,perceptual,0.03,0.05,competitor,target,1,6.048
8,85,perceptual,0.1,0.05,competitor,target,1,3.093
8,86,numeric,0.1,0.2,target,target,1,11.754
8,87,perceptual,0.1,0.05,competitor,target,1,3.054
8,88,numeric,0.1,0.2,competitor,competitor,0,15.756
8,89,perceptual,0.1,0.05,target,target,1,4.394
8,90,numeric,0.1,0.05,competitor,target,1,11.887
8,91,perceptual,0.1,0.2,competitor,decoy,0,2.787
8,92,numeric,0.03,0.05,target,target,1,5.798
8,93,numeric,0.1,0.2,target,target,1,7.484
8,94,perceptual,0.03,0.2,competitor,target,1,2.54
8,95,numeric,0.1,0.05,target,target,1,4.915
8,97,numeric,0.03,0.05,competitor,competitor,0,6.804
8,98,numeric,0.1,0.05,competitor,target,1,10.048
8,99,perceptual,0.1,0.05,competitor,competitor,0,3.904
8,100,perceptual,0.03,0.05,target,decoy,0,2.861
8,101,perceptual,0.03,0.05,competitor,decoy,0,4.19
8,102,numeric,0.1,0.2,target,target,1,15.084
8,103,perceptual,0.03,0.05,competitor,competitor,0,6.896
8,104,numeric,0.03,0.05,target,target,1,7.849
8,105,numeric,0.1,0.05,competitor,target,1,7.761
8,106,numeric,0.03,0.2,competitor,target,1,5.833
8,107,numeric,0.1,0.05,target,target,1,4.749
8,108,perceptual,0.1,0.2,target,decoy,0,2.576
8,109,numeric,0.03,0.05,competitor,competitor,0,11.529
8,110,numeric,0.1,0.05,target,target,1,7.702
8,111,numeric,0.1,0.05,competitor,target,1,7.478
8,112,numeric,0.03,0.2,competitor,competitor,0,8.61
8,113,numeric,0.1,0.2,target,target,1,8.503
8,114,perceptual,0.03,0.2,target,competitor,0,5.042
8,115,perceptual,0.1,0.05,competitor,target,1,3.669
8,116,numeric,0.03,0.2,target,target,1,4.462
8,117,perceptual,0.03,0.2,target,competitor,0,5.45
8,118,numeric,0.1,0.05,target,target,1,4.943
8,119,numeric,0.03,0.05,competitor,competitor,0,7.631
8,120,numeric,0.03,0.2,competitor,competitor,0,8.372
8,121,numeric,0.1,0.2,target,target,1,11.084
8,122,numeric,0.1,0.2,target,target,1,6.171
8,123,numeric,0.03,0.2,target,target,1,9.631
8,124,numeric,0.1,0.2,competitor,target,1,16.086
8,125,numeric,0.1,0.2,target,target,1,7.109
8,126,perceptual,0.03,0.2,competitor,target,1,5.229
8,127,numeric,0.03,0.05,target,target,1,10.665
8,128,numeric,0.03,0.2,target,target,1,11.821
8,129,numeric,0.03,0.05,competitor,target,1,6.179
8,130,numeric,0.03,0.2,competitor,competitor,0,9.813
8,131,perceptual,0.03,0.05,competitor,competitor,0,6.691
8,132,numeric,0.1,0.2,competitor,competitor,0,16.608
8,133,perceptual,0.1,0.05,competitor,competitor,0,3.38
8,134,numeric,0.1,0.05,target,target,1,13.914
8,135,numeric,0.1,0.05,target,target,1,8.376
8,136,perceptual,0.03,0.2,target,target,1,4.585
8,137,numeric,0.03,0.05,target,target,1,5.312
8,138,numeric,0.03,0.05,target,target,1,8.647
8,139,numeric,0.03,0.2,target,target,1,7.472
8,140,perceptual,0.1,0.2,competitor,target,1,7.756
8,141,perceptual,0.1,0.2,target,target,1,5.496
8,142,perceptual,0.03,0.2,target,competitor,0,3.91
8,143,perceptual,0.1,0.05,competitor,target,1,6.129
8,144,numeric,0.03,0.05,target,target,1,9.027
8,145,perceptual,0.03,0.05,target,target,1,6.344
8,146,numeric,0.03,0.2,competitor,target,1,10.446
8,147,perceptual,0.1,0.2,competitor,competitor,0,2.529
8,148,numeric,0.03,0.2,competitor,competitor,0,16.998
8,149,perceptual,0.1,0.05,target,target,1,7.166
8,150,numeric,0.03,0.2,target,target,1,6.82
8,151,numeric,0.1,0.05,competitor,target,1,8.287
8,152,numeric,0.03,0.05,competitor,competitor,0,11.67
8,153,numeric,0.1,0.05,target,target,1,11.467
8,154,perceptual,0.1,0.2,competitor,target,1,4.332
8,155,numeric,0.1,0.05,competitor,competitor,0,10.213
8,156,numeric,0.1,0.05,competitor,competitor,0,13.783
8,157,perceptual,0.1,0.2,competitor,target,1,3.057
8,158,perceptual,0.1,0.2,competitor,target,1,2.079
8,159,numeric,0.03,0.05,competitor,competitor,0,8.892
8,160,perceptual,0.1,0.05,competitor,target,1,4.477
8,161,perceptual,0.1,0.2,competitor,target,1,6.128
8,162,numeric,0.03,0.05,competitor,competitor,0,9.487
8,163,perceptual,0.1,0.2,competitor,target,1,3.694
8,164,perceptual,0.03,0.05,target,competitor,0,6.273
8,165,numeric,0.1,0.2,target,target,1,7.62
8,166,perceptual,0.03,0.2,competitor,competitor,0,7.075
8,167,numeric,0.03,0.2,target,target,1,12.224
8,168,perceptual,0.03,0.2,competitor,competitor,0,3.91
8,169,numeric,0.1,0.05,target,target,1,5.766
8,170,perceptual,0.1,0.2,target,target,1,3.619
8,171,perceptual,0.1,0.05,target,target,1,3.604
8,172,numeric,0.1,0.05,competitor,target,1,6.692
8,173,perceptual,0.03,0.05,competitor,target,1,9.395
8,174,perceptual,0.1,0.05,target,target,1,8.45
8,175,perceptual,0.03,0.2,competitor,competitor,0,6.488
8,176,perceptual,0.1,0.05,target,target,1,7.568
8,177,perceptual,0.1,0.2,target,target,1,7.153
8,178,perceptual,0.1,0.2,target,target,1,7.473
8,179,numeric,0.03,0.05,target,target,1,7.434
8,180,perceptual,0.03,0.05,target,target,1,10.313
8,181,numeric,0.03,0.2,competitor,target,1,5.948
8,182,numeric,0.03,0.2,competitor,competitor,0,12.79
8,183,numeric,0.03,0.05,competitor,target,1,14.299
8,184,numeric,0.03,0.2,target,target,1,11.607
8,185,perceptual,0.03,0.2,target,target,1,3.302
8,186,perceptual,0.03,0.05,competitor,competitor,0,7.935
8,187,perceptual,0.03,0.05,target,target,1,2.238
8,188,perceptual,0.1,0.05,target,target,1,5.305
8,189,numeric,0.03,0.2,competitor,competitor,0,11.276
8,190,perceptual,0.03,0.2,competitor,decoy,0,12.549
8,191,numeric,0.03,0.2,competitor,competitor,0,7.833
8,192,perceptual,0.1,0.05,competitor,competitor,0,9.483
9,1,perceptual,0.1,0.2,competitor,decoy,0,7.954
9,2,perceptual,0.1,0.2,target,competitor,0,4.994
9,3,numeric,0.03,0.05,target,competitor,0,7.401
9,4,numeric,0.1,0.05,target,target,1,9.566
9,5,perceptual,0.1,0.2,competitor,target,1,4.765
9,6,numeric,0.1,0.2,target,target,1,7.363
9,7,numeric,0.1,0.05,competitor,competitor,0,7.274
9,8,numeric,0.03,0.2,target,target,1,6.648
9,9,numeric,0.1,0.05,target,target,1,5.229
9,10,perceptual,0.1,0.05,target,target,1,6.505
9,11,numeric,0.03,0.05,target,target,1,6.367
9,12,perceptual,0.03,0.05,target,target,1,5.582
9,13,numeric,0.03,0.05,target,competitor,0,3.923
9,14,perceptual,0.03,0.2,target,competitor,0,3.809
9,15,perceptual,0.03,0.05,target,competitor,0,4.146
9,16,perceptual,0.03,0.2,target,target,1,5.724
9,17,perceptual,0.1,0.05,target,decoy,0,4.367
9,18,numeric,0.1,0.05,competitor,target,1,7.537
9,19,perceptual,0.1,0.05,competitor,competitor,0,4.373
9,20,numeric,0.03,0.2,competitor,competitor,0,5.101
9,21,numeric,0.1,0.05,competitor,target,1,7.312
9,22,numeric,0.1,0.05,competitor,target,1,6.941
9,23,numeric,0.1,0.05,target,target,1,6.501
9,24,numeric,0.1,0.05,target,target,1,5.264
9,25,perceptual,0.1,0.05,competitor,target,1,4.175
9,26,perceptual,0.03,0.05,competitor,target,1,4.168
9,27,perceptual,0.1,0.2,target,target,1,9.849
9,28,perceptual,0.1,0.2,competitor,target,1,3.696
9,29,numeric,0.03,0.05,target,target,1,5.205
9,30,numeric,0.03,0.2,competitor,target,1,3.305
9,31,perceptual,0.03,0.2,competitor,target,1,3.64
9,32,perceptual,0.03,0.2,competitor,target,1,3.135
9,33,perceptual,0.1,0.2,competitor,target,1,2.916
9,34,numeric,0.03,0.05,target,target,1,7.2
9,35,numeric,0.1,0.2,target,competitor,0,5.674
9,36,perceptual,0.1,0.2,target,decoy,0,9.709
9,37,numeric,0.1,0.2,competitor,target,1,5.207
9,38,numeric,0.03,0.05,competitor,target,1,6.213
9,39,numeric,0.03,0.2,competitor,target,1,4.277
9,40,perceptual,0.03,0.05,competitor,competitor,0,4.251
9,41,numeric,0.03,0.05,competitor,target,1,2.863
9,42,perceptual,0.1,0.2,target,target,1,4.767
9,43,numeric,0.03,0.05,competitor,target,1,5.339
9,44,perceptual,0.03,0.2,target,target,1,7.061
9,45,perceptual,0.03,0.05,competitor,competitor,0,3.962
9,46,numeric,0.1,0.2,competitor,competitor,0,12.797
9,47,perceptual,0.1,0.2,target,target,1,3.911
9,48,numeric,0.1,0.2,target,target,1,4.523
9,49,numeric,0.03,0.2,target,competitor,0,5.275
9,50,numeric,0.1,0.2,target,competitor,0,4.853
9,51,numeric,0.03,0.2,competitor,target,1,3.654
9,52,perceptual,0.03,0.2,competitor,target,1,3.176
9,53,perceptual,0.1,0.05,target,decoy,0,6.113
9,54,numeric,0.1,0.2,target,target,1,8.643
9,55,numeric,0.03,0.05,competitor,target,1,3.993
9,56,numeric,0.03,0.05,target,target,1,9.59
9,57,perceptual,0.03,0.2,target,target,1,6.794
9,58,perceptual,0.1,0.2,target,target,1,3.059
9,59,numeric,0.03,0.05,competitor,target,1,4.3
9,60,numeric,0.03,0.05,target,competitor,0,4.58
9,61,numeric,0.03,0.2,competitor,target,1,4.641
9,62,numeric,0.1,0.2,competitor,competitor,0,4.368
9,63,perceptual,0.1,0.05,competitor,competitor,0,4.168
9,64,perceptual,0.03,0.2,competitor,target,1,3.093
9,65,perceptual,0.03,0.05,target,decoy,0,3.461
9,66,numeric,0.1,0.2,competitor,target,1,5.671
9,67,perceptual,0.03,0.05,target,competitor,0,3.027
9,68,numeric,0.03,0.2,competitor,competitor,0,2.376
9,69,numeric,0.1,0.05,target,target,1,7.97
9,70,perceptual,0.03,0.2,target,target,1,3.792
9,71,perceptual,0.03,0.05,competitor,target,1,3.652
9,72,numeric,0.1,0.05,competitor,target,1,3.817
9,73,numeric,0.03,0.05,target,target,1,4.329
9,74,numeric,0.1,0.05,competitor,target,1,4.775
9,75,numeric,0.03,0.2,competitor,target,1,3.416
9,76,numeric,0.1,0.05,competitor,target,1,2.861
9,77,numeric,0.03,0.05,target,target,1,4.365
9,78,numeric,0.03,0.05,competitor,target,1,3.652
9,79,numeric,0.03,0.2,target,competitor,0,4.422
9,80,perceptual,0.03,0.05,competitor,target,1,4.821
9,81,numeric,0.03,0.05,competitor,target,1,4.386
9,82,perceptual,0.03,0.2,competitor,target,1,3.611
9,83,numeric,0.03,0.2,target,target,1,5.501
9,84,numeric,0.03,0.05,competitor,competitor,0,3.938
9,85,numeric,0.03,0.2,target,competitor,0,3.618
9,86,perceptual,0.1,0.05,target,decoy,0,4.712
9,87,numeric,0.1,0.05,target,target,1,3.865
9,88,perceptual,0.1,0.05,target,target,1,4.246
9,89,numeric,0.1,0.2,target,competitor,0,3.388
9,90,perceptual,0.03,0.2,competitor,competitor,0,6.517
9,91,perceptual,0.03,0.05,target,target,1,7.3
9,92,numeric,0.03,0.05,competitor,target,1,6.049
9,93,perceptual,0.1,0.05,target,target,1,4.523
9,94,numeric,0.03,0.2,competitor,competitor,0,4.963
9,95,perceptual,0.1,0.05,competitor,target,1,4.015
9,96,numeric,0.1,0.2,competitor,target,1,4.497
9,97,perceptual,0.03,0.05,target,competitor,0,3.994
9,98,perceptual,0.03,0.2,target,target,1,2.725
9,99,perceptual,0.03,0.2,target,competitor,0,4.251
9,100,perceptual,0.1,0.2,competitor,target,1,4.66
9,101,numeric,0.03,0.2,target,target,1,5.288
9,102,numeric,0.03,0.2,competitor,target,1,5.144
9,103,perceptual,0.1,0.2,target,competitor,0,2.642
9,104,numeric,0.1,0.2,competitor,target,1,10.498
9,105,perceptual,0.03,0.2,competitor,competitor,0,3.714
9,106,perceptual,0.1,0.05,competitor,target,1,4.231
9,107,perceptual,0.03,0.2,target,competitor,0,7.896
9,108,perceptual,0.1,0.05,competitor,target,1,7.297
9,109,numeric,0.1,0.05,competitor,target,1,4.995
9,110,perceptual,0.03,0.05,target,decoy,0,4.241
9,111,perceptual,0.1,0.2,competitor,target,1,3.742
9,112,perceptual,0.03,0.05,target,competitor,0,4.854
9,113,numeric,0.03,0.2,target,target,1,5.026
9,114,perceptual,0.1,0.2,target,target,1,2.889
9,115,perceptual,0.03,0.05,target,decoy,0,4.885
9,116,perceptual,0.03,0.05,competitor,target,1,2.93
9,117,perceptual,0.03,0.05,competitor,target,1,3.116
9,118,numeric,0.1,0.2,target,target,1,5.059
9,119,perceptual,0.1,0.05,competitor,target,1,3.547
9,120,perceptual,0.1,0.2,competitor,target,1,3.396
9,121,perceptual,0.03,0.2,target,target,1,5.044
9,122,numeric,0.1,0.05,competitor,competitor,0,6.01
9,123,perceptual,0.03,0.2,target,target,1,5.971
9,124,perceptual,0.1,0.2,competitor,competitor,0,4.901
9,125,perceptual,0.1,0.05,target,target,1,3.201
9,126,numeric,0.03,0.2,competitor,target,1,7.458
9,127,numeric,0.1,0.05,target,target,1,7.244
9,128,numeric,0.1,0.2,target,target,1,5.572
9,129,perceptual,0.03,0.05,competitor,target,1,10.642
9,130,numeric,0.1,0.05,target,target,1,7.427
9,131,numeric,0.03,0.05,target,target,1,6.777
9,132,numeric,0.03,0.2,target,target,1,5.047
9,133,numeric,0.03,0.05,competitor,competitor,0,5.333
9,134,numeric,0.1,0.2,competitor,target,1,3.623
9,135,perceptual,0.03,0.2,competitor,competitor,0,6.105
9,136,numeric,0.1,0.2,competitor,target,1,6.747
9,137,numeric,0.03,0.2,competitor,target,1,8.831
9,138,numeric,0.1,0.2,target,target,1,12.779
9,139,numeric,0.03,0.05,competitor,competitor,0,7.358
9,140,perceptual,0.1,0.2,target,target,1,2.637
9,141,numeric,0.1,0.05,competitor,target,1,3.899
9,142,perceptual,0.03,0.05,competitor,target,1,3.16
9,143,numeric,0.1,0.2,competitor,competitor,0,5.16
9,144,numeric,0.1,0.2,competitor,target,1,3.669
9,145,numeric,0.1,0.2,target,competitor,0,6.443
9,146,perceptual,0.1,0.05,competitor,target,1,3.351
9,147,numeric,0.1,0.05,target,competitor,0,3.629
9,148,numeric,0.03,0.2,target,target,1,3.305
9,149,perceptual,0.1,0.05,target,decoy,0,6.72
9,150,perceptual,0.03,0.05,target,competitor,0,2.751
9,151,numeric,0.1,0.2,competitor,target,1,3.653
9,152,perceptual,0.1,0.2,competitor,target,1,2.884
9,153,perceptual,0.1,0.05,target,competitor,0,4.524
9,154,perceptual,0.1,0.05,target,target,1,7.761
9,155,numeric,0.03,0.2,competitor,target,1,3.129
9,156,numeric,0.03,0.2,target,competitor,0,4.005
9,157,perceptual,0.03,0.05,target,competitor,0,5.52
9,158,numeric,0.1,0.2,competitor,target,1,4.007
9,159,perceptual,0.1,0.05,competitor,target,1,2.8
9,160,perceptual,0.1,0.2,target,target,1,3.321
9,161,perceptual,0.1,0.2,target,target,1,4.146
9,162,numeric,0.1,0.05,competitor,target,1,2.827
9,163,perceptual,0.1,0.2,target,competitor,0,3.075
9,164,numeric,0.03,0.2,target,competitor,0,3.635
9,165,perceptual,0.03,0.2,competitor,competitor,0,5.347
9,166,numeric,0.1,0.2,target,target,1,3.329
9,167,numeric,0.03,0.2,target,competitor,0,2.722
9,168,perceptual,0.1,0.2,competitor,decoy,0,1.912
9,169,perceptual,0.03,0.05,competitor,target,1,2.759
9,170,perceptual,0.03,0.05,competitor,decoy,0,2.933
9,171,perceptual,0.03,0.2,target,target,1,3.118
9,172,numeric,0.1,0.05,competitor,decoy,0,4.178
9,173,numeric,0.03,0.05,target,decoy,0,3.745
9,174,perceptual,0.1,0.05,competitor,target,1,2.537
9,175,perceptual,0.1,0.05,target,decoy,0,2.468
9,176,perceptual,0.1,0.2,competitor,target,1,2.71
9,177,numeric,0.03,0.05,target,target,1,4.075
9,178,perceptual,0.03,0.05,target,target,1,3.201
9,179,numeric,0.1,0.05,target,target,1,2.997
9,180,perceptual,0.03,0.2,competitor,target,1,3.312
9,181,perceptual,0.1,0.05,competitor,target,1,2.411
9,182,numeric,0.1,0.2,target,target,1,3.379
9,183,numeric,0.03,0.05,competitor,competitor,0,5.346
9,184,numeric,0.1,0.05,target,competitor,0,3.165
9,185,numeric,0.1,0.05,target,competitor,0,3.077
9,186,perceptual,0.03,0.2,competitor,competitor,0,5.681
9,187,perceptual,0.03,0.2,target,competitor,0,4.992
9,188,perceptual,0.1,0.2,competitor,target,1,4.332
9,189,perceptual,0.03,0.05,competitor,decoy,0,3.071
9,190,perceptual,0.03,0.2,competitor,target,1,2.208
9,191,perceptual,0.1,0.05,target,target,1,3.561
9,192,perceptual,0.1,0.05,competitor,competitor,0,5.292
11,1,perceptual,0.03,0.2,target,target,1,3.601
11,2,numeric,0.1,0.05,target,decoy,0,14.749
11,3,numeric,0.1,0.2,target,competitor,0,6.027
11,4,perceptual,0.03,0.2,target,target,1,4.945
11,5,perceptual,0.1,0.2,target,target,1,5.418
11,6,perceptual,0.1,0.05,target,target,1,5.119
11,7,perceptual,0.1,0.05,competitor,competitor,0,6.029
11,8,perceptual,0.1,0.2,competitor,target,1,4.903
11,9,numeric,0.1,0.2,target,decoy,0,6.43
11,10,numeric,0.03,0.05,target,target,1,9.668
11,11,numeric,0.03,0.2,target,target,1,7.695
11,12,numeric,0.03,0.05,target,target,1,5.837
11,13,perceptual,0.1,0.05,target,target,1,7.73
11,14,numeric,0.03,0.05,target,competitor,0,9.717
11,15,numeric,0.03,0.05,target,competitor,0,13.439
11,16,perceptual,0.03,0.2,target,target,1,6.658
11,17,perceptual,0.1,0.05,competitor,target,1,5.079
11,18,numeric,0.1,0.2,competitor,competitor,0,6.681
11,19,perceptual,0.1,0.05,target,target,1,6.008
11,20,perceptual,0.03,0.05,competitor,target,1,3.162
11,21,perceptual,0.03,0.05,target,competitor,0,5.458
11,22,numeric,0.03,0.05,competitor,target,1,6.417
11,23,numeric,0.1,0.05,competitor,target,1,10.182
11,24,numeric,0.1,0.2,target,target,1,7.763
11,25,perceptual,0.1,0.05,competitor,target,1,5.042
11,26,perceptual,0.1,0.2,competitor,target,1,4.201
11,27,perceptual,0.1,0.2,competitor,target,1,5.999
11,28,perceptual,0.03,0.2,competitor,target,1,3.862
11,29,perceptual,0.03,0.2,target,target,1,8.148
11,30,numeric,0.03,0.05,target,target,1,9.244
11,31,numeric,0.03,0.2,competitor,competitor,0,8.523
11,32,perceptual,0.03,0.2,target,competitor,0,4.909
11,33,numeric,0.03,0.2,competitor,competitor,0,8.225
11,34,numeric,0.1,0.05,target,target,1,7.108
11,35,numeric,0.03,0.05,target,competitor,0,7.73
11,36,numeric,0.03,0.2,competitor,target,1,7.632
11,37,numeric,0.03,0.05,competitor,competitor,0,11.605
11,38,numeric,0.03,0.05,target,target,1,8.465
11,39,perceptual,0.1,0.05,competitor,target,1,10.234
11,40,numeric,0.03,0.2,target,target,1,7.921
11,41,perceptual,0.1,0.2,target,decoy,0,8.066
11,42,perceptual,0.03,0.05,competitor,competitor,0,6.888
11,43,numeric,0.03,0.2,competitor,target,1,11.356
11,44,numeric,0.03,0.05,target,target,1,7.839
11,45,numeric,0.03,0.2,target,competitor,0,10.517
11,46,numeric,0.1,0.2,competitor,target,1,9.925
11,47,numeric,0.1,0.2,target,target,1,10.087
11,48,numeric,0.1,0.05,competitor,competitor,0,11.851
11,49,perceptual,0.03,0.2,target,target,1,5.261
11,50,perceptual,0.03,0.05,competitor,competitor,0,7.781
11,51,numeric,0.1,0.05,competitor,competitor,0,7.206
11,52,numeric,0.03,0.05,competitor,competitor,0,5.96
11,53,perceptual,0.1,0.05,competitor,target,1,5.008
11,54,perceptual,0.03,0.05,competitor,decoy,0,2.985
11,55,numeric,0.03,0.2,target,target,1,8.051
11,56,perceptual,0.1,0.05,target,target,1,4.358
11,57,perceptual,0.1,0.05,target,decoy,0,6.214
11,58,perceptual,0.1,0.2,competitor,target,1,3.877
11,59,perceptual,0.1,0.2,target,target,1,4.604
11,60,perceptual,0.03,0.2,competitor,target,1,3.451
11,61,numeric,0.03,0.2,target,target,1,4.147
11,62,numeric,0.1,0.2,competitor,competitor,0,7.899
11,63,numeric,0.03,0.2,competitor,competitor,0,9.418
11,64,perceptual,0.1,0.05,target,target,1,7.018
11,65,numeric,0.1,0.05,competitor,target,1,5.768
11,66,perceptual,0.03,0.05,target,competitor,0,5.749
11,67,perceptual,0.03,0.05,competitor,decoy,0,7.183
11,68,perceptual,0.03,0.05,competitor,target,1,5.116
11,69,perceptual,0.03,0.2,competitor,competitor,0,5.394
11,70,perceptual,0.1,0.2,target,target,1,3.408
11,71,numeric,0.1,0.05,competitor,target,1,7.435
11,72,numeric,0.1,0.2,target,target,1,5.801
11,73,perceptual,0.03,0.05,target,target,1,4.966
11,74,numeric,0.1,0.05,target,competitor,0,7.422
11,75,numeric,0.1,0.2,competitor,target,1,7.292
11,76,perceptual,0.1,0.2,target,target,1,5.02
11,77,perceptual,0.03,0.05,competitor,target,1,5.81
11,78,perceptual,0.1,0.2,target,target,1,4.233
11,79,perceptual,0.03,0.2,target,target,1,4.908
11,80,perceptual,0.03,0.2,competitor,target,1,4.362
11,81,perceptual,0.03,0.2,competitor,target,1,3.425
11,82,perceptual,0.03,0.05,target,competitor,0,9.686
11,83,perceptual,0.03,0.2,target,decoy,0,5.679
11,84,numeric,0.03,0.05,competitor,target,1,9.455
11,85,perceptual,0.03,0.05,target,competitor,0,7.096
11,86,perceptual,0.1,0.2,competitor,target,1,4.842
11,87,numeric,0.1,0.05,competitor,competitor,0,12.306
11,88,perceptual,0.1,0.2,competitor,target,1,5.382
11,89,perceptual,0.03,0.2,competitor,competitor,0,5.207
11,90,numeric,0.1,0.05,competitor,competitor,0,7.935
11,91,numeric,0.1,0.05,target,target,1,8.712
11,92,perceptual,0.1,0.2,competitor,target,1,3.356
11,93,numeric,0.1,0.2,competitor,competitor,0,8.715
11,94,perceptual,0.03,0.05,target,target,1,4.544
11,95,perceptual,0.03,0.05,competitor,competitor,0,7.276
11,96,numeric,0.1,0.05,competitor,target,1,6.05
11,97,numeric,0.1,0.05,target,target,1,7.794
11,98,perceptual,0.03,0.2,competitor,target,1,3.718
11,99,perceptual,0.1,0.05,target,target,1,4.246
11,100,numeric,0.03,0.05,competitor,competitor,0,9.957
11,101,numeric,0.1,0.05,target,target,1,7.63
11,102,numeric,0.1,0.2,target,target,1,1.741
11,103,perceptual,0.03,0.05,target,competitor,0,5.521
11,104,numeric,0.1,0.2,competitor,competitor,0,8.796
11,105,numeric,0.03,0.05,competitor,competitor,0,6.738
11,106,perceptual,0.1,0.05,competitor,target,1,4.855
11,107,perceptual,0.1,0.2,target,target,1,3.123
11,108,numeric,0.1,0.05,target,target,1,5.389
11,109,numeric,0.03,0.05,target,target,1,9.869
11,110,perceptual,0.03,0.2,target,target,1,3.343
11,111,perceptual,0.03,0.05,target,competitor,0,5.493
11,112,numeric,0.1,0.2,target,target,1,9.432
11,113,numeric,0.1,0.05,target,target,1,5.896
11,114,numeric,0.03,0.2,target,target,1,7.192
11,115,numeric,0.03,0.2,target,target,1,12.633
11,116,numeric,0.03,0.05,competitor,competitor,0,8.823
11,117,perceptual,0.1,0.2,competitor,target,1,3.798
11,118,numeric,0.03,0.2,competitor,competitor,0,10.98
11,119,numeric,0.1,0.05,competitor,target,1,7.361
11,120,numeric,0.03,0.05,target,target,1,11.036
11,121,perceptual,0.1,0.2,target,target,1,3.854
11,122,perceptual,0.1,0.2,target,target,1,3.881
11,123,perceptual,0.03,0.05,competitor,target,1,4.554
11,124,numeric,0.1,0.2,competitor,competitor,0,6.504
11,125,numeric,0.03,0.2,competitor,competitor,0,7.497
11,126,perceptual,0.1,0.05,target,target,1,7.459
11,127,perceptual,0.1,0.05,target,target,1,7.575
11,128,numeric,0.03,0.2,target,competitor,0,6.863
11,129,numeric,0.1,0.2,competitor,target,1,7.309
11,130,numeric,0.1,0.05,competitor,competitor,0,0.09
11,131,numeric,0.1,0.2,competitor,competitor,0,9.428
11,132,numeric,0.03,0.2,target,target,1,12.351
11,133,perceptual,0.1,0.05,target,target,1,6.106
11,134,numeric,0.03,0.2,competitor,target,1,9.352
11,135,perceptual,0.03,0.05,target,target,1,7.046
11,136,perceptual,0.03,0.2,target,target,1,5.904
11,137,numeric,0.1,0.2,competitor,target,1,7.612
11,138,numeric,0.1,0.2,competitor,competitor,0,9.149
11,139,perceptual,0.03,0.05,competitor,target,1,8.477
11,140,perceptual,0.03,0.05,competitor,decoy,0,7.691
11,141,perceptual,0.03,0.2,competitor,competitor,0,8.136
11,142,numeric,0.03,0.2,competitor,competitor,0,6.156
11,143,numeric,0.1,0.05,competitor,target,1,15.305
11,144,perceptual,0.1,0.2,competitor,target,1,4.028
11,145,numeric,0.1,0.2,target,target,1,6.472
11,146,perceptual,0.1,0.2,competitor,target,1,4.126
11,147,numeric,0.03,0.05,competitor,decoy,0,9.287
11,148,numeric,0.03,0.2,target,target,1,7.964
11,149,numeric,0.1,0.2,competitor,target,1,6.891
11,150,numeric,0.03,0.05,competitor,competitor,0,7.344
11,151,numeric,0.1,0.05,target,target,1,5.982
11,152,perceptual,0.1,0.05,target,target,1,4.531
11,153,perceptual,0.03,0.05,competitor,target,1,5.905
11,154,numeric,0.03,0.2,competitor,competitor,0,12.925
11,155,numeric,0.03,0.05,target,target,1,8.309
11,156,perceptual,0.03,0.2,target,target,1,3.646
11,157,numeric,0.1,0.2,target,target,1,7.264
11,158,perceptual,0.03,0.2,competitor,target,1,4.698
11,159,perceptual,0.1,0.05,target,target,1,5.634
11,160,numeric,0.03,0.05,competitor,competitor,0,5.099
11,161,perceptual,0.1,0.2,target,target,1,4.905
11,162,perceptual,0.03,0.2,competitor,target,1,6.464
11,163,perceptual,0.1,0.05,competitor,target,1,4.633
11,164,perceptual,0.1,0.2,target,target,1,4.193
11,165,numeric,0.1,0.05,competitor,competitor,0,8.591
11,166,numeric,0.03,0.2,competitor,target,1,8.264
11,167,numeric,0.1,0.2,target,target,1,6.719
11,168,perceptual,0.1,0.2,competitor,target,1,3.939
11,169,perceptual,0.03,0.2,competitor,target,1,5.086
11,170,perceptual,0.03,0.2,competitor,target,1,3.905
11,171,perceptual,0.03,0.05,target,target,1,5.198
11,172,numeric,0.1,0.2,target,target,1,7.061
11,173,numeric,0.1,0.05,target,decoy,0,8.38
11,174,perceptual,0.1,0.05,competitor,competitor,0,6.664
11,175,perceptual,0.1,0.05,competitor,target,1,3.743
11,176,numeric,0.1,0.2,target,target,1,6.032
11,177,perceptual,0.1,0.05,competitor,target,1,3.21
11,178,numeric,0.03,0.05,target,target,1,6.929
11,179,perceptual,0.1,0.2,competitor,target,1,5.35
11,180,numeric,0.03,0.05,competitor,target,1,10.696
11,181,perceptual,0.1,0.05,competitor,target,1,5.965
11,182,numeric,0.03,0.2,target,competitor,0,5.702
11,183,perceptual,0.03,0.05,target,target,1,7.279
11,184,numeric,0.1,0.05,target,competitor,0,12.558
11,185,numeric,0.03,0.2,target,target,1,8.352
11,186,numeric,0.1,0.05,target,decoy,0,7.635
11,187,perceptual,0.03,0.05,target,competitor,0,7.645
11,188,numeric,0.03,0.05,competitor,competitor,0,6.705
11,189,perceptual,0.03,0.2,target,target,1,3.622
11,190,perceptual,0.1,0.05,competitor,target,1,4.133
11,191,perceptual,0.1,0.2,target,competitor,0,7.975
11,192,numeric,0.03,0.2,competitor,competitor,0,7.202
12,1,numeric,0.1,0.05,target,target,1,9.711
12,2,perceptual,0.03,0.05,target,competitor,0,8.945
12,3,perceptual,0.1,0.05,target,decoy,0,3.869
12,4,numeric,0.1,0.2,target,target,1,7.247
12,5,numeric,0.03,0.2,competitor,target,1,7.707
12,6,numeric,0.1,0.2,competitor,target,1,6.361
12,7,numeric,0.1,0.05,target,target,1,7.46
12,8,numeric,0.03,0.2,competitor,competitor,0,4.422
12,9,numeric,0.1,0.2,competitor,competitor,0,12.193
12,10,numeric,0.1,0.05,target,competitor,0,9.869
12,11,perceptual,0.1,0.05,target,target,1,8.63
12,12,numeric,0.1,0.2,target,target,1,5.644
12,13,numeric,0.03,0.05,target,target,1,9.032
12,14,numeric,0.03,0.2,competitor,target,1,11.21
12,15,numeric,0.1,0.05,competitor,target,1,11.352
12,16,perceptual,0.03,0.05,competitor,decoy,0,5.936
12,17,perceptual,0.03,0.2,target,target,1,4.509
12,18,numeric,0.1,0.05,target,decoy,0,12.686
12,19,numeric,0.1,0.05,target,target,1,7.81
12,20,numeric,0.1,0.05,target,target,1,7.856
12,21,numeric,0.1,0.05,target,target,1,5.408
12,22,perceptual,0.1,0.05,competitor,target,1,4.349
12,23,numeric,0.03,0.05,competitor,target,1,7.188
12,24,perceptual,0.1,0.05,competitor,target,1,4.156
12,25,numeric,0.1,0.2,target,target,1,4.133
12,26,perceptual,0.1,0.2,competitor,target,1,3.906
12,27,numeric,0.03,0.2,target,competitor,0,9.03
12,28,perceptual,0.03,0.05,target,target,1,5.648
12,29,perceptual,0.1,0.2,competitor,competitor,0,6.038
12,30,perceptual,0.03,0.05,target,competitor,0,7.114
12,31,perceptual,0.03,0.2,target,target,1,8.488
12,32,numeric,0.1,0.05,competitor,target,1,5.436
12,33,numeric,0.1,0.2,target,target,1,5.921
12,34,numeric,0.03,0.05,competitor,target,1,6.893
12,35,numeric,0.1,0.05,competitor,target,1,8.561
12,36,perceptual,0.1,0.2,target,target,1,8.469
12,37,perceptual,0.1,0.2,competitor,target,1,3.8
12,38,numeric,0.03,0.2,target,target,1,16.202
12,39,numeric,0.1,0.05,target,target,1,4.339
12,40,perceptual,0.1,0.05,target,decoy,0,5.845
12,41,perceptual,0.03,0.05,competitor,target,1,5.486
12,42,numeric,0.03,0.2,target,target,1,7.538
12,43,numeric,0.1,0.05,competitor,target,1,3.827
12,44,numeric,0.03,0.2,target,target,1,11.264
12,45,numeric,0.1,0.05,competitor,competitor,0,9.362
12,46,perceptual,0.03,0.05,competitor,competitor,0,3.29
12,47,numeric,0.03,0.05,target,target,1,9.07
12,48,numeric,0.1,0.05,target,target,1,8.009
12,49,numeric,0.1,0.05,competitor,target,1,9.647
12,50,perceptual,0.1,0.05,target,target,1,3.768
12,51,perceptual,0.1,0.05,competitor,competitor,0,2.433
12,52,numeric,0.1,0.05,competitor,target,1,2.763
12,53,perceptual,0.1,0.2,target,target,1,2.628
12,54,numeric,0.03,0.05,target,competitor,0,8.898
12,55,perceptual,0.1,0.05,competitor,target,1,6.963
12,56,numeric,0.1,0.05,competitor,competitor,0,10.128
12,57,perceptual,0.1,0.2,target,target,1,5.151
12,58,numeric,0.1,0.2,competitor,target,1,4.729
12,59,numeric,0.1,0.05,competitor,target,1,3.611
12,60,perceptual,0.03,0.05,target,target,1,0.183
12,61,numeric,0.1,0.2,target,target,1,3.121
12,62,numeric,0.03,0.05,competitor,competitor,0,9.188
12,63,perceptual,0.1,0.05,competitor,target,1,3.703
12,64,perceptual,0.1,0.05,competitor,target,1,2.267
12,65,perceptual,0.1,0.05,competitor,competitor,0,5.628
12,66,numeric,0.03,0.05,target,target,1,7.454
12,67,perceptual,0.03,0.2,competitor,competitor,0,3.779
12,68,numeric,0.1,0.2,competitor,competitor,0,4.815
12,69,perceptual,0.1,0.2,target,target,1,4.182
12,70,numeric,0.03,0.05,target,decoy,0,3.03
12,71,numeric,0.03,0.2,competitor,target,1,3.805
12,72,perceptual,0.1,0.2,target,target,1,4.102
12,73,perceptual,0.1,0.2,target,target,1,4.822
12,74,perceptual,0.03,0.2,target,target,1,2.79
12,75,perceptual,0.03,0.2,competitor,target,1,4.676
12,76,numeric,0.1,0.05,target,target,1,6.189
12,77,numeric,0.03,0.05,target,competitor,0,0.983
12,78,perceptual,0.03,0.2,target,target,1,4.013
12,79,perceptual,0.03,0.05,target,target,1,3.19
12,80,numeric,0.1,0.05,competitor,target,1,5.343
12,81,numeric,0.03,0.2,competitor,target,1,5.049
12,82,perceptual,0.1,0.2,competitor,competitor,0,6.471
12,83,numeric,0.03,0.2,target,target,1,7.153
12,84,perceptual,0.03,0.05,competitor,competitor,0,2.485
12,85,perceptual,0.1,0.2,competitor,target,1,3.134
12,86,numeric,0.03,0.2,target,competitor,0,4.595
12,87,perceptual,0.03,0.2,target,target,1,2.542
12,88,perceptual,0.03,0.05,competitor,target,1,4.587
12,89,perceptual,0.03,0.05,target,competitor,0,3.383
12,90,perceptual,0.03,0.2,competitor,target,1,3.803
12,91,perceptual,0.1,0.2,competitor,target,1,3.034
12,92,perceptual,0.03,0.05,target,target,1,4.29
12,93,perceptual,0.1,0.2,competitor,target,1,3.724
12,94,perceptual,0.1,0.2,target,target,1,1.982
12,95,numeric,0.03,0.2,target,decoy,0,9.986
12,96,perceptual,0.03,0.05,target,decoy,0,6.846
12,97,perceptual,0.03,0.05,target,target,1,9.024
12,98,numeric,0.03,0.05,competitor,competitor,0,5.16
12,99,perceptual,0.03,0.2,competitor,competitor,0,2.131
12,100,numeric,0.03,0.2,competitor,competitor,0,3.021
12,101,numeric,0.03,0.05,competitor,target,1,4.849
12,102,perceptual,0.1,0.05,competitor,decoy,0,3.982
12,103,numeric,0.1,0.2,target,target,1,6.705
12,104,perceptual,0.1,0.2,target,target,1,3.28
12,105,perceptual,0.1,0.05,target,competitor,0,2.847
12,106,numeric,0.1,0.2,competitor,target,1,4.974
12,107,numeric,0.03,0.05,competitor,target,1,5.316
12,108,numeric,0.1,0.2,competitor,target,1,3.066
12,109,perceptual,0.03,0.05,competitor,decoy,0,2.952
12,110,numeric,0.03,0.2,competitor,competitor,0,4.861
12,111,perceptual,0.03,0.05,target,target,1,3.15
12,112,perceptual,0.03,0.05,target,competitor,0,2.713
12,113,numeric,0.1,0.2,target,competitor,0,2.098
12,114,perceptual,0.1,0.2,competitor,target,1,2.505
12,115,perceptual,0.03,0.2,competitor,competitor,0,3.086
12,116,numeric,0.03,0.2,target,competitor,0,5.529
12,117,perceptual,0.1,0.05,competitor,target,1,3.321
12,118,numeric,0.03,0.2,target,competitor,0,5.895
12,119,numeric,0.03,0.05,competitor,target,1,2.573
12,120,perceptual,0.03,0.2,target,target,1,2.568
12,121,perceptual,0.03,0.05,competitor,competitor,0,2.972
12,122,numeric,0.03,0.05,target,target,1,10.317
12,123,perceptual,0.03,0.05,competitor,target,1,2.813
12,124,perceptual,0.1,0.2,target,target,1,2.791
