participant,trial_counter,condition,target_to_competitor,decoy_reduction,decoy_on,chosen_item,correct,rt
1,1,numeric,0.1,0.2,competitor,decoy,0,8.13
1,2,numeric,0.03,0.2,competitor,competitor,0,6.43
1,3,perceptual,0.1,0.2,target,target,1,6.055
1,4,numeric,0.1,0.2,competitor,target,1,7.694
1,5,numeric,0.1,0.2,competitor,target,1,5.361
1,6,numeric,0.03,0.05,target,target,1,7.376
1,7,perceptual,0.03,0.2,target,competitor,0,4.899
1,8,numeric,0.1,0.2,competitor,target,1,8.771
1,9,perceptual,0.03,0.05,target,competitor,0,6.661
1,10,numeric,0.03,0.2,target,competitor,0,5.817
1,11,perceptual,0.1,0.05,competitor,target,1,4.616
1,12,perceptual,0.1,0.2,target,target,1,8.588
1,13,numeric,0.1,0.2,target,decoy,0,5.375
1,14,perceptual,0.1,0.2,target,target,1,6.346
1,15,numeric,0.03,0.2,target,target,1,4.197
1,16,numeric,0.1,0.2,target,target,1,5.983
1,17,numeric,0.1,0.05,target,competitor,0,4.605
1,18,perceptual,0.03,0.2,target,target,1,5.177
1,19,numeric,0.1,0.05,target,target,1,5.203
1,20,perceptual,0.1,0.05,competitor,decoy,0,6.877
1,21,numeric,0.03,0.05,competitor,competitor,0,10.595
1,22,perceptual,0.03,0.2,competitor,competitor,0,5.56
1,23,numeric,0.1,0.05,target,competitor,0,6.243
1,24,perceptual,0.03,0.05,competitor,target,1,4.389
1,25,numeric,0.1,0.05,target,decoy,0,3.714
1,26,numeric,0.03,0.05,target,target,1,4.523
1,27,perceptual,0.1,0.05,target,target,1,5.21
1,28,perceptual,0.03,0.2,competitor,decoy,0,4.024
1,29,perceptual,0.03,0.2,competitor,competitor,0,4.167
1,30,perceptual,0.1,0.2,competitor,target,1,6.589
1,31,numeric,0.03,0.05,competitor,target,1,4.363
1,32,perceptual,0.1,0.2,competitor,target,1,5.59
1,33,numeric,0.03,0.05,competitor,target,1,2.785
1,34,perceptual,0.03,0.2,target,decoy,0,4.633
1,35,numeric,0.03,0.05,target,target,1,8.94
1,36,perceptual,0.03,0.2,target,decoy,0,7.893
1,37,numeric,0.03,0.05,target,target,1,9.828
1,38,perceptual,0.03,0.05,target,target,1,5.31
1,39,perceptual,0.1,0.05,target,target,1,4.14
1,40,perceptual,0.03,0.2,target,competitor,0,3.046
1,41,numeric,0.1,0.2,target,target,1,4.297
1,42,perceptual,0.03,0.05,target,target,1,7.674
1,43,perceptual,0.03,0.05,competitor,competitor,0,4.325
1,44,numeric,0.03,0.2,competitor,decoy,0,0.074
1,45,perceptual,0.03,0.05,target,target,1,9.707
1,46,numeric,0.03,0.05,target,target,1,3.938
1,47,perceptual,0.1,0.05,competitor,target,1,2.794
1,48,perceptual,0.1,0.05,target,target,1,4.331
1,49,perceptual,0.03,0.05,target,competitor,0,4.152
1,50,perceptual,0.03,0.2,competitor,target,1,2.459
1,51,perceptual,0.1,0.2,competitor,target,1,3.273
1,52,perceptual,0.1,0.05,competitor,target,1,6.532
1,53,perceptual,0.1,0.05,competitor,competitor,0,5.07
1,54,perceptual,0.03,0.2,competitor,target,1,2.916
1,55,numeric,0.03,0.05,competitor,decoy,0,5.743
1,56,numeric,0.03,0.2,competitor,target,1,5.473
1,57,perceptual,0.1,0.05,competitor,competitor,0,6.486
1,58,numeric,0.1,0.2,competitor,target,1,4.114
1,59,perceptual,0.1,0.2,target,competitor,0,4.042
1,60,perceptual,0.03,0.2,competitor,target,1,5.342
1,61,numeric,0.03,0.2,competitor,target,1,4.377
1,62,perceptual,0.1,0.05,target,decoy,0,2.365
1,63,perceptual,0.03,0.05,target,decoy,0,5.806
1,64,numeric,0.1,0.05,competitor,competitor,0,8.439
1,65,numeric,0.03,0.2,competitor,decoy,0,3.907
1,66,perceptual,0.1,0.05,competitor,competitor,0,3.693
1,67,perceptual,0.03,0.05,competitor,decoy,0,5.074
1,68,perceptual,0.1,0.2,target,decoy,0,3.324
1,69,perceptual,0.03,0.2,competitor,target,1,4.942
1,70,perceptual,0.1,0.05,target,decoy,0,7.56
1,71,perceptual,0.03,0.05,competitor,competitor,0,3.857
1,72,perceptual,0.03,0.05,target,decoy,0,5.35
1,73,numeric,0.1,0.05,competitor,target,1,3.292
1,74,numeric,0.03,0.2,target,target,1,3.706
1,75,numeric,0.03,0.2,target,competitor,0,5.088
1,76,numeric,0.1,0.2,competitor,target,1,4.101
1,77,numeric,0.1,0.05,target,decoy,0,4.939
1,78,numeric,0.1,0.05,target,target,1,3.074
1,79,numeric,0.1,0.2,competitor,competitor,0,4.856
1,80,perceptual,0.03,0.05,competitor,competitor,0,7.619
1,81,numeric,0.1,0.05,target,decoy,0,3.797
1,82,perceptual,0.03,0.05,competitor,target,1,2.675
1,83,numeric,0.03,0.2,target,competitor,0,3.14
1,84,numeric,0.1,0.2,target,decoy,0,3.543
1,85,perceptual,0.03,0.05,target,target,1,4.456
1,86,perceptual,0.03,0.05,competitor,competitor,0,5.026
1,87,perceptual,0.03,0.2,competitor,competitor,0,5.557
1,88,numeric,0.03,0.05,competitor,target,1,5.308
1,89,numeric,0.03,0.2,competitor,competitor,0,9.926
1,90,perceptual,0.1,0.2,target,competitor,0,5.919
1,91,perceptual,0.03,0.05,competitor,target,1,3.187
1,92,perceptual,0.1,0.05,target,target,1,3.525
1,93,perceptual,0.1,0.05,target,competitor,0,8.042
1,94,numeric,0.1,0.2,competitor,target,1,5.825
1,95,numeric,0.1,0.05,competitor,target,1,2.987
1,96,numeric,0.1,0.05,competitor,competitor,0,6.877
1,97,perceptual,0.1,0.2,competitor,target,1,3.568
1,98,perceptual,0.1,0.2,target,competitor,0,2.727
1,99,numeric,0.03,0.05,competitor,target,1,8.175
1,100,numeric,0.03,0.2,target,competitor,0,6.102
1,101,perceptual,0.03,0.05,competitor,target,1,6.874
1,102,perceptual,0.03,0.2,competitor,decoy,0,7.731
1,103,numeric,0.1,0.05,competitor,decoy,0,2.763
1,104,numeric,0.1,0.2,competitor,competitor,0,4.126
1,105,perceptual,0.1,0.2,competitor,decoy,0,4.746
1,106,numeric,0.1,0.05,target,competitor,0,2.782
1,107,numeric,0.03,0.2,competitor,target,1,11.327
1,108,perceptual,0.1,0.2,competitor,target,1,4.24
1,109,perceptual,0.03,0.05,target,target,1,5.475
1,110,numeric,0.03,0.05,competitor,competitor,0,4.479
1,111,numeric,0.1,0.2,target,competitor,0,6.075
1,112,perceptual,0.03,0.2,competitor,target,1,2.978
1,113,numeric,0.03,0.2,target,target,1,3.24
1,114,numeric,0.1,0.05,competitor,competitor,0,3.259
1,115,numeric,0.1,0.2,target,target,1,4.826
1,116,perceptual,0.1,0.2,competitor,target,1,4.6
1,117,numeric,0.1,0.2,target,competitor,0,4.78
1,118,perceptual,0.1,0.2,competitor,decoy,0,8.007
1,119,numeric,0.03,0.05,competitor,target,1,4.209
1,120,numeric,0.1,0.2,target,target,1,6.827
1,121,numeric,0.1,0.2,competitor,target,1,5.007
1,122,numeric,0.1,0.05,competitor,decoy,0,5.427
1,123,numeric,0.1,0.2,target,target,1,4.094
1,124,perceptual,0.1,0.05,competitor,target,1,5.356
1,125,perceptual,0.03,0.05,target,target,1,3.572
1,126,perceptual,0.03,0.05,competitor,decoy,0,7.211
1,127,perceptual,0.03,0.2,target,decoy,0,4.296
1,128,numeric,0.03,0.05,competitor,target,1,3.977
1,129,numeric,0.1,0.2,competitor,target,1,3.133
1,130,numeric,0.1,0.05,competitor,competitor,0,5.56
1,131,numeric,0.1,0.05,competitor,target,1,5.505
1,132,numeric,0.1,0.05,target,competitor,0,5.476
1,133,numeric,0.03,0.05,target,competitor,0,5.245
1,134,perceptual,0.1,0.2,competitor,target,1,6.56
1,135,numeric,0.1,0.2,target,competitor,0,3.279
1,136,numeric,0.1,0.05,target,target,1,8.341
1,137,numeric,0.03,0.2,target,target,1,3.707
1,138,perceptual,0.03,0.05,competitor,decoy,0,6.106
1,139,perceptual,0.03,0.05,target,decoy,0,4.557
1,140,perceptual,0.03,0.2,target,competitor,0,6.094
1,141,perceptual,0.1,0.2,target,target,1,7.165
1,142,numeric,0.1,0.05,competitor,decoy,0,9.209
1,143,numeric,0.1,0.05,competitor,target,1,6.149
1,144,numeric,0.03,0.2,target,competitor,0,4.315
1,145,numeric,0.03,0.2,competitor,target,1,2.157
1,146,numeric,0.03,0.05,competitor,target,1,2.647
1,147,perceptual,0.1,0.05,target,competitor,0,3.721
1,148,perceptual,0.1,0.2,competitor,competitor,0,3.144
1,149,perceptual,0.03,0.2,competitor,decoy,0,3.53
1,150,numeric,0.03,0.05,target,decoy,0,5.859
1,151,numeric,0.03,0.05,target,competitor,0,3.697
1,152,perceptual,0.03,0.05,target,competitor,0,4.006
1,153,numeric,0.03,0.05,competitor,target,1,3.996
1,154,perceptual,0.1,0.05,competitor,competitor,0,4.008
1,155,numeric,0.03,0.2,competitor,decoy,0,7.411
1,156,perceptual,0.1,0.05,competitor,target,1,4.909
1,157,numeric,0.03,0.05,target,target,1,6.624
1,158,perceptual,0.1,0.2,target,competitor,0,3.525
1,159,perceptual,0.03,0.2,target,competitor,0,2.995
1,160,perceptual,0.1,0.2,target,target,1,2.53
1,161,perceptual,0.03,0.2,target,competitor,0,2.684
1,162,numeric,0.03,0.05,target,competitor,0,3.747
1,163,perceptual,0.1,0.05,competitor,decoy,0,5.935
1,164,numeric,0.03,0.05,competitor,target,1,3.499
1,165,perceptual,0.1,0.05,target,decoy,0,4.209
1,166,perceptual,0.1,0.05,target,target,1,7.293
1,167,numeric,0.03,0.05,target,target,1,6.903
1,168,perceptual,0.1,0.2,competitor,competitor,0,3.359
1,169,numeric,0.03,0.2,competitor,decoy,0,5.695
1,170,numeric,0.1,0.05,target,target,1,10.161
1,171,perceptual,0.03,0.2,competitor,target,1,3.978
1,172,perceptual,0.03,0.2,target,competitor,0,2.937
1,173,numeric,0.03,0.2,target,competitor,0,3.123
1,174,perceptual,0.1,0.2,target,target,1,4.791
1,175,numeric,0.1,0.05,competitor,decoy,0,2.697
1,176,numeric,0.03,0.2,competitor,target,1,4.206
1,177,numeric,0.1,0.2,target,target,1,3.751
1,178,perceptual,0.03,0.2,target,decoy,0,4.348
1,179,perceptual,0.03,0.05,competitor,target,1,4.63
1,180,numeric,0.03,0.2,target,decoy,0,7.343
1,181,perceptual,0.1,0.05,competitor,competitor,0,6.205
1,182,numeric,0.1,0.2,target,target,1,3.953
1,183,numeric,0.1,0.05,target,competitor,0,2.61
1,184,perceptual,0.1,0.2,competitor,competitor,0,8.243
1,185,numeric,0.03,0.05,target,competitor,0,10.962
1,186,numeric,0.03,0.2,competitor,competitor,0,6.417
1,187,perceptual,0.1,0.2,target,competitor,0,10.939
1,188,perceptual,0.1,0.05,target,decoy,0,3.393
1,189,numeric,0.03,0.2,target,competitor,0,4.214
1,190,perceptual,0.03,0.2,target,target,1,5.613
1,191,numeric,0.1,0.2,competitor,competitor,0,3.374
1,192,perceptual,0.1,0.05,target,competitor,0,4.477
2,1,perceptual,0.1,0.2,target,target,1,12.143
2,2,numeric,0.1,0.05,competitor,target,1,8.881
2,3,numeric,0.1,0.2,competitor,target,1,0.244
2,4,perceptual,0.1,0.05,target,target,1,7.187
2,5,perceptual,0.03,0.05,target,target,1,10.422
2,6,numeric,0.1,0.2,target,target,1,6.476
2,7,perceptual,0.03,0.05,competitor,target,1,9.75
2,8,perceptual,0.1,0.05,target,target,1,12.026
2,9,numeric,0.1,0.2,target,target,1,10.14
2,10,perceptual,0.03,0.05,competitor,target,1,11.485
2,11,perceptual,0.03,0.05,target,target,1,15.718
2,12,numeric,0.1,0.05,target,target,1,10.507
2,13,numeric,0.1,0.2,competitor,target,1,8.083
2,14,numeric,0.1,0.05,competitor,target,1,12.734
2,15,numeric,0.03,0.05,target,target,1,7.058
2,16,numeric,0.03,0.2,competitor,target,1,8.274
2,17,numeric,0.1,0.05,competitor,competitor,0,11.845
2,18,perceptual,0.1,0.05,competitor,target,1,7.852
2,19,numeric,0.1,0.2,competitor,competitor,0,13.936
2,20,perceptual,0.1,0.05,target,decoy,0,7.876
2,21,perceptual,0.03,0.05,target,target,1,8.461
2,22,numeric,0.1,0.2,target,target,1,8.799
2,23,perceptual,0.1,0.2,target,target,1,3.488
2,24,perceptual,0.03,0.2,target,competitor,0,3.836
2,25,perceptual,0.03,0.05,competitor,decoy,0,8.185
2,26,perceptual,0.03,0.2,target,competitor,0,3.271
2,27,perceptual,0.1,0.2,competitor,target,1,5.893
2,28,numeric,0.03,0.05,competitor,target,1,9.839
2,29,numeric,0.1,0.2,target,target,1,14.286
2,30,numeric,0.03,0.05,competitor,target,1,13.332
2,31,perceptual,0.1,0.2,target,target,1,7.745
2,32,numeric,0.03,0.2,competitor,competitor,0,7.709
2,33,numeric,0.1,0.2,competitor,competitor,0,16.957
2,34,perceptual,0.03,0.2,target,competitor,0,3.979
2,35,perceptual,0.03,0.05,target,competitor,0,7.81
2,36,numeric,0.03,0.05,target,decoy,0,9.192
2,37,perceptual,0.03,0.05,target,target,1,16.839
2,38,perceptual,0.03,0.2,competitor,target,1,8.445
2,39,perceptual,0.1,0.05,target,target,1,5.211
2,40,perceptual,0.03,0.2,competitor,target,1,3.914
2,41,perceptual,0.03,0.05,competitor,target,1,8.442
2,42,numeric,0.03,0.2,target,target,1,9.175
2,43,numeric,0.03,0.2,target,target,1,6.846
2,44,perceptual,0.03,0.2,competitor,target,1,4.45
2,45,numeric,0.1,0.05,target,target,1,5.209
2,46,perceptual,0.03,0.05,competitor,target,1,2.83
2,47,numeric,0.03,0.05,target,target,1,15.521
2,48,perceptual,0.1,0.05,competitor,target,1,7.562
2,49,perceptual,0.1,0.05,target,target,1,6.757
2,50,numeric,0.03,0.2,target,target,1,4.955
2,51,numeric,0.1,0.05,target,target,1,6.464
2,52,numeric,0.1,0.05,target,target,1,6.596
2,53,numeric,0.1,0.2,competitor,target,1,8.433
2,54,numeric,0.03,0.2,target,target,1,9.131
2,55,numeric,0.1,0.2,competitor,target,1,9.647
2,56,numeric,0.1,0.05,competitor,target,1,18.545
2,57,numeric,0.03,0.05,target,target,1,6.5
2,58,numeric,0.03,0.05,competitor,competitor,0,12.649
2,59,perceptual,0.1,0.2,target,target,1,6.824
2,60,perceptual,0.03,0.2,competitor,target,1,3.234
2,61,perceptual,0.03,0.2,target,target,1,3.786
2,62,perceptual,0.03,0.2,target,target,1,4.422
2,63,perceptual,0.1,0.2,target,target,1,6.841
2,64,numeric,0.03,0.2,target,target,1,11.359
2,65,perceptual,0.1,0.2,competitor,target,1,6.258
2,66,perceptual,0.1,0.05,competitor,target,1,2.82
2,67,perceptual,0.1,0.05,target,decoy,0,3.781
2,68,perceptual,0.1,0.2,target,competitor,0,6.626
2,69,numeric,0.1,0.2,competitor,target,1,17.786
2,70,perceptual,0.03,0.2,target,target,1,5.683
2,71,perceptual,0.03,0.2,competitor,competitor,0,2.207
2,72,perceptual,0.03,0.05,competitor,target,1,3.031
2,73,numeric,0.03,0.05,competitor,competitor,0,5.904
2,74,perceptual,0.03,0.05,target,target,1,6.546
2,75,perceptual,0.03,0.2,target,target,1,3.444
2,76,perceptual,0.1,0.05,competitor,competitor,0,5.974
2,77,perceptual,0.1,0.2,competitor,target,1,8.102
2,78,numeric,0.03,0.05,target,target,1,12.131
2,79,numeric,0.1,0.2,competitor,target,1,8.494
2,80,perceptual,0.03,0.2,competitor,competitor,0,4.853
2,81,perceptual,0.03,0.05,target,target,1,5.844
2,82,perceptual,0.1,0.2,target,target,1,4.177
2,83,perceptual,0.1,0.2,competitor,competitor,0,3.639
2,84,perceptual,0.03,0.05,competitor,target,1,6.048
2,85,perceptual,0.1,0.05,competitor,target,1,3.093
2,86,numeric,0.1,0.2,target,target,1,11.754
2,87,perceptual,0.1,0.05,competitor,target,1,3.054
2,88,numeric,0.1,0.2,competitor,competitor,0,15.756
2,89,perceptual,0.1,0.05,target,target,1,4.394
2,90,numeric,0.1,0.05,competitor,target,1,11.887
2,91,perceptual,0.1,0.2,competitor,decoy,0,2.787
2,92,numeric,0.03,0.05,target,target,1,5.798
2,93,numeric,0.1,0.2,target,target,1,7.484
2,94,perceptual,0.03,0.2,competitor,target,1,2.54
2,95,numeric,0.1,0.05,target,target,1,4.915
2,97,numeric,0.03,0.05,competitor,competitor,0,6.804
2,98,numeric,0.1,0.05,competitor,target,1,10.048
2,99,perceptual,0.1,0.05,competitor,competitor,0,3.904
2,100,perceptual,0.03,0.05,target,decoy,0,2.861
2,101,perceptual,0.03,0.05,competitor,decoy,0,4.19
2,102,numeric,0.1,0.2,target,target,1,15.084
2,103,perceptual,0.03,0.05,competitor,competitor,0,6.896
2,104,numeric,0.03,0.05,target,target,1,7.849
2,105,numeric,0.1,0.05,competitor,target,1,7.761
2,106,numeric,0.03,0.2,competitor,target,1,5.833
2,107,numeric,0.1,0.05,target,target,1,4.749
2,108,perceptual,0.1,0.2,target,decoy,0,2.576
2,109,numeric,0.03,0.05,competitor,competitor,0,11.529
2,110,numeric,0.1,0.05,target,target,1,7.702
2,111,numeric,0.1,0.05,competitor,target,1,7.478
2,112,numeric,0.03,0.2,competitor,competitor,0,8.61
2,113,numeric,0.1,0.2,target,target,1,8.503
2,114,perceptual,0.03,0.2,target,competitor,0,5.042
2,115,perceptual,0.1,0.05,competitor,target,1,3.669
2,116,numeric,0.03,0.2,target,target,1,4.462
2,117,perceptual,0.03,0.2,target,competitor,0,5.45
2,118,numeric,0.1,0.05,target,target,1,4.943
2,119,numeric,0.03,0.05,competitor,competitor,0,7.631
2,120,numeric,0.03,0.2,competitor,competitor,0,8.372
2,121,numeric,0.1,0.2,target,target,1,11.084
2,122,numeric,0.1,0.2,target,target,1,6.171
2,123,numeric,0.03,0.2,target,target,1,9.631
2,124,numeric,0.1,0.2,competitor,target,1,16.086
2,125,numeric,0.1,0.2,target,target,1,7.109
2,126,perceptual,0.03,0.2,competitor,target,1,5.229
2,127,numeric,0.03,0.05,target,target,1,10.665
2,128,numeric,0.03,0.2,target,target,1,11.821
2,129,numeric,0.03,0.05,competitor,target,1,6.179
2,130,numeric,0.03,0.2,competitor,competitor,0,9.813
2,131,perceptual,0.03,0.05,competitor,competitor,0,6.691
2,132,numeric,0.1,0.2,competitor,competitor,0,16.608
2,133,perceptual,0.1,0.05,competitor,competitor,0,3.38
2,134,numeric,0.1,0.05,target,target,1,13.914
2,135,numeric,0.1,0.05,target,target,1,8.376
2,136,perceptual,0.03,0.2,target,target,1,4.585
2,137,numeric,0.03,0.05,target,target,1,5.312
2,138,numeric,0.03,0.05,target,target,1,8.647
2,139,numeric,0.03,0.2,target,target,1,7.472
2,140,perceptual,0.1,0.2,competitor,target,1,7.756
2,141,perceptual,0.1,0.2,target,target,1,5.496
2,142,perceptual,0.03,0.2,target,competitor,0,3.91
2,143,perceptual,0.1,0.05,competitor,target,1,6.129
2,144,numeric,0.03,0.05,target,target,1,9.027
2,145,perceptual,0.03,0.05,target,target,1,6.344
2,146,numeric,0.03,0.2,competitor,target,1,10.446
2,147,perceptual,0.1,0.2,competitor,competitor,0,2.529
2,148,numeric,0.03,0.2,competitor,competitor,0,16.998
2,149,perceptual,0.1,0.05,target,target,1,7.166
2,150,numeric,0.03,0.2,target,target,1,6.82
2,151,numeric,0.1,0.05,competitor,target,1,8.287
2,152,numeric,0.03,0.05,competitor,competitor,0,11.67
2,153,numeric,0.1,0.05,target,target,1,11.467
2,154,perceptual,0.1,0.2,competitor,target,1,4.332
2,155,numeric,0.1,0.05,competitor,competitor,0,10.213
2,156,numeric,0.1,0.05,competitor,competitor,0,13.783
2,157,perceptual,0.1,0.2,competitor,target,1,3.057
2,158,perceptual,0.1,0.2,competitor,target,1,2.079
2,159,numeric,0.03,0.05,competitor,competitor,0,8.892
2,160,perceptual,0.1,0.05,competitor,target,1,4.477
2,161,perceptual,0.1,0.2,competitor,target,1,6.128
2,162,numeric,0.03,0.05,competitor,competitor,0,9.487
2,163,perceptual,0.1,0.2,competitor,target,1,3.694
2,164,perceptual,0.03,0.05,target,competitor,0,6.273
2,165,numeric,0.1,0.2,target,target,1,7.62
2,166,perceptual,0.03,0.2,competitor,competitor,0,7.075
2,167,numeric,0.03,0.2,target,target,1,12.224
2,168,perceptual,0.03,0.2,competitor,competitor,0,3.91
2,169,numeric,0.1,0.05,target,target,1,5.766
2,170,perceptual,0.1,0.2,target,target,1,3.619
2,171,perceptual,0.1,0.05,target,target,1,3.604
2,172,numeric,0.1,0.05,competitor,target,1,6.692
2,173,perceptual,0.03,0.05,competitor,target,1,9.395
2,174,perceptual,0.1,0.05,target,target,1,8.45
2,175,perceptual,0.03,0.2,competitor,competitor,0,6.488
2,176,perceptual,0.1,0.05,target,target,1,7.568
2,177,perceptual,0.1,0.2,target,target,1,7.153
2,178,perceptual,0.1,0.2,target,target,1,7.473
2,179,numeric,0.03,0.05,target,target,1,7.434
2,180,perceptual,0.03,0.05,target,target,1,10.313
2,181,numeric,0.03,0.2,competitor,target,1,5.948
2,182,numeric,0.03,0.2,competitor,competitor,0,12.79
2,183,numeric,0.03,0.05,competitor,target,1,14.299
2,184,numeric,0.03,0.2,target,target,1,11.607
2,185,perceptual,0.03,0.2,target,target,1,3.302
2,186,perceptual,0.03,0.05,competitor,competitor,0,7.935
2,187,perceptual,0.03,0.05,target,target,1,2.238
2,188,perceptual,0.1,0.05,target,target,1,5.305
2,189,numeric,0.03,0.2,competitor,competitor,0,11.276
2,190,perceptual,0.03,0.2,competitor,decoy,0,12.549
2,191,numeric,0.03,0.2,competitor,competitor,0,7.833
2,192,perceptual,0.1,0.05,competitor,competitor,0,9.483
3,1,perceptual,0.03,0.2,competitor,competitor,0,18.751
3,2,perceptual,0.1,0.05,target,decoy,0,6.367
3,3,perceptual,0.1,0.05,competitor,target,1,9.231
3,4,numeric,0.1,0.2,competitor,competitor,0,18.072
3,5,numeric,0.03,0.2,target,decoy,0,9.397
3,6,perceptual,0.03,0.05,target,competitor,0,4.925
3,7,numeric,0.1,0.2,competitor,competitor,0,12.02
3,8,perceptual,0.03,0.05,competitor,decoy,0,5.283
3,9,numeric,0.1,0.05,target,target,1,11.018
3,10,numeric,0.1,0.2,competitor,competitor,0,7.475
3,11,perceptual,0.03,0.2,competitor,target,1,6.256
3,12,numeric,0.1,0.05,target,target,1,16.08
3,13,numeric,0.1,0.2,target,target,1,15.294
3,14,numeric,0.1,0.05,target,target,1,7.306
3,15,numeric,0.1,0.2,competitor,target,1,8.671
3,16,numeric,0.03,0.05,target,competitor,0,9.394
3,17,perceptual,0.1,0.2,competitor,competitor,0,8.249
3,18,perceptual,0.1,0.05,target,target,1,11.11
3,19,perceptual,0.1,0.05,competitor,competitor,0,11.149
3,20,numeric,0.03,0.05,target,competitor,0,11.886
3,21,numeric,0.1,0.2,competitor,decoy,0,12.681
3,22,perceptual,0.03,0.2,target,decoy,0,9.284
3,23,numeric,0.03,0.05,competitor,target,1,16.334
3,24,numeric,0.03,0.2,competitor,target,1,8.017
3,25,numeric,0.1,0.2,target,competitor,0,8.386
3,26,numeric,0.1,0.2,target,target,1,7.803
3,27,perceptual,0.1,0.05,target,competitor,0,4.555
3,28,numeric,0.03,0.2,competitor,target,1,10.148
3,29,numeric,0.1,0.2,target,target,1,9.525
3,30,perceptual,0.03,0.05,target,decoy,0,5.433
3,31,perceptual,0.1,0.05,target,target,1,5.685
3,32,numeric,0.03,0.2,competitor,competitor,0,13.125
3,33,numeric,0.03,0.05,target,target,1,6.512
3,34,numeric,0.03,0.2,target,competitor,0,10.041
3,35,perceptual,0.1,0.2,competitor,competitor,0,11.216
3,36,numeric,0.03,0.2,target,target,1,12.418
3,37,perceptual,0.1,0.05,target,target,1,2.269
3,38,numeric,0.03,0.2,competitor,decoy,0,3.023
3,39,perceptual,0.03,0.2,competitor,target,1,2.87
3,40,numeric,0.03,0.2,target,target,1,8.32
3,41,numeric,0.03,0.05,competitor,target,1,7.568
3,42,perceptual,0.03,0.2,competitor,decoy,0,4.06
3,43,perceptual,0.1,0.05,target,target,1,6.158
3,44,numeric,0.1,0.05,competitor,competitor,0,7.683
3,45,perceptual,0.1,0.2,target,decoy,0,5.32
3,46,perceptual,0.1,0.2,competitor,decoy,0,7.243
3,47,numeric,0.03,0.05,competitor,competitor,0,12.983
3,48,numeric,0.1,0.05,competitor,target,1,8.209
3,49,perceptual,0.1,0.05,target,decoy,0,6.92
3,50,numeric,0.03,0.05,competitor,target,1,5.568
3,51,perceptual,0.1,0.2,competitor,target,1,5.187
3,52,numeric,0.03,0.05,competitor,target,1,9.937
3,53,perceptual,0.03,0.05,target,target,1,4.905
3,54,numeric,0.1,0.05,target,target,1,12.537
3,55,numeric,0.1,0.2,target,target,1,9.936
3,56,numeric,0.03,0.2,target,target,1,9.334
3,57,perceptual,0.1,0.2,competitor,target,1,8.539
3,58,numeric,0.1,0.2,competitor,target,1,10.964
3,59,numeric,0.03,0.2,competitor,target,1,12.288
3,60,perceptual,0.1,0.2,competitor,target,1,4.21
3,61,perceptual,0.03,0.05,target,decoy,0,9.496
3,62,numeric,0.1,0.05,competitor,target,1,13.751
3,63,perceptual,0.1,0.05,competitor,target,1,3.242
3,64,numeric,0.1,0.2,competitor,target,1,10.519
3,65,numeric,0.1,0.2,target,decoy,0,9.785
3,66,numeric,0.03,0.05,target,target,1,15.29
3,67,numeric,0.03,0.05,target,competitor,0,7.488
3,68,perceptual,0.03,0.2,target,decoy,0,6.449
3,69,numeric,0.03,0.05,competitor,competitor,0,15.865
3,70,perceptual,0.1,0.2,target,target,1,9.644
3,71,numeric,0.03,0.05,competitor,competitor,0,15.377
3,72,numeric,0.03,0.2,competitor,target,1,10.054
3,73,perceptual,0.1,0.2,target,target,1,4.712
3,74,numeric,0.03,0.05,target,target,1,19.829
3,75,perceptual,0.03,0.05,competitor,target,1,4.651
3,76,perceptual,0.03,0.2,competitor,target,1,8.026
3,77,perceptual,0.1,0.05,target,target,1,3.621
3,78,perceptual,0.03,0.2,target,target,1,7.45
3,79,perceptual,0.03,0.2,competitor,decoy,0,4.269
3,80,numeric,0.1,0.2,target,target,1,9.201
3,81,perceptual,0.03,0.05,competitor,target,1,6.148
3,82,perceptual,0.1,0.2,competitor,target,1,5.712
3,83,perceptual,0.1,0.2,competitor,target,1,4.51
3,84,numeric,0.1,0.2,target,target,1,7.262
3,85,perceptual,0.1,0.2,target,decoy,0,3.208
3,86,perceptual,0.1,0.2,target,competitor,0,3.466
3,87,perceptual,0.03,0.05,competitor,target,1,2.793
3,88,numeric,0.1,0.05,target,target,1,6.493
3,89,perceptual,0.1,0.2,competitor,target,1,2.835
3,90,perceptual,0.03,0.2,target,competitor,0,4.571
3,91,perceptual,0.03,0.2,target,decoy,0,4.668
3,92,perceptual,0.1,0.05,competitor,competitor,0,5.588
3,93,perceptual,0.03,0.2,target,target,1,2.755
3,94,numeric,0.1,0.05,target,target,1,5.415
3,95,numeric,0.1,0.05,target,target,1,8.836
3,96,numeric,0.1,0.05,competitor,target,1,9.386
3,97,perceptual,0.03,0.05,target,competitor,0,3.264
3,98,numeric,0.1,0.05,target,target,1,10.951
3,99,perceptual,0.1,0.05,target,decoy,0,4.468
3,100,perceptual,0.1,0.05,target,competitor,0,3.962
3,101,perceptual,0.1,0.05,competitor,decoy,0,5.737
3,102,perceptual,0.03,0.05,target,competitor,0,2.826
3,103,numeric,0.03,0.05,target,target,1,14.183
3,104,numeric,0.03,0.2,competitor,competitor,0,5.916
3,105,perceptual,0.03,0.2,competitor,competitor,0,2.755
3,106,perceptual,0.03,0.2,competitor,decoy,0,2.565
3,107,perceptual,0.03,0.05,target,competitor,0,3.204
3,108,numeric,0.03,0.2,target,competitor,0,8.233
3,109,perceptual,0.1,0.2,target,competitor,0,3.542
3,110,numeric,0.1,0.2,target,target,1,12.55
3,111,perceptual,0.03,0.2,target,target,1,12.565
3,112,numeric,0.1,0.05,competitor,competitor,0,12.658
3,113,numeric,0.03,0.05,competitor,competitor,0,11.588
3,114,numeric,0.03,0.2,competitor,target,1,10.006
3,115,numeric,0.1,0.2,competitor,target,1,6.565
3,116,numeric,0.03,0.05,competitor,competitor,0,6.435
3,117,numeric,0.03,0.2,target,target,1,6.181
3,118,numeric,0.1,0.2,target,target,1,9.166
3,119,perceptual,0.03,0.2,target,competitor,0,3.856
3,120,numeric,0.03,0.05,competitor,target,1,15.816
3,121,numeric,0.03,0.05,competitor,target,1,3.057
3,122,perceptual,0.1,0.05,competitor,competitor,0,6.099
3,123,perceptual,0.03,0.05,target,competitor,0,2.857
3,124,perceptual,0.03,0.2,competitor,competitor,0,2.686
3,125,numeric,0.03,0.2,target,competitor,0,5.717
3,126,perceptual,0.1,0.05,competitor,target,1,2.685
3,127,numeric,0.1,0.05,competitor,target,1,8.13
3,128,numeric,0.1,0.05,target,target,1,6.103
3,129,perceptual,0.03,0.2,target,competitor,0,4.164
3,130,numeric,0.1,0.05,competitor,target,1,6.619
3,131,perceptual,0.03,0.05,target,target,1,5.486
3,132,perceptual,0.1,0.2,target,decoy,0,5.291
3,133,perceptual,0.03,0.2,target,decoy,0,6.22
3,134,perceptual,0.1,0.05,competitor,decoy,0,2.887
3,135,numeric,0.03,0.2,competitor,target,1,3.737
3,136,perceptual,0.1,0.05,competitor,competitor,0,2.808
3,137,perceptual,0.1,0.2,competitor,decoy,0,2.543
3,138,numeric,0.1,0.05,competitor,target,1,5.179
3,139,numeric,0.03,0.2,target,target,1,7.621
3,140,numeric,0.1,0.05,competitor,target,1,6.287
3,141,perceptual,0.03,0.05,target,target,1,3.386
3,142,numeric,0.1,0.05,competitor,competitor,0,7
3,143,perceptual,0.1,0.2,target,competitor,0,4.99
3,144,perceptual,0.03,0.2,target,target,1,7.352
3,145,perceptual,0.03,0.05,competitor,target,1,5.194
3,147,perceptual,0.1,0.2,competitor,competitor,0,14.271
3,148,perceptual,0.1,0.05,competitor,target,1,5.769
3,149,perceptual,0.03,0.2,target,competitor,0,3.219
3,150,perceptual,0.1,0.05,target,decoy,0,3.708
3,151,numeric,0.1,0.2,competitor,decoy,0,4.149
3,152,perceptual,0.03,0.05,target,competitor,0,3.464
3,153,perceptual,0.1,0.05,competitor,target,1,2.396
3,154,numeric,0.03,0.05,competitor,target,1,7.006
3,155,numeric,0.03,0.05,target,competitor,0,4.356
3,156,perceptual,0.1,0.05,target,competitor,0,2.947
3,157,numeric,0.03,0.05,target,competitor,0,3.286
3,158,numeric,0.03,0.2,target,competitor,0,3.745
3,159,numeric,0.1,0.05,competitor,target,1,4.13
3,160,perceptual,0.1,0.2,target,competitor,0,2.758
3,161,perceptual,0.1,0.2,target,decoy,0,5.402
3,162,perceptual,0.03,0.05,competitor,target,1,3.214
3,163,perceptual,0.03,0.2,competitor,target,1,4.931
3,164,perceptual,0.1,0.05,competitor,target,1,4.173
3,165,numeric,0.03,0.2,target,target,1,7.023
3,166,numeric,0.1,0.2,competitor,target,1,8.993
3,167,perceptual,0.03,0.05,competitor,target,1,4
3,168,perceptual,0.03,0.2,competitor,target,1,3.009
3,169,numeric,0.03,0.05,target,target,1,5.317
3,170,numeric,0.1,0.05,target,target,1,6.243
3,171,numeric,0.1,0.2,competitor,target,1,5.339
3,172,numeric,0.03,0.2,competitor,target,1,8.736
3,173,perceptual,0.03,0.05,competitor,competitor,0,2.865
3,174,numeric,0.03,0.05,target,target,1,6.713
3,175,numeric,0.1,0.05,competitor,competitor,0,8.658
3,176,perceptual,0.1,0.2,competitor,decoy,0,3.359
3,177,numeric,0.1,0.05,target,decoy,0,7.701
3,178,perceptual,0.03,0.05,competitor,competitor,0,2.238
3,179,numeric,0.1,0.05,target,target,1,9.365
3,180,numeric,0.03,0.05,target,target,1,6.199
3,181,perceptual,0.1,0.2,target,target,1,2.731
3,182,numeric,0.1,0.2,target,target,1,5.206
3,183,numeric,0.1,0.2,target,target,1,8.935
3,184,perceptual,0.03,0.05,competitor,target,1,3.736
3,185,perceptual,0.03,0.2,competitor,target,1,4.534
3,186,numeric,0.03,0.2,target,target,1,4.178
3,187,perceptual,0.03,0.05,target,competitor,0,4.917
3,188,perceptual,0.03,0.05,competitor,decoy,0,5.181
3,189,perceptual,0.1,0.2,target,target,1,4.005
3,190,numeric,0.1,0.2,competitor,target,1,8.136
3,191,numeric,0.03,0.2,competitor,competitor,0,8.123
3,192,numeric,0.03,0.2,competitor,target,1,7.481
4,1,numeric,0.1,0.05,target,competitor,0,8.545
4,2,perceptual,0.1,0.05,competitor,target,1,6.388
4,3,perceptual,0.03,0.05,target,target,1,9.68
4,4,perceptual,0.03,0.2,competitor,competitor,0,7.358
4,5,numeric,0.03,0.05,target,target,1,8.042
4,6,numeric,0.1,0.2,target,target,1,5.797
4,7,numeric,0.03,0.2,competitor,competitor,0,9.622
4,8,perceptual,0.1,0.2,competitor,decoy,0,5.94
4,9,perceptual,0.1,0.2,competitor,target,1,8.737
4,10,numeric,0.1,0.05,target,target,1,9.966
4,11,perceptual,0.03,0.05,competitor,competitor,0,8.727
4,12,numeric,0.1,0.2,target,target,1,10.429
4,13,numeric,0.03,0.2,target,competitor,0,7.993
4,14,perceptual,0.1,0.05,target,competitor,0,5.134
4,15,numeric,0.03,0.2,competitor,competitor,0,8.351
4,16,numeric,0.03,0.2,competitor,competitor,0,13.189
4,17,numeric,0.1,0.05,competitor,target,1,7.711
4,18,numeric,0.03,0.2,competitor,decoy,0,12.012
4,19,perceptual,0.03,0.05,competitor,target,1,6.189
4,20,perceptual,0.1,0.2,target,competitor,0,4.81
4,21,perceptual,0.03,0.05,target,target,1,7.507
4,22,perceptual,0.03,0.05,competitor,competitor,0,7.578
4,23,numeric,0.1,0.05,target,target,1,10.039
4,24,numeric,0.1,0.05,competitor,competitor,0,8.644
4,25,perceptual,0.1,0.05,competitor,competitor,0,6.646
4,26,perceptual,0.03,0.05,target,target,1,8.539
4,27,numeric,0.1,0.2,competitor,target,1,6.466
4,28,perceptual,0.03,0.05,target,target,1,9.036
4,29,perceptual,0.1,0.2,competitor,decoy,0,5.455
4,30,numeric,0.1,0.2,target,competitor,0,12.371
4,31,numeric,0.1,0.05,target,decoy,0,8.279
4,32,perceptual,0.03,0.2,target,decoy,0,4.427
4,33,numeric,0.1,0.2,competitor,competitor,0,5.889
4,34,numeric,0.03,0.05,competitor,competitor,0,10.661
4,35,perceptual,0.1,0.2,target,target,1,4.204
4,36,perceptual,0.1,0.2,target,decoy,0,6.561
4,37,numeric,0.1,0.2,competitor,target,1,7.021
4,38,perceptual,0.03,0.2,competitor,competitor,0,7.127
4,39,numeric,0.03,0.05,target,target,1,7.195
4,40,numeric,0.1,0.05,target,target,1,8.032
4,41,numeric,0.03,0.2,target,target,1,8.435
4,42,numeric,0.03,0.05,target,target,1,15.076
4,43,numeric,0.03,0.2,target,target,1,8.363
4,44,numeric,0.03,0.2,target,target,1,7.094
4,45,numeric,0.03,0.05,target,competitor,0,5.043
4,46,numeric,0.1,0.2,competitor,target,1,11.115
4,47,perceptual,0.1,0.05,competitor,target,1,5.818
4,48,perceptual,0.1,0.2,target,target,1,6.738
4,49,perceptual,0.03,0.05,target,decoy,0,5.238
4,50,perceptual,0.1,0.05,target,decoy,0,5.778
4,51,perceptual,0.1,0.05,competitor,decoy,0,4.845
4,52,numeric,0.1,0.2,target,competitor,0,6.26
4,53,numeric,0.03,0.2,target,target,1,9.966
4,54,numeric,0.03,0.05,competitor,target,1,8.093
4,55,perceptual,0.1,0.05,target,decoy,0,4.855
4,56,perceptual,0.03,0.2,competitor,decoy,0,5.309
4,57,numeric,0.03,0.05,competitor,target,1,11.291
4,58,numeric,0.1,0.05,target,target,1,8.196
4,59,numeric,0.03,0.2,target,competitor,0,6.449
4,60,numeric,0.03,0.2,target,target,1,14.003
4,61,perceptual,0.03,0.05,target,target,1,5.904
4,62,perceptual,0.03,0.2,competitor,target,1,4.324
4,63,perceptual,0.03,0.05,competitor,target,1,3.584
4,64,numeric,0.1,0.2,competitor,target,1,12.457
4,65,perceptual,0.03,0.05,competitor,competitor,0,6.22
4,66,perceptual,0.1,0.2,competitor,competitor,0,6.841
4,67,perceptual,0.1,0.05,target,decoy,0,5.212
4,68,numeric,0.03,0.2,competitor,competitor,0,5.849
4,69,numeric,0.03,0.2,target,target,1,4.256
4,70,numeric,0.03,0.05,competitor,target,1,12.032
4,71,perceptual,0.03,0.2,target,target,1,6.626
4,72,perceptual,0.1,0.2,target,target,1,9.792
4,73,numeric,0.03,0.05,competitor,competitor,0,6.589
4,74,perceptual,0.03,0.05,competitor,decoy,0,4.383
4,75,perceptual,0.1,0.2,competitor,target,1,3.506
4,76,numeric,0.03,0.2,competitor,target,1,6.893
4,77,numeric,0.03,0.2,target,target,1,9.093
4,78,numeric,0.03,0.2,competitor,target,1,6.134
4,79,numeric,0.1,0.05,competitor,target,1,10.987
4,80,perceptual,0.1,0.05,target,decoy,0,6.938
4,81,numeric,0.1,0.05,competitor,target,1,5.719
4,82,numeric,0.03,0.05,target,competitor,0,5.665
4,83,perceptual,0.1,0.2,target,target,1,8.937
4,84,perceptual,0.03,0.2,target,target,1,4.296
4,85,numeric,0.1,0.2,target,target,1,6.297
4,86,numeric,0.1,0.05,competitor,target,1,10.109
4,87,perceptual,0.1,0.05,competitor,target,1,7.179
4,88,perceptual,0.03,0.2,competitor,target,1,5.291
4,89,perceptual,0.1,0.05,competitor,target,1,9.689
4,90,perceptual,0.1,0.05,competitor,target,1,7.925
4,91,perceptual,0.03,0.05,competitor,target,1,11.615
4,92,numeric,0.03,0.05,target,competitor,0,7.454
4,93,perceptual,0.03,0.2,competitor,target,1,13.968
4,94,perceptual,0.1,0.2,competitor,target,1,4.173
4,95,perceptual,0.03,0.2,competitor,competitor,0,6.455
4,96,numeric,0.03,0.2,target,competitor,0,5.194
4,97,numeric,0.1,0.2,competitor,competitor,0,8.586
4,98,numeric,0.1,0.05,target,competitor,0,9.904
4,99,perceptual,0.03,0.05,target,target,1,5.567
4,100,perceptual,0.1,0.05,target,target,1,5.28
4,101,perceptual,0.03,0.2,target,competitor,0,6.553
4,102,numeric,0.03,0.05,competitor,competitor,0,9.32
4,103,numeric,0.03,0.2,competitor,competitor,0,5.98
4,104,perceptual,0.03,0.05,target,target,1,4.04
4,105,numeric,0.1,0.2,target,target,1,13.142
4,106,numeric,0.03,0.2,competitor,competitor,0,8.697
4,107,numeric,0.1,0.05,competitor,target,1,5.565
4,108,numeric,0.1,0.2,competitor,competitor,0,11.707
4,109,perceptual,0.1,0.2,competitor,target,1,6.052
4,110,numeric,0.03,0.05,target,target,1,6.733
4,111,numeric,0.03,0.05,target,target,1,11.063
4,112,perceptual,0.1,0.05,competitor,target,1,8.293
4,113,perceptual,0.03,0.05,target,competitor,0,6.351
4,114,perceptual,0.1,0.05,target,target,1,8.939
4,115,numeric,0.1,0.05,competitor,decoy,0,9.826
4,116,perceptual,0.03,0.05,competitor,decoy,0,4.482
4,117,numeric,0.1,0.05,competitor,target,1,7.735
4,118,perceptual,0.1,0.2,competitor,target,1,8.185
4,119,perceptual,0.1,0.05,target,target,1,9.142
4,120,numeric,0.1,0.05,target,target,1,5.06
4,121,numeric,0.1,0.2,target,competitor,0,15.421
4,122,perceptual,0.1,0.2,target,target,1,3.946
4,123,perceptual,0.03,0.2,target,competitor,0,7.281
4,124,perceptual,0.03,0.2,target,target,1,7.092
4,125,perceptual,0.03,0.05,competitor,competitor,0,4.565
4,126,perceptual,0.1,0.05,competitor,target,1,3.459
4,127,numeric,0.1,0.05,competitor,target,1,6.141
4,128,numeric,0.03,0.2,competitor,competitor,0,10.506
4,129,numeric,0.03,0.2,target,competitor,0,10.961
4,130,numeric,0.03,0.05,competitor,target,1,5.536
4,131,numeric,0.03,0.05,target,target,1,8.906
4,132,numeric,0.1,0.05,competitor,target,1,9.509
4,133,numeric,0.03,0.2,competitor,target,1,7.351
4,134,numeric,0.03,0.05,competitor,competitor,0,5.124
4,135,perceptual,0.1,0.05,target,target,1,5.383
4,136,perceptual,0.03,0.05,target,target,1,5.926
4,137,perceptual,0.03,0.05,target,target,1,4.71
4,138,numeric,0.1,0.05,target,target,1,5.687
4,139,perceptual,0.03,0.2,target,target,1,8.115
4,140,numeric,0.1,0.2,competitor,competitor,0,6.423
4,141,numeric,0.1,0.05,target,target,1,10.57
4,142,perceptual,0.03,0.05,competitor,target,1,6.299
4,143,numeric,0.1,0.2,competitor,competitor,0,6.668
4,144,perceptual,0.1,0.2,target,target,1,4.118
4,145,perceptual,0.1,0.05,competitor,target,1,4.237
4,146,numeric,0.03,0.2,competitor,target,1,4.383
4,147,perceptual,0.03,0.2,target,competitor,0,4.962
4,148,numeric,0.1,0.2,target,target,1,5.475
4,149,perceptual,0.1,0.2,competitor,target,1,2.934
4,150,perceptual,0.03,0.2,competitor,target,1,4.142
4,151,numeric,0.1,0.2,target,competitor,0,4.348
4,152,numeric,0.1,0.2,competitor,target,1,7.77
4,153,perceptual,0.03,0.2,competitor,target,1,2.916
4,154,perceptual,0.03,0.2,target,competitor,0,5.08
4,155,numeric,0.03,0.05,target,competitor,0,4.205
4,156,numeric,0.1,0.2,competitor,target,1,8.134
4,157,perceptual,0.1,0.2,target,target,1,5.267
4,158,numeric,0.1,0.2,target,target,1,7.141
4,159,numeric,0.03,0.05,target,competitor,0,5.675
4,160,perceptual,0.03,0.05,competitor,competitor,0,4.816
4,161,perceptual,0.1,0.05,target,target,1,5.991
4,162,numeric,0.03,0.05,competitor,competitor,0,6.389
4,163,perceptual,0.1,0.05,target,decoy,0,6.74
4,164,numeric,0.1,0.2,competitor,target,1,7.17
4,165,numeric,0.1,0.2,target,target,1,6.604
4,166,perceptual,0.1,0.05,competitor,target,1,5.314
4,167,perceptual,0.1,0.2,target,competitor,0,4.487
4,168,perceptual,0.03,0.2,target,competitor,0,15.022
4,169,perceptual,0.03,0.2,competitor,competitor,0,4.163
4,170,perceptual,0.03,0.2,competitor,competitor,0,2.703
4,171,numeric,0.1,0.2,target,competitor,0,5.254
4,172,perceptual,0.1,0.2,competitor,target,1,6.841
4,173,numeric,0.03,0.05,target,competitor,0,6.438
4,174,numeric,0.03,0.05,competitor,target,1,5.036
4,175,numeric,0.1,0.05,competitor,competitor,0,7.773
4,176,numeric,0.03,0.05,competitor,target,1,4.815
4,177,perceptual,0.1,0.2,target,competitor,0,4.762
4,178,perceptual,0.03,0.05,competitor,target,1,3.251
4,179,numeric,0.03,0.05,competitor,target,1,7.313
4,180,numeric,0.1,0.05,competitor,competitor,0,6.427
4,181,numeric,0.1,0.05,target,competitor,0,6.345
4,182,perceptual,0.03,0.2,competitor,target,1,5.484
4,183,perceptual,0.03,0.2,target,target,1,3.822
4,184,perceptual,0.1,0.05,competitor,target,1,4.82
4,185,perceptual,0.1,0.05,target,competitor,0,4.437
4,186,perceptual,0.03,0.2,target,decoy,0,5.66
4,187,perceptual,0.1,0.2,competitor,target,1,3.284
4,188,perceptual,0.03,0.05,target,competitor,0,4.613
4,189,perceptual,0.1,0.2,competitor,target,1,3.017
4,190,numeric,0.03,0.2,target,competitor,0,5.079
4,191,numeric,0.1,0.05,target,target,1,5.928
4,192,perceptual,0.1,0.2,target,competitor,0,3.828
5,1,perceptual,0.03,0.05,target,decoy,0,5.349
5,2,numeric,0.1,0.2,target,target,1,5.342
5,3,numeric,0.03,0.05,target,target,1,8.585
5,4,numeric,0.1,0.05,competitor,target,1,6.642
5,5,numeric,0.03,0.2,competitor,competitor,0,7.642
5,6,numeric,0.03,0.2,target,target,1,6.527
5,7,numeric,0.03,0.05,target,target,1,9.795
5,8,numeric,0.03,0.2,target,target,1,5.972
5,9,perceptual,0.1,0.2,competitor,target,1,3.214
5,10,numeric,0.1,0.05,target,decoy,0,5.609
5,11,numeric,0.1,0.05,target,target,1,5.1
5,12,perceptual,0.03,0.2,competitor,target,1,7.41
5,13,perceptual,0.1,0.2,target,competitor,0,3.853
5,14,numeric,0.03,0.05,competitor,competitor,0,6.314
5,15,numeric,0.03,0.05,competitor,competitor,0,8.062
5,16,perceptual,0.1,0.05,competitor,competitor,0,4.633
5,17,numeric,0.03,0.2,competitor,target,1,4.668
5,18,perceptual,0.1,0.2,competitor,target,1,3.534
5,19,numeric,0.1,0.05,target,target,1,4.636
5,20,numeric,0.03,0.2,competitor,target,1,7.596
5,21,perceptual,0.1,0.05,competitor,decoy,0,3.889
5,22,numeric,0.1,0.2,competitor,target,1,5.69
5,23,perceptual,0.1,0.05,target,target,1,5.117
5,24,perceptual,0.03,0.05,competitor,target,1,3.425
5,25,perceptual,0.1,0.2,target,decoy,0,5.278
5,26,perceptual,0.03,0.05,competitor,decoy,0,6.642
5,27,numeric,0.1,0.2,competitor,target,1,3.903
5,28,perceptual,0.03,0.2,competitor,target,1,3.878
5,29,numeric,0.03,0.05,competitor,competitor,0,5.938
5,30,numeric,0.1,0.05,target,target,1,6.475
5,31,perceptual,0.03,0.05,competitor,target,1,2.569
5,32,numeric,0.03,0.05,competitor,target,1,6.352
5,33,numeric,0.1,0.2,competitor,target,1,6.495
5,34,numeric,0.1,0.2,competitor,competitor,0,5.609
5,35,perceptual,0.03,0.2,target,decoy,0,3.091
5,36,numeric,0.1,0.05,competitor,target,1,4.101
5,37,perceptual,0.1,0.2,competitor,competitor,0,3.159
5,38,numeric,0.1,0.2,competitor,target,1,7.758
5,39,perceptual,0.1,0.2,target,target,1,3.417
5,40,perceptual,0.03,0.05,target,target,1,5.806
5,41,numeric,0.1,0.05,target,target,1,6.206
5,42,numeric,0.1,0.2,target,target,1,4.792
5,43,perceptual,0.03,0.2,competitor,target,1,4.651
5,44,perceptual,0.03,0.05,target,competitor,0,5.392
5,45,perceptual,0.03,0.05,target,competitor,0,3.527
5,46,perceptual,0.1,0.05,competitor,decoy,0,3.881
5,47,perceptual,0.1,0.05,target,competitor,0,2.612
5,48,perceptual,0.1,0.2,target,decoy,0,3.181
5,49,numeric,0.03,0.05,competitor,target,1,5.304
5,50,perceptual,0.03,0.2,competitor,competitor,0,3.247
5,51,numeric,0.03,0.2,target,target,1,4.292
5,52,perceptual,0.1,0.2,competitor,competitor,0,2.787
5,53,perceptual,0.1,0.05,target,decoy,0,2.883
5,54,perceptual,0.03,0.05,target,decoy,0,2.861
5,55,numeric,0.03,0.2,competitor,target,1,4.841
5,56,numeric,0.03,0.05,competitor,competitor,0,8.176
5,57,numeric,0.03,0.05,competitor,target,1,6.139
5,58,perceptual,0.1,0.05,target,decoy,0,3.68
5,59,numeric,0.03,0.2,target,target,1,6.779
5,60,numeric,0.1,0.2,target,target,1,7.08
5,61,perceptual,0.03,0.05,target,target,1,3.513
5,62,perceptual,0.1,0.2,target,competitor,0,3.155
5,63,perceptual,0.03,0.2,target,competitor,0,3.302
5,64,perceptual,0.1,0.05,target,target,1,3.242
5,65,numeric,0.03,0.05,target,target,1,6.584
5,66,numeric,0.03,0.05,competitor,competitor,0,9.858
5,67,perceptual,0.03,0.05,competitor,competitor,0,2.926
5,68,perceptual,0.03,0.2,competitor,target,1,3.783
5,69,perceptual,0.03,0.2,competitor,decoy,0,3.225
5,70,numeric,0.1,0.2,competitor,target,1,4.136
5,71,numeric,0.1,0.2,target,target,1,3.974
5,72,numeric,0.03,0.05,target,target,1,8.881
5,73,perceptual,0.03,0.05,target,decoy,0,3.362
5,74,numeric,0.03,0.2,competitor,competitor,0,6.012
5,75,perceptual,0.03,0.2,target,competitor,0,2.621
5,76,perceptual,0.03,0.2,target,target,1,5.685
5,77,perceptual,0.03,0.05,competitor,decoy,0,4.561
5,78,perceptual,0.1,0.05,target,decoy,0,4.906
5,79,numeric,0.1,0.05,competitor,target,1,4.713
5,80,numeric,0.1,0.2,target,target,1,6.522
5,81,numeric,0.1,0.2,target,decoy,0,4.28
5,82,numeric,0.1,0.05,competitor,competitor,0,3.812
5,83,numeric,0.03,0.2,competitor,target,1,6.774
5,84,perceptual,0.1,0.2,target,decoy,0,2.316
5,85,perceptual,0.03,0.2,target,competitor,0,3.884
5,86,perceptual,0.03,0.05,target,competitor,0,2.962
5,87,perceptual,0.1,0.2,target,decoy,0,3.51
5,88,numeric,0.1,0.05,target,target,1,5.28
5,89,numeric,0.03,0.2,competitor,target,1,7.827
5,90,numeric,0.03,0.05,competitor,competitor,0,7.081
5,91,numeric,0.1,0.2,target,target,1,5.187
5,92,perceptual,0.1,0.05,competitor,target,1,3.758
5,93,numeric,0.1,0.05,competitor,target,1,4.622
5,94,perceptual,0.1,0.05,competitor,decoy,0,6.934
5,95,numeric,0.1,0.05,target,target,1,5.885
5,96,numeric,0.1,0.05,competitor,target,1,6.594
5,97,numeric,0.03,0.2,target,competitor,0,3.599
5,98,numeric,0.03,0.2,target,target,1,8.501
5,99,numeric,0.03,0.2,target,competitor,0,5.408
5,100,numeric,0.03,0.05,target,target,1,4.778
5,101,numeric,0.1,0.2,target,target,1,4.003
5,102,perceptual,0.03,0.05,target,competitor,0,3.437
5,103,perceptual,0.03,0.2,competitor,target,1,2.239
5,104,numeric,0.1,0.05,target,competitor,0,3.05
5,105,numeric,0.1,0.05,target,competitor,0,2.901
5,106,perceptual,0.03,0.2,competitor,target,1,2.095
5,107,numeric,0.03,0.2,target,target,1,4.843
5,108,perceptual,0.03,0.2,target,target,1,2.965
5,109,perceptual,0.1,0.2,competitor,competitor,0,6.379
5,110,perceptual,0.1,0.05,competitor,competitor,0,4.112
5,111,numeric,0.03,0.05,target,target,1,7.127
5,112,perceptual,0.1,0.2,target,decoy,0,2.548
5,113,perceptual,0.1,0.2,competitor,target,1,2.5
5,114,numeric,0.03,0.05,target,competitor,0,2.404
5,115,perceptual,0.1,0.2,target,decoy,0,2.407
5,116,perceptual,0.1,0.05,competitor,decoy,0,2.372
5,117,perceptual,0.03,0.2,competitor,competitor,0,4.965
5,118,perceptual,0.1,0.2,competitor,decoy,0,3.347
5,119,perceptual,0.1,0.2,competitor,competitor,0,6.875
5,120,numeric,0.03,0.2,competitor,competitor,0,3.201
5,121,numeric,0.1,0.05,competitor,target,1,2.896
5,122,numeric,0.1,0.05,target,target,1,4.878
5,123,perceptual,0.1,0.2,competitor,decoy,0,4.282
5,124,perceptual,0.1,0.2,target,target,1,3.185
5,125,numeric,0.1,0.2,competitor,competitor,0,4.046
5,126,numeric,0.03,0.05,target,target,1,5.85
5,127,perceptual,0.03,0.05,target,decoy,0,2.381
5,128,perceptual,0.1,0.05,competitor,decoy,0,2.612
5,129,numeric,0.03,0.2,competitor,competitor,0,6.161
5,130,perceptual,0.1,0.05,target,target,1,4.266
5,131,numeric,0.1,0.2,competitor,target,1,5.336
5,132,numeric,0.1,0.2,target,target,1,6.977
5,133,numeric,0.1,0.2,target,target,1,8.737
5,134,perceptual,0.1,0.2,competitor,decoy,0,2.636
5,135,perceptual,0.03,0.2,target,target,1,3.146
5,136,numeric,0.03,0.2,competitor,competitor,0,8.17
5,137,numeric,0.03,0.2,target,target,1,5.121
5,138,perceptual,0.1,0.2,competitor,target,1,2.807
5,139,numeric,0.03,0.05,competitor,competitor,0,4.447
5,140,numeric,0.1,0.2,competitor,target,1,5.379
5,141,perceptual,0.1,0.05,target,competitor,0,2.49
5,142,perceptual,0.1,0.05,target,competitor,0,2.896
5,143,perceptual,0.03,0.05,target,decoy,0,4.846
5,144,numeric,0.1,0.2,target,target,1,3.997
5,145,numeric,0.03,0.2,competitor,target,1,5.298
5,146,numeric,0.1,0.05,competitor,target,1,3.965
5,147,numeric,0.1,0.05,competitor,target,1,4.282
5,148,numeric,0.03,0.05,target,target,1,5.228
5,149,perceptual,0.03,0.05,competitor,target,1,4.652
5,150,numeric,0.03,0.2,competitor,competitor,0,6.315
5,151,perceptual,0.1,0.05,competitor,decoy,0,3.469
5,152,perceptual,0.03,0.05,competitor,target,1,4.402
5,153,numeric,0.03,0.05,target,target,1,4.774
5,154,numeric,0.03,0.05,target,target,1,5.805
5,155,numeric,0.03,0.05,target,target,1,5.451
5,156,perceptual,0.03,0.2,competitor,target,1,3.298
5,157,perceptual,0.03,0.2,competitor,competitor,0,2.294
5,158,perceptual,0.03,0.05,competitor,target,1,3.37
5,159,numeric,0.03,0.05,competitor,competitor,0,5.919
5,160,numeric,0.1,0.05,target,target,1,4.931
5,161,perceptual,0.03,0.2,target,competitor,0,5.935
5,162,perceptual,0.03,0.2,target,target,1,2.511
5,163,numeric,0.1,0.05,competitor,target,1,5.116
5,164,numeric,0.1,0.2,competitor,target,1,3.643
5,165,perceptual,0.03,0.2,target,competitor,0,2.504
5,166,perceptual,0.03,0.05,competitor,competitor,0,3.843
5,167,perceptual,0.1,0.05,competitor,competitor,0,3.268
5,168,numeric,0.1,0.05,target,target,1,6.648
5,169,perceptual,0.1,0.05,target,target,1,5.898
5,170,perceptual,0.1,0.05,competitor,target,1,2.888
5,171,numeric,0.1,0.2,target,competitor,0,4.912
5,172,perceptual,0.03,0.05,competitor,target,1,2.744
5,173,perceptual,0.03,0.2,target,competitor,0,2.277
5,174,numeric,0.1,0.05,competitor,target,1,3.951
5,175,perceptual,0.1,0.05,target,decoy,0,3.474
5,176,perceptual,0.03,0.05,competitor,decoy,0,4.159
5,177,numeric,0.1,0.05,competitor,target,1,5.197
5,178,numeric,0.03,0.2,target,competitor,0,5.036
5,179,numeric,0.03,0.2,target,target,1,6.981
5,180,perceptual,0.1,0.05,target,competitor,0,3.426
5,181,perceptual,0.03,0.05,competitor,target,1,3.299
5,182,perceptual,0.03,0.2,competitor,decoy,0,3.478
5,183,perceptual,0.03,0.05,target,target,1,2.779
5,184,perceptual,0.1,0.05,competitor,competitor,0,3.38
5,185,perceptual,0.1,0.2,target,target,1,2.442
5,186,numeric,0.03,0.05,competitor,competitor,0,4.407
5,187,numeric,0.1,0.2,competitor,competitor,0,3.885
5,188,numeric,0.03,0.2,target,target,1,3.498
5,189,perceptual,0.1,0.2,target,target,1,2.703
5,190,perceptual,0.1,0.2,competitor,target,1,2.085
5,191,perceptual,0.03,0.2,target,target,1,3.042
5,192,numeric,0.1,0.2,competitor,competitor,0,4.908
6,1,numeric,0.1,0.2,target,target,1,12.972
6,2,perceptual,0.1,0.2,competitor,target,1,9.02
6,3,perceptual,0.03,0.05,competitor,competitor,0,11.342
6,4,numeric,0.03,0.2,target,decoy,0,5.784
6,5,perceptual,0.03,0.2,target,competitor,0,6.063
6,6,numeric,0.03,0.2,target,target,1,8.57
6,7,perceptual,0.1,0.2,target,decoy,0,8.241
6,8,numeric,0.1,0.05,competitor,target,1,6.874
6,9,numeric,0.1,0.05,competitor,target,1,6.643
6,10,numeric,0.1,0.2,competitor,target,1,8.823
6,11,numeric,0.1,0.05,competitor,target,1,8.499
6,12,numeric,0.1,0.05,competitor,competitor,0,5.389
6,13,perceptual,0.03,0.2,competitor,decoy,0,6.946
6,14,perceptual,0.03,0.2,target,competitor,0,6.946
6,15,perceptual,0.1,0.05,target,competitor,0,7.801
6,16,numeric,0.1,0.05,target,target,1,9.862
6,17,numeric,0.03,0.2,competitor,target,1,5.74
6,18,numeric,0.03,0.05,competitor,competitor,0,6.432
6,19,perceptual,0.1,0.2,target,target,1,4.951
6,20,perceptual,0.03,0.05,target,decoy,0,5.791
6,21,perceptual,0.1,0.2,competitor,target,1,7.511
6,22,numeric,0.1,0.2,target,target,1,7.207
6,23,numeric,0.03,0.2,competitor,target,1,9.28
6,24,perceptual,0.03,0.05,target,decoy,0,4.743
6,25,perceptual,0.03,0.05,competitor,target,1,9.284
6,26,perceptual,0.03,0.2,competitor,competitor,0,5.393
6,27,numeric,0.1,0.2,competitor,target,1,5.113
6,28,numeric,0.03,0.05,competitor,competitor,0,10.042
6,29,numeric,0.1,0.2,competitor,target,1,9.741
6,30,perceptual,0.1,0.2,target,competitor,0,4.129
6,31,perceptual,0.1,0.05,target,decoy,0,3.135
6,32,numeric,0.1,0.2,target,target,1,7.324
6,33,numeric,0.03,0.05,competitor,target,1,7.269
6,34,perceptual,0.1,0.2,target,competitor,0,4.464
6,35,numeric,0.1,0.05,competitor,target,1,5.984
6,36,numeric,0.1,0.2,competitor,target,1,10.589
6,37,perceptual,0.03,0.2,target,competitor,0,3.512
6,38,perceptual,0.03,0.2,competitor,competitor,0,7.574
6,39,perceptual,0.1,0.2,competitor,target,1,5.253
6,40,numeric,0.1,0.05,target,target,1,6.188
6,41,perceptual,0.03,0.2,target,competitor,0,4.694
6,42,perceptual,0.1,0.05,competitor,decoy,0,6.064
6,43,perceptual,0.03,0.05,competitor,competitor,0,4.91
6,44,numeric,0.03,0.2,competitor,competitor,0,8.561
6,45,perceptual,0.1,0.05,target,competitor,0,7.384
6,46,perceptual,0.1,0.2,competitor,decoy,0,6.737
6,47,numeric,0.1,0.05,target,decoy,0,5.568
6,48,perceptual,0.03,0.2,competitor,competitor,0,4.981
6,49,perceptual,0.1,0.2,competitor,target,1,6.341
6,50,numeric,0.03,0.05,competitor,target,1,8.237
6,51,numeric,0.1,0.2,competitor,competitor,0,13.019
6,52,numeric,0.1,0.2,competitor,target,1,10.151
6,53,perceptual,0.03,0.05,target,decoy,0,6.508
6,54,numeric,0.1,0.05,target,target,1,7.345
6,55,numeric,0.03,0.05,target,target,1,9.165
6,56,perceptual,0.03,0.2,target,target,1,7.807
6,57,numeric,0.1,0.05,target,competitor,0,12.134
6,58,perceptual,0.03,0.05,competitor,competitor,0,3.888
6,59,numeric,0.03,0.05,target,competitor,0,8.516
6,60,numeric,0.03,0.05,target,competitor,0,5.272
6,61,numeric,0.1,0.2,target,target,1,6.611
6,62,numeric,0.1,0.2,competitor,target,1,12.814
6,63,numeric,0.03,0.2,competitor,target,1,9.199
6,64,numeric,0.03,0.05,target,target,1,9.906
6,65,numeric,0.03,0.2,competitor,competitor,0,6.368
6,66,perceptual,0.1,0.05,competitor,decoy,0,7.318
6,67,perceptual,0.1,0.05,competitor,target,1,3.864
6,68,numeric,0.03,0.2,target,competitor,0,5.815
6,69,numeric,0.1,0.2,target,target,1,6.044
6,70,perceptual,0.1,0.2,competitor,competitor,0,5.72
6,71,perceptual,0.03,0.2,target,competitor,0,3.928
6,72,numeric,0.03,0.05,competitor,target,1,11.328
6,73,numeric,0.1,0.2,target,target,1,8.429
6,74,perceptual,0.1,0.05,target,decoy,0,4.037
6,75,perceptual,0.03,0.05,competitor,target,1,4.753
6,76,perceptual,0.03,0.05,competitor,competitor,0,5.848
6,77,numeric,0.1,0.05,target,target,1,10.041
6,78,numeric,0.1,0.2,target,decoy,0,9.755
6,79,perceptual,0.03,0.2,target,competitor,0,5.495
6,80,perceptual,0.03,0.05,target,competitor,0,7.052
6,81,perceptual,0.1,0.2,target,competitor,0,3.714
6,82,perceptual,0.1,0.05,target,competitor,0,3.374
6,83,perceptual,0.1,0.2,target,target,1,2.606
6,84,perceptual,0.03,0.2,competitor,competitor,0,3.758
6,85,perceptual,0.03,0.05,competitor,target,1,6.79
6,86,numeric,0.03,0.2,competitor,competitor,0,6.341
6,87,perceptual,0.03,0.2,target,target,1,6.971
6,88,perceptual,0.1,0.05,competitor,target,1,5.49
6,89,numeric,0.1,0.2,competitor,target,1,11.29
6,90,numeric,0.03,0.2,target,target,1,8.481
6,91,perceptual,0.1,0.2,competitor,decoy,0,8.534
6,92,perceptual,0.1,0.2,target,decoy,0,6.878
6,93,perceptual,0.03,0.2,competitor,competitor,0,6.112
6,94,numeric,0.03,0.2,competitor,competitor,0,8.409
6,95,perceptual,0.1,0.2,target,target,1,5.135
6,96,numeric,0.03,0.2,target,competitor,0,9.778
6,97,perceptual,0.03,0.2,target,competitor,0,5.228
6,98,numeric,0.1,0.2,target,target,1,5.93
6,99,numeric,0.1,0.2,competitor,target,1,7.537
6,100,numeric,0.03,0.05,target,competitor,0,6.667
6,101,perceptual,0.1,0.2,competitor,competitor,0,3.863
6,102,numeric,0.1,0.2,target,target,1,6.095
6,103,perceptual,0.1,0.05,competitor,competitor,0,2.848
6,104,numeric,0.03,0.2,competitor,target,1,8.937
6,105,perceptual,0.1,0.2,competitor,target,1,4.539
6,106,perceptual,0.03,0.05,competitor,target,1,3.857
6,107,perceptual,0.1,0.05,competitor,target,1,2.964
6,108,numeric,0.03,0.2,target,target,1,7.01
6,109,perceptual,0.1,0.05,competitor,decoy,0,4.352
6,110,numeric,0.03,0.2,target,target,1,7.544
6,111,perceptual,0.1,0.05,competitor,target,1,5.678
6,112,perceptual,0.03,0.2,target,competitor,0,4.828
6,113,numeric,0.1,0.05,target,target,1,6.75
6,114,numeric,0.03,0.2,target,target,1,12.38
6,115,numeric,0.03,0.2,target,competitor,0,7.869
6,116,numeric,0.1,0.2,target,target,1,10.47
6,117,perceptual,0.03,0.05,competitor,target,1,3.774
6,118,numeric,0.03,0.05,target,target,1,10.257
6,119,numeric,0.03,0.05,target,target,1,9.415
6,120,perceptual,0.1,0.05,competitor,target,1,3.372
6,121,perceptual,0.03,0.2,competitor,decoy,0,4.279
6,122,numeric,0.1,0.05,competitor,target,1,6.43
6,123,perceptual,0.03,0.2,competitor,competitor,0,3.862
6,124,perceptual,0.1,0.2,target,target,1,6.902
6,125,numeric,0.03,0.2,competitor,target,1,9.089
6,126,numeric,0.03,0.2,target,target,1,13.164
6,127,perceptual,0.1,0.05,competitor,competitor,0,3.94
6,128,perceptual,0.03,0.2,competitor,decoy,0,4.352
6,129,perceptual,0.03,0.05,target,decoy,0,6.269
6,130,perceptual,0.03,0.2,target,competitor,0,5.291
6,131,numeric,0.03,0.05,competitor,competitor,0,7.804
6,132,numeric,0.03,0.05,competitor,target,1,7.492
6,133,numeric,0.03,0.05,competitor,competitor,0,9.538
6,134,perceptual,0.03,0.05,target,competitor,0,6.484
6,135,numeric,0.03,0.05,target,target,1,6.346
6,136,perceptual,0.1,0.05,competitor,target,1,3.921
6,137,numeric,0.1,0.05,target,competitor,0,6.248
6,138,perceptual,0.1,0.05,target,target,1,3.214
6,139,perceptual,0.03,0.05,competitor,decoy,0,6.15
6,140,perceptual,0.03,0.2,competitor,target,1,3.64
6,141,numeric,0.03,0.05,target,target,1,9.521
6,142,perceptual,0.1,0.2,target,competitor,0,3.54
6,143,perceptual,0.1,0.2,competitor,target,1,4.602
6,144,numeric,0.1,0.05,competitor,target,1,6.973
6,145,numeric,0.1,0.05,competitor,target,1,5.469
6,146,perceptual,0.03,0.05,competitor,target,1,2.866
6,147,numeric,0.1,0.2,target,target,1,5.746
6,148,perceptual,0.1,0.05,target,decoy,0,2.871
6,149,perceptual,0.03,0.2,competitor,decoy,0,5.2
6,150,perceptual,0.03,0.05,target,decoy,0,4.585
6,151,perceptual,0.03,0.2,target,competitor,0,3.207
6,152,numeric,0.1,0.2,competitor,competitor,0,7.695
6,153,numeric,0.03,0.05,competitor,competitor,0,19.371
6,154,numeric,0.1,0.05,target,target,1,9.808
6,155,perceptual,0.03,0.05,target,competitor,0,0.478
6,156,numeric,0.1,0.2,competitor,target,1,10.843
6,157,perceptual,0.03,0.05,target,target,1,3.005
6,158,numeric,0.03,0.05,competitor,target,1,9.135
6,159,numeric,0.1,0.05,target,target,1,12.626
6,160,numeric,0.03,0.2,competitor,target,1,8.642
6,161,numeric,0.03,0.2,competitor,competitor,0,7.053
6,162,perceptual,0.1,0.05,target,target,1,4.407
6,163,perceptual,0.1,0.05,target,competitor,0,6.858
6,164,numeric,0.03,0.2,competitor,competitor,0,8.287
6,165,perceptual,0.03,0.05,competitor,competitor,0,4.208
6,166,perceptual,0.03,0.2,competitor,target,1,5.636
6,167,perceptual,0.03,0.05,target,competitor,0,4.801
6,168,numeric,0.03,0.05,competitor,competitor,0,10.905
6,169,numeric,0.1,0.05,competitor,target,1,11.098
6,170,perceptual,0.1,0.2,competitor,target,1,3.434
6,171,perceptual,0.1,0.05,target,target,1,4.076
6,172,perceptual,0.1,0.2,target,decoy,0,4.764
6,173,numeric,0.03,0.05,competitor,competitor,0,6.946
6,174,numeric,0.03,0.05,target,competitor,0,7.744
6,175,numeric,0.1,0.05,target,competitor,0,11.119
6,176,perceptual,0.1,0.05,target,competitor,0,2.688
6,177,perceptual,0.03,0.05,target,competitor,0,2.904
6,178,numeric,0.1,0.05,competitor,target,1,4.737
6,179,numeric,0.1,0.05,competitor,competitor,0,8.899
6,180,numeric,0.03,0.2,target,target,1,6.483
6,181,perceptual,0.1,0.2,target,decoy,0,4.406
6,182,perceptual,0.1,0.2,competitor,target,1,3.69
6,183,perceptual,0.1,0.05,competitor,competitor,0,8.417
6,184,numeric,0.03,0.05,target,target,1,8.434
6,185,numeric,0.1,0.05,competitor,competitor,0,10.105
6,186,perceptual,0.1,0.05,target,target,1,7.197
6,187,numeric,0.1,0.2,target,competitor,0,13.999
6,188,numeric,0.03,0.2,target,target,1,8.345
6,189,numeric,0.03,0.05,target,target,1,10.336
6,190,numeric,0.1,0.2,competitor,competitor,0,9.489
6,191,numeric,0.1,0.05,target,target,1,10.112
6,192,perceptual,0.03,0.05,target,decoy,0,5.17
7,1,perceptual,0.1,0.2,competitor,decoy,0,7.954
7,2,perceptual,0.1,0.2,target,competitor,0,4.994
7,3,numeric,0.03,0.05,target,competitor,0,7.401
7,4,numeric,0.1,0.05,target,target,1,9.566
7,5,perceptual,0.1,0.2,competitor,target,1,4.765
7,6,numeric,0.1,0.2,target,target,1,7.363
7,7,numeric,0.1,0.05,competitor,competitor,0,7.274
7,8,numeric,0.03,0.2,target,target,1,6.648
7,9,numeric,0.1,0.05,target,target,1,5.229
7,10,perceptual,0.1,0.05,target,target,1,6.505
7,11,numeric,0.03,0.05,target,target,1,6.367
7,12,perceptual,0.03,0.05,target,target,1,5.582
7,13,numeric,0.03,0.05,target,competitor,0,3.923
7,14,perceptual,0.03,0.2,target,competitor,0,3.809
7,15,perceptual,0.03,0.05,target,competitor,0,4.146
7,16,perceptual,0.03,0.2,target,target,1,5.724
7,17,perceptual,0.1,0.05,target,decoy,0,4.367
7,18,numeric,0.1,0.05,competitor,target,1,7.537
7,19,perceptual,0.1,0.05,competitor,competitor,0,4.373
7,20,numeric,0.03,0.2,competitor,competitor,0,5.101
7,21,numeric,0.1,0.05,competitor,target,1,7.312
7,22,numeric,0.1,0.05,competitor,target,1,6.941
7,23,numeric,0.1,0.05,target,target,1,6.501
7,24,numeric,0.1,0.05,target,target,1,5.264
7,25,perceptual,0.1,0.05,competitor,target,1,4.175
7,26,perceptual,0.03,0.05,competitor,target,1,4.168
7,27,perceptual,0.1,0.2,target,target,1,9.849
7,28,perceptual,0.1,0.2,competitor,target,1,3.696
7,29,numeric,0.03,0.05,target,target,1,5.205
7,30,numeric,0.03,0.2,competitor,target,1,3.305
7,31,perceptual,0.03,0.2,competitor,target,1,3.64
7,32,perceptual,0.03,0.2,competitor,target,1,3.135
7,33,perceptual,0.1,0.2,competitor,target,1,2.916
7,34,numeric,0.03,0.05,target,target,1,7.2
7,35,numeric,0.1,0.2,target,competitor,0,5.674
7,36,perceptual,0.1,0.2,target,decoy,0,9.709
7,37,numeric,0.1,0.2,competitor,target,1,5.207
7,38,numeric,0.03,0.05,competitor,target,1,6.213
7,39,numeric,0.03,0.2,competitor,target,1,4.277
7,40,perceptual,0.03,0.05,competitor,competitor,0,4.251
7,41,numeric,0.03,0.05,competitor,target,1,2.863
7,42,perceptual,0.1,0.2,target,target,1,4.767
7,43,numeric,0.03,0.05,competitor,target,1,5.339
7,44,perceptual,0.03,0.2,target,target,1,7.061
7,45,perceptual,0.03,0.05,competitor,competitor,0,3.962
7,46,numeric,0.1,0.2,competitor,competitor,0,12.797
7,47,perceptual,0.1,0.2,target,target,1,3.911
7,48,numeric,0.1,0.2,target,target,1,4.523
7,49,numeric,0.03,0.2,target,competitor,0,5.275
7,50,numeric,0.1,0.2,target,competitor,0,4.853
7,51,numeric,0.03,0.2,competitor,target,1,3.654
7,52,perceptual,0.03,0.2,competitor,target,1,3.176
7,53,perceptual,0.1,0.05,target,decoy,0,6.113
7,54,numeric,0.1,0.2,target,target,1,8.643
7,55,numeric,0.03,0.05,competitor,target,1,3.993
7,56,numeric,0.03,0.05,target,target,1,9.59
7,57,perceptual,0.03,0.2,target,target,1,6.794
7,58,perceptual,0.1,0.2,target,target,1,3.059
7,59,numeric,0.03,0.05,competitor,target,1,4.3
7,60,numeric,0.03,0.05,target,competitor,0,4.58
7,61,numeric,0.03,0.2,competitor,target,1,4.641
7,62,numeric,0.1,0.2,competitor,competitor,0,4.368
7,63,perceptual,0.1,0.05,competitor,competitor,0,4.168
7,64,perceptual,0.03,0.2,competitor,target,1,3.093
7,65,perceptual,0.03,0.05,target,decoy,0,3.461
7,66,numeric,0.1,0.2,competitor,target,1,5.671
7,67,perceptual,0.03,0.05,target,competitor,0,3.027
7,68,numeric,0.03,0.2,competitor,competitor,0,2.376
7,69,numeric,0.1,0.05,target,target,1,7.97
7,70,perceptual,0.03,0.2,target,target,1,3.792
7,71,perceptual,0.03,0.05,competitor,target,1,3.652
7,72,numeric,0.1,0.05,competitor,target,1,3.817
7,73,numeric,0.03,0.05,target,target,1,4.329
7,74,numeric,0.1,0.05,competitor,target,1,4.775
7,75,numeric,0.03,0.2,competitor,target,1,3.416
7,76,numeric,0.1,0.05,competitor,target,1,2.861
7,77,numeric,0.03,0.05,target,target,1,4.365
7,78,numeric,0.03,0.05,competitor,target,1,3.652
7,79,numeric,0.03,0.2,target,competitor,0,4.422
7,80,perceptual,0.03,0.05,competitor,target,1,4.821
7,81,numeric,0.03,0.05,competitor,target,1,4.386
7,82,perceptual,0.03,0.2,competitor,target,1,3.611
7,83,numeric,0.03,0.2,target,target,1,5.501
7,84,numeric,0.03,0.05,competitor,competitor,0,3.938
7,85,numeric,0.03,0.2,target,competitor,0,3.618
7,86,perceptual,0.1,0.05,target,decoy,0,4.712
7,87,numeric,0.1,0.05,target,target,1,3.865
7,88,perceptual,0.1,0.05,target,target,1,4.246
7,89,numeric,0.1,0.2,target,competitor,0,3.388
7,90,perceptual,0.03,0.2,competitor,competitor,0,6.517
7,91,perceptual,0.03,0.05,target,target,1,7.3
7,92,numeric,0.03,0.05,competitor,target,1,6.049
7,93,perceptual,0.1,0.05,target,target,1,4.523
7,94,numeric,0.03,0.2,competitor,competitor,0,4.963
7,95,perceptual,0.1,0.05,competitor,target,1,4.015
7,96,numeric,0.1,0.2,competitor,target,1,4.497
7,97,perceptual,0.03,0.05,target,competitor,0,3.994
7,98,perceptual,0.03,0.2,target,target,1,2.725
7,99,perceptual,0.03,0.2,target,competitor,0,4.251
7,100,perceptual,0.1,0.2,competitor,target,1,4.66
7,101,numeric,0.03,0.2,target,target,1,5.288
7,102,numeric,0.03,0.2,competitor,target,1,5.144
7,103,perceptual,0.1,0.2,target,competitor,0,2.642
7,104,numeric,0.1,0.2,competitor,target,1,10.498
7,105,perceptual,0.03,0.2,competitor,competitor,0,3.714
7,106,perceptual,0.1,0.05,competitor,target,1,4.231
7,107,perceptual,0.03,0.2,target,competitor,0,7.896
7,108,perceptual,0.1,0.05,competitor,target,1,7.297
7,109,numeric,0.1,0.05,competitor,target,1,4.995
7,110,perceptual,0.03,0.05,target,decoy,0,4.241
7,111,perceptual,0.1,0.2,competitor,target,1,3.742
7,112,perceptual,0.03,0.05,target,competitor,0,4.854
7,113,numeric,0.03,0.2,target,target,1,5.026
7,114,perceptual,0.1,0.2,target,target,1,2.889
7,115,perceptual,0.03,0.05,target,decoy,0,4.885
7,116,perceptual,0.03,0.05,competitor,target,1,2.93
7,117,perceptual,0.03,0.05,competitor,target,1,3.116
7,118,numeric,0.1,0.2,target,target,1,5.059
7,119,perceptual,0.1,0.05,competitor,target,1,3.547
7,120,perceptual,0.1,0.2,competitor,target,1,3.396
7,121,perceptual,0.03,0.2,target,target,1,5.044
7,122,numeric,0.1,0.05,competitor,competitor,0,6.01
7,123,perceptual,0.03,0.2,target,target,1,5.971
7,124,perceptual,0.1,0.2,competitor,competitor,0,4.901
7,125,perceptual,0.1,0.05,target,target,1,3.201
7,126,numeric,0.03,0.2,competitor,target,1,7.458
7,127,numeric,0.1,0.05,target,target,1,7.244
7,128,numeric,0.1,0.2,target,target,1,5.572
7,129,perceptual,0.03,0.05,competitor,target,1,10.642
7,130,numeric,0.1,0.05,target,target,1,7.427
7,131,numeric,0.03,0.05,target,target,1,6.777
7,132,numeric,0.03,0.2,target,target,1,5.047
7,133,numeric,0.03,0.05,competitor,competitor,0,5.333
7,134,numeric,0.1,0.2,competitor,target,1,3.623
7,135,perceptual,0.03,0.2,competitor,competitor,0,6.105
7,136,numeric,0.1,0.2,competitor,target,1,6.747
7,137,numeric,0.03,0.2,competitor,target,1,8.831
7,138,numeric,0.1,0.2,target,target,1,12.779
7,139,numeric,0.03,0.05,competitor,competitor,0,7.358
7,140,perceptual,0.1,0.2,target,target,1,2.637
7,141,numeric,0.1,0.05,competitor,target,1,3.899
7,142,perceptual,0.03,0.05,competitor,target,1,3.16
7,143,numeric,0.1,0.2,competitor,competitor,0,5.16
7,144,numeric,0.1,0.2,competitor,target,1,3.669
7,145,numeric,0.1,0.2,target,competitor,0,6.443
7,146,perceptual,0.1,0.05,competitor,target,1,3.351
7,147,numeric,0.1,0.05,target,competitor,0,3.629
7,148,numeric,0.03,0.2,target,target,1,3.305
7,149,perceptual,0.1,0.05,target,decoy,0,6.72
7,150,perceptual,0.03,0.05,target,competitor,0,2.751
7,151,numeric,0.1,0.2,competitor,target,1,3.653
7,152,perceptual,0.1,0.2,competitor,target,1,2.884
7,153,perceptual,0.1,0.05,target,competitor,0,4.524
7,154,perceptual,0.1,0.05,target,target,1,7.761
7,155,numeric,0.03,0.2,competitor,target,1,3.129
7,156,numeric,0.03,0.2,target,competitor,0,4.005
7,157,perceptual,0.03,0.05,target,competitor,0,5.52
7,158,numeric,0.1,0.2,competitor,target,1,4.007
7,159,perceptual,0.1,0.05,competitor,target,1,2.8
7,160,perceptual,0.1,0.2,target,target,1,3.321
7,161,perceptual,0.1,0.2,target,target,1,4.146
7,162,numeric,0.1,0.05,competitor,target,1,2.827
7,163,perceptual,0.1,0.2,target,competitor,0,3.075
7,164,numeric,0.03,0.2,target,competitor,0,3.635
7,165,perceptual,0.03,0.2,competitor,competitor,0,5.347
7,166,numeric,0.1,0.2,target,target,1,3.329
7,167,numeric,0.03,0.2,target,competitor,0,2.722
7,168,perceptual,0.1,0.2,competitor,decoy,0,1.912
7,169,perceptual,0.03,0.05,competitor,target,1,2.759
7,170,perceptual,0.03,0.05,competitor,decoy,0,2.933
7,171,perceptual,0.03,0.2,target,target,1,3.118
7,172,numeric,0.1,0.05,competitor,decoy,0,4.178
7,173,numeric,0.03,0.05,target,decoy,0,3.745
7,174,perceptual,0.1,0.05,competitor,target,1,2.537
7,175,perceptual,0.1,0.05,target,decoy,0,2.468
7,176,perceptual,0.1,0.2,competitor,target,1,2.71
7,177,numeric,0.03,0.05,target,target,1,4.075
7,178,perceptual,0.03,0.05,target,target,1,3.201
7,179,numeric,0.1,0.05,target,target,1,2.997
7,180,perceptual,0.03,0.2,competitor,target,1,3.312
7,181,perceptual,0.1,0.05,competitor,target,1,2.411
7,182,numeric,0.1,0.2,target,target,1,3.379
7,183,numeric,0.03,0.05,competitor,competitor,0,5.346
7,184,numeric,0.1,0.05,target,competitor,0,3.165
7,185,numeric,0.1,0.05,target,competitor,0,3.077
7,186,perceptual,0.03,0.2,competitor,competitor,0,5.681
7,187,perceptual,0.03,0.2,target,competitor,0,4.992
7,188,perceptual,0.1,0.2,competitor,target,1,4.332
7,189,perceptual,0.03,0.05,competitor,decoy,0,3.071
7,190,perceptual,0.03,0.2,competitor,target,1,2.208
7,191,perceptual,0.1,0.05,target,target,1,3.561
7,192,perceptual,0.1,0.05,competitor,competitor,0,5.292
8,1,numeric,0.1,0.05,target,target,1,10.139
8,2,numeric,0.03,0.05,target,target,1,7.916
8,3,numeric,0.03,0.2,target,target,1,7.49
8,4,perceptual,0.03,0.2,target,competitor,0,10.768
8,5,numeric,0.1,0.05,competitor,target,1,8.773
8,6,perceptual,0.03,0.05,competitor,target,1,6.561
8,7,numeric,0.03,0.05,competitor,target,1,11.181
8,8,numeric,0.1,0.05,target,target,1,8.463
8,9,perceptual,0.1,0.05,target,target,1,4.486
8,10,perceptual,0.03,0.2,competitor,target,1,6.113
8,11,perceptual,0.1,0.2,competitor,competitor,0,5.579
8,12,numeric,0.1,0.05,competitor,target,1,10.589
8,13,perceptual,0.1,0.05,competitor,target,1,4.667
8,14,perceptual,0.1,0.2,competitor,target,1,5.746
8,15,numeric,0.03,0.2,target,target,1,6.228
8,16,perceptual,0.03,0.2,competitor,target,1,8.069
8,17,perceptual,0.03,0.2,competitor,target,1,4.368
8,18,numeric,0.1,0.2,target,target,1,8.743
8,19,numeric,0.03,0.05,target,target,1,9.462
8,20,perceptual,0.1,0.2,target,target,1,6.176
8,21,perceptual,0.03,0.05,competitor,target,1,5.73
8,22,numeric,0.1,0.2,target,target,1,8.497
8,23,numeric,0.1,0.2,target,target,1,7.998
8,24,numeric,0.03,0.05,target,target,1,6.769
8,25,numeric,0.1,0.05,target,target,1,6.514
8,26,numeric,0.03,0.2,target,target,1,7.625
8,27,perceptual,0.1,0.2,target,target,1,4.725
8,28,numeric,0.1,0.2,competitor,target,1,7.477
8,29,perceptual,0.1,0.2,target,target,1,5.146
8,30,numeric,0.03,0.05,competitor,target,1,6.731
8,31,perceptual,0.1,0.2,competitor,target,1,5.348
8,32,perceptual,0.1,0.05,competitor,target,1,6.955
8,33,perceptual,0.03,0.05,target,competitor,0,7.519
8,34,perceptual,0.1,0.2,competitor,target,1,4.749
8,35,numeric,0.1,0.2,target,target,1,5.974
8,36,perceptual,0.03,0.05,target,target,1,8.009
8,37,numeric,0.1,0.2,competitor,target,1,8.776
8,38,perceptual,0.03,0.05,competitor,target,1,9.089
8,39,perceptual,0.1,0.2,target,target,1,5.569
8,40,numeric,0.03,0.2,competitor,competitor,0,8.3
8,41,numeric,0.1,0.2,target,target,1,5.868
8,42,numeric,0.1,0.05,target,target,1,6.235
8,43,perceptual,0.03,0.05,target,target,1,8.219
8,44,perceptual,0.1,0.2,competitor,target,1,3.721
8,45,perceptual,0.03,0.2,target,target,1,3.309
8,46,perceptual,0.1,0.05,competitor,target,1,4.226
8,47,perceptual,0.1,0.2,target,target,1,6.622
8,48,perceptual,0.03,0.2,target,target,1,4.777
8,49,numeric,0.1,0.2,competitor,target,1,5.254
8,50,perceptual,0.1,0.05,competitor,target,1,3.345
8,51,perceptual,0.1,0.2,target,target,1,6.351
8,52,numeric,0.03,0.2,competitor,target,1,8.205
8,53,perceptual,0.03,0.05,target,competitor,0,8.623
8,54,numeric,0.03,0.05,target,target,1,6.667
8,55,perceptual,0.1,0.2,competitor,target,1,4.813
8,56,perceptual,0.03,0.2,target,competitor,0,5.25
8,57,numeric,0.1,0.05,target,target,1,7.817
8,58,numeric,0.1,0.2,target,target,1,9.046
8,59,perceptual,0.1,0.2,competitor,target,1,3.978
8,60,numeric,0.03,0.2,competitor,competitor,0,6.614
8,61,numeric,0.03,0.2,target,target,1,8.995
8,62,perceptual,0.03,0.2,competitor,target,1,6.511
8,63,numeric,0.03,0.2,target,target,1,7.79
8,64,perceptual,0.1,0.05,competitor,target,1,3.063
8,65,numeric,0.1,0.05,target,target,1,5.701
8,66,numeric,0.03,0.2,competitor,target,1,7.923
8,67,perceptual,0.1,0.05,competitor,target,1,6.981
8,68,numeric,0.1,0.2,competitor,target,1,7.424
8,69,perceptual,0.03,0.2,competitor,competitor,0,7.335
8,70,numeric,0.03,0.05,competitor,target,1,7.457
8,71,perceptual,0.1,0.2,target,target,1,6.823
8,72,numeric,0.1,0.2,competitor,target,1,7.887
8,73,numeric,0.1,0.05,target,competitor,0,10.804
8,74,perceptual,0.1,0.05,target,decoy,0,8.766
8,75,perceptual,0.1,0.2,target,target,1,5.664
8,76,perceptual,0.03,0.05,competitor,competitor,0,9.325
8,77,perceptual,0.1,0.05,target,target,1,8.284
8,78,numeric,0.03,0.05,competitor,target,1,8.745
8,79,perceptual,0.03,0.05,competitor,target,1,9.205
8,80,numeric,0.03,0.05,target,target,1,7.321
8,81,numeric,0.03,0.2,target,target,1,6.358
8,82,numeric,0.1,0.05,target,competitor,0,8.804
8,83,perceptual,0.1,0.2,target,target,1,4.988
8,84,numeric,0.1,0.2,competitor,competitor,0,6.625
8,85,numeric,0.03,0.05,competitor,target,1,8.835
8,86,perceptual,0.03,0.05,competitor,target,1,7.669
8,87,perceptual,0.1,0.2,target,target,1,5.085
8,88,perceptual,0.03,0.05,target,target,1,6.792
8,89,numeric,0.1,0.05,competitor,target,1,6.264
8,90,numeric,0.03,0.2,target,target,1,4.278
8,91,numeric,0.1,0.05,competitor,competitor,0,8.684
8,92,perceptual,0.03,0.2,target,competitor,0,4.32
8,93,numeric,0.1,0.05,target,target,1,8.212
8,94,perceptual,0.1,0.05,competitor,target,1,6.29
8,95,perceptual,0.03,0.2,target,target,1,4.306
8,96,perceptual,0.1,0.05,target,target,1,7.755
8,97,numeric,0.1,0.2,competitor,target,1,4.998
8,98,perceptual,0.1,0.05,target,target,1,7.103
8,99,numeric,0.03,0.05,competitor,target,1,6.239
8,100,numeric,0.03,0.2,target,target,1,7.047
8,101,numeric,0.03,0.2,competitor,target,1,10.716
8,102,perceptual,0.1,0.05,competitor,target,1,3.916
8,103,numeric,0.1,0.05,target,target,1,11.188
8,104,numeric,0.03,0.2,competitor,target,1,8.045
8,105,numeric,0.03,0.2,target,competitor,0,8.43
8,106,perceptual,0.03,0.05,target,target,1,7.455
8,107,numeric,0.1,0.05,competitor,decoy,0,4.398
8,108,numeric,0.1,0.2,competitor,target,1,6.47
8,109,numeric,0.1,0.05,competitor,target,1,4.609
8,110,numeric,0.03,0.05,competitor,competitor,0,10.357
8,111,numeric,0.1,0.05,competitor,target,1,4.819
8,112,perceptual,0.03,0.05,competitor,competitor,0,3.654
8,113,numeric,0.03,0.2,competitor,competitor,0,4.622
8,114,perceptual,0.1,0.05,target,target,1,6.82
8,115,numeric,0.03,0.05,target,target,1,5.406
8,116,numeric,0.03,0.2,competitor,target,1,6.979
8,117,perceptual,0.1,0.05,target,target,1,3.846
8,118,perceptual,0.1,0.2,target,competitor,0,4.262
8,119,perceptual,0.03,0.05,competitor,target,1,5.759
8,120,perceptual,0.03,0.05,target,target,1,8.628
8,121,perceptual,0.03,0.05,target,target,1,8.43
8,122,perceptual,0.03,0.05,competitor,competitor,0,6.767
8,123,numeric,0.1,0.05,competitor,competitor,0,7.997
8,124,numeric,0.03,0.05,competitor,target,1,9.494
8,125,numeric,0.1,0.2,competitor,target,1,6.571
8,126,perceptual,0.1,0.2,competitor,target,1,4.755
8,127,perceptual,0.1,0.2,competitor,target,1,5.025
8,128,numeric,0.03,0.05,competitor,target,1,9.261
8,129,perceptual,0.03,0.2,target,target,1,5.485
8,130,numeric,0.03,0.05,target,competitor,0,12.835
8,131,perceptual,0.03,0.05,target,target,1,7.946
8,132,perceptual,0.1,0.2,competitor,target,1,7.193
8,133,perceptual,0.03,0.05,target,competitor,0,9.514
8,134,numeric,0.03,0.05,target,target,1,5.12
8,135,perceptual,0.03,0.2,competitor,target,1,6.974
8,136,perceptual,0.03,0.2,competitor,competitor,0,8.733
8,137,numeric,0.03,0.05,competitor,target,1,6.532
8,138,numeric,0.1,0.2,target,target,1,6.939
8,139,numeric,0.03,0.05,competitor,target,1,7.59
8,140,perceptual,0.1,0.2,competitor,target,1,5.093
8,141,numeric,0.03,0.2,competitor,competitor,0,4.494
8,142,perceptual,0.03,0.2,competitor,target,1,6.797
8,143,numeric,0.1,0.05,competitor,target,1,11.104
8,144,perceptual,0.1,0.05,competitor,target,1,7.789
8,145,numeric,0.1,0.05,competitor,competitor,0,7.943
8,146,numeric,0.1,0.05,target,target,1,10.234
8,147,numeric,0.1,0.2,competitor,target,1,8.834
8,148,numeric,0.1,0.05,target,target,1,6.492
8,149,numeric,0.1,0.2,competitor,competitor,0,8.374
8,150,perceptual,0.03,0.2,competitor,target,1,6.79
8,151,numeric,0.03,0.2,target,competitor,0,10.964
8,152,perceptual,0.1,0.05,competitor,target,1,5.323
8,153,numeric,0.03,0.05,target,competitor,0,10.897
8,154,perceptual,0.1,0.2,competitor,target,1,6.093
8,155,numeric,0.03,0.05,target,target,1,10.546
8,156,perceptual,0.03,0.2,target,competitor,0,5.933
8,157,perceptual,0.03,0.2,competitor,target,1,3.618
8,158,perceptual,0.03,0.2,target,target,1,7.526
8,159,numeric,0.1,0.2,target,target,1,5.052
8,160,perceptual,0.03,0.05,competitor,target,1,10.87
8,161,perceptual,0.03,0.05,target,decoy,0,4.729
8,162,numeric,0.03,0.2,competitor,target,1,7.234
8,163,numeric,0.1,0.05,competitor,target,1,13.94
8,164,numeric,0.1,0.2,target,competitor,0,2.61
8,165,perceptual,0.1,0.05,target,target,1,5.333
8,166,perceptual,0.03,0.05,competitor,target,1,5.606
8,167,perceptual,0.03,0.05,competitor,target,1,5.31
8,168,numeric,0.03,0.2,competitor,target,1,5.137
8,169,perceptual,0.03,0.2,target,target,1,5.436
8,170,perceptual,0.03,0.2,target,target,1,5.41
8,171,perceptual,0.1,0.2,target,target,1,4.794
8,172,numeric,0.1,0.2,target,target,1,6.801
8,173,perceptual,0.03,0.2,target,target,1,6.271
8,174,numeric,0.1,0.05,competitor,target,1,9.714
8,175,perceptual,0.1,0.05,competitor,competitor,0,6.443
8,176,numeric,0.1,0.2,competitor,target,1,6.122
8,177,perceptual,0.1,0.05,target,target,1,6.548
8,178,perceptual,0.03,0.05,target,competitor,0,7.05
8,179,numeric,0.03,0.05,competitor,competitor,0,7.535
8,180,perceptual,0.03,0.2,competitor,target,1,8.55
8,181,numeric,0.03,0.05,target,target,1,7.069
8,182,perceptual,0.1,0.05,target,target,1,5.477
8,183,perceptual,0.1,0.05,target,target,1,4.969
8,184,perceptual,0.1,0.05,competitor,target,1,6.494
8,185,numeric,0.03,0.2,target,target,1,4.722
8,186,numeric,0.1,0.2,target,target,1,9.406
8,187,numeric,0.03,0.2,competitor,target,1,5.519
8,188,numeric,0.1,0.2,target,target,1,9.5
8,189,numeric,0.03,0.05,target,competitor,0,6.419
8,190,numeric,0.03,0.2,target,competitor,0,12.482
8,191,perceptual,0.1,0.05,target,target,1,5.261
8,192,perceptual,0.03,0.2,competitor,competitor,0,9.289
9,1,numeric,0.1,0.05,target,target,1,9.711
9,2,perceptual,0.03,0.05,target,competitor,0,8.945
9,3,perceptual,0.1,0.05,target,decoy,0,3.869
9,4,numeric,0.1,0.2,target,target,1,7.247
9,5,numeric,0.03,0.2,competitor,target,1,7.707
9,6,numeric,0.1,0.2,competitor,target,1,6.361
9,7,numeric,0.1,0.05,target,target,1,7.46
9,8,numeric,0.03,0.2,competitor,competitor,0,4.422
9,9,numeric,0.1,0.2,competitor,competitor,0,12.193
9,10,numeric,0.1,0.05,target,competitor,0,9.869
9,11,perceptual,0.1,0.05,target,target,1,8.63
9,12,numeric,0.1,0.2,target,target,1,5.644
9,13,numeric,0.03,0.05,target,target,1,9.032
9,14,numeric,0.03,0.2,competitor,target,1,11.21
9,15,numeric,0.1,0.05,competitor,target,1,11.352
9,16,perceptual,0.03,0.05,competitor,decoy,0,5.936
9,17,perceptual,0.03,0.2,target,target,1,4.509
9,18,numeric,0.1,0.05,target,decoy,0,12.686
9,19,numeric,0.1,0.05,target,target,1,7.81
9,20,numeric,0.1,0.05,target,target,1,7.856
9,21,numeric,0.1,0.05,target,target,1,5.408
9,22,perceptual,0.1,0.05,competitor,target,1,4.349
9,23,numeric,0.03,0.05,competitor,target,1,7.188
9,24,perceptual,0.1,0.05,competitor,target,1,4.156
9,25,numeric,0.1,0.2,target,target,1,4.133
9,26,perceptual,0.1,0.2,competitor,target,1,3.906
9,27,numeric,0.03,0.2,target,competitor,0,9.03
9,28,perceptual,0.03,0.05,target,target,1,5.648
9,29,perceptual,0.1,0.2,competitor,competitor,0,6.038
9,30,perceptual,0.03,0.05,target,competitor,0,7.114
9,31,perceptual,0.03,0.2,target,target,1,8.488
9,32,numeric,0.1,0.05,competitor,target,1,5.436
9,33,numeric,0.1,0.2,target,target,1,5.921
9,34,numeric,0.03,0.05,competitor,target,1,6.893
9,35,numeric,0.1,0.05,competitor,target,1,8.561
9,36,perceptual,0.1,0.2,target,target,1,8.469
9,37,perceptual,0.1,0.2,competitor,target,1,3.8
9,38,numeric,0.03,0.2,target,target,1,16.202
9,39,numeric,0.1,0.05,target,target,1,4.339
9,40,perceptual,0.1,0.05,target,decoy,0,5.845
9,41,perceptual,0.03,0.05,competitor,target,1,5.486
9,42,numeric,0.03,0.2,target,target,1,7.538
9,43,numeric,0.1,0.05,competitor,target,1,3.827
9,44,numeric,0.03,0.2,target,target,1,11.264
9,45,numeric,0.1,0.05,competitor,competitor,0,9.362
9,46,perceptual,0.03,0.05,competitor,competitor,0,3.29
9,47,numeric,0.03,0.05,target,target,1,9.07
9,48,numeric,0.1,0.05,target,target,1,8.009
9,49,numeric,0.1,0.05,competitor,target,1,9.647
9,50,perceptual,0.1,0.05,target,target,1,3.768
9,51,perceptual,0.1,0.05,competitor,competitor,0,2.433
9,52,numeric,0.1,0.05,competitor,target,1,2.763
9,53,perceptual,0.1,0.2,target,target,1,2.628
9,54,numeric,0.03,0.05,target,competitor,0,8.898
9,55,perceptual,0.1,0.05,competitor,target,1,6.963
9,56,numeric,0.1,0.05,competitor,competitor,0,10.128
9,57,perceptual,0.1,0.2,target,target,1,5.151
9,58,numeric,0.1,0.2,competitor,target,1,4.729
9,59,numeric,0.1,0.05,competitor,target,1,3.611
9,60,perceptual,0.03,0.05,target,target,1,0.183
9,61,numeric,0.1,0.2,target,target,1,3.121
9,62,numeric,0.03,0.05,competitor,competitor,0,9.188
9,63,perceptual,0.1,0.05,competitor,target,1,3.703
9,64,perceptual,0.1,0.05,competitor,target,1,2.267
9,65,perceptual,0.1,0.05,competitor,competitor,0,5.628
9,66,numeric,0.03,0.05,target,target,1,7.454
9,67,perceptual,0.03,0.2,competitor,competitor,0,3.779
9,68,numeric,0.1,0.2,competitor,competitor,0,4.815
9,69,perceptual,0.1,0.2,target,target,1,4.182
9,70,numeric,0.03,0.05,target,decoy,0,3.03
9,71,numeric,0.03,0.2,competitor,target,1,3.805
9,72,perceptual,0.1,0.2,target,target,1,4.102
9,73,perceptual,0.1,0.2,target,target,1,4.822
9,74,perceptual,0.03,0.2,target,target,1,2.79
9,75,perceptual,0.03,0.2,competitor,target,1,4.676
9,76,numeric,0.1,0.05,target,target,1,6.189
9,77,numeric,0.03,0.05,target,competitor,0,0.983
9,78,perceptual,0.03,0.2,target,target,1,4.013
9,79,perceptual,0.03,0.05,target,target,1,3.19
9,80,numeric,0.1,0.05,competitor,target,1,5.343
9,81,numeric,0.03,0.2,competitor,target,1,5.049
9,82,perceptual,0.1,0.2,competitor,competitor,0,6.471
9,83,numeric,0.03,0.2,target,target,1,7.153
9,84,perceptual,0.03,0.05,competitor,competitor,0,2.485
9,85,perceptual,0.1,0.2,competitor,target,1,3.134
9,86,numeric,0.03,0.2,target,competitor,0,4.595
9,87,perceptual,0.03,0.2,target,target,1,2.542
9,88,perceptual,0.03,0.05,competitor,target,1,4.587
9,89,perceptual,0.03,0.05,target,competitor,0,3.383
9,90,perceptual,0.03,0.2,competitor,target,1,3.803
9,91,perceptual,0.1,0.2,competitor,target,1,3.034
9,92,perceptual,0.03,0.05,target,target,1,4.29
9,93,perceptual,0.1,0.2,competitor,target,1,3.724
9,94,perceptual,0.1,0.2,target,target,1,1.982
9,95,numeric,0.03,0.2,target,decoy,0,9.986
9,96,perceptual,0.03,0.05,target,decoy,0,6.846
9,97,perceptual,0.03,0.05,target,target,1,9.024
9,98,numeric,0.03,0.05,competitor,competitor,0,5.16
9,99,perceptual,0.03,0.2,competitor,competitor,0,2.131
9,100,numeric,0.03,0.2,competitor,competitor,0,3.021
9,101,numeric,0.03,0.05,competitor,target,1,4.849
9,102,perceptual,0.1,0.05,competitor,decoy,0,3.982
9,103,numeric,0.1,0.2,target,target,1,6.705
9,104,perceptual,0.1,0.2,target,target,1,3.28
9,105,perceptual,0.1,0.05,target,competitor,0,2.847
9,106,numeric,0.1,0.2,competitor,target,1,4.974
9,107,numeric,0.03,0.05,competitor,target,1,5.316
9,108,numeric,0.1,0.2,competitor,target,1,3.066
9,109,perceptual,0.03,0.05,competitor,decoy,0,2.952
9,110,numeric,0.03,0.2,competitor,competitor,0,4.861
9,111,perceptual,0.03,0.05,target,target,1,3.15
9,112,perceptual,0.03,0.05,target,competitor,0,2.713
9,113,numeric,0.1,0.2,target,competitor,0,2.098
9,114,perceptual,0.1,0.2,competitor,target,1,2.505
9,115,perceptual,0.03,0.2,competitor,competitor,0,3.086
9,116,numeric,0.03,0.2,target,competitor,0,5.529
9,117,perceptual,0.1,0.05,competitor,target,1,3.321
9,118,numeric,0.03,0.2,target,competitor,0,5.895
9,119,numeric,0.03,0.05,competitor,target,1,2.573
9,120,perceptual,0.03,0.2,target,target,1,2.568
9,121,perceptual,0.03,0.05,competitor,competitor,0,2.972
9,122,numeric,0.03,0.05,target,target,1,10.317
9,123,perceptual,0.03,0.05,competitor,target,1,2.813
9,124,perceptual,0.1,0.2,target,target,1,2.791
9,125,numeric,0.1,0.2,target,target,1,3.833
9,126,perceptual,0.1,0.05,target,decoy,0,2.593
9,127,numeric,0.03,0.2,target,competitor,0,4.121
9,128,numeric,0.1,0.2,target,competitor,0,3.189
9,129,perceptual,0.1,0.2,competitor,target,1,3.844
9,130,perceptual,0.1,0.2,competitor,competitor,0,3.336
9,131,perceptual,0.03,0.2,competitor,target,1,2.558
9,132,perceptual,0.1,0.05,target,target,1,3.674
9,133,perceptual,0.03,0.2,competitor,target,1,4.196
9,134,numeric,0.1,0.05,target,target,1,6.666
9,135,numeric,0.1,0.2,target,target,1,6.114
9,136,numeric,0.03,0.05,competitor,competitor,0,10.682
9,137,numeric,0.1,0.2,target,target,1,3.086
9,138,numeric,0.03,0.05,target,decoy,0,2.754
9,139,perceptual,0.1,0.05,competitor,target,1,3.5
9,140,perceptual,0.03,0.2,target,target,1,3.079
9,141,perceptual,0.03,0.2,target,competitor,0,2.597
9,142,numeric,0.03,0.2,competitor,target,1,3.35
9,143,perceptual,0.1,0.2,competitor,target,1,3.589
9,144,numeric,0.1,0.2,competitor,competitor,0,4.24
9,145,numeric,0.1,0.05,competitor,target,1,6.242
9,146,perceptual,0.1,0.05,target,decoy,0,3.272
9,147,numeric,0.03,0.05,competitor,target,1,2.922
9,148,numeric,0.03,0.05,competitor,target,1,2.327
9,149,perceptual,0.03,0.05,competitor,target,1,3.24
9,150,numeric,0.03,0.05,target,competitor,0,2.064
9,151,perceptual,0.1,0.05,target,decoy,0,2.027
9,152,numeric,0.1,0.05,competitor,target,1,4.912
9,153,perceptual,0.1,0.2,competitor,target,1,2.642
9,154,numeric,0.03,0.2,competitor,competitor,0,6.246
9,155,perceptual,0.03,0.05,competitor,target,1,3.813
9,156,perceptual,0.03,0.2,competitor,target,1,4.33
9,157,perceptual,0.03,0.05,competitor,target,1,4.325
9,158,numeric,0.1,0.2,competitor,competitor,0,6.264
9,159,perceptual,0.1,0.05,competitor,competitor,0,2.953
9,160,numeric,0.03,0.2,competitor,competitor,0,2.31
9,161,numeric,0.1,0.2,competitor,target,1,3.193
9,162,perceptual,0.03,0.05,target,competitor,0,2.678
9,163,numeric,0.1,0.2,competitor,target,1,3.409
9,164,perceptual,0.1,0.2,target,target,1,4.366
9,165,numeric,0.03,0.2,target,target,1,3.637
9,166,perceptual,0.03,0.2,target,target,1,2.325
9,167,perceptual,0.03,0.2,competitor,target,1,2.545
9,168,numeric,0.1,0.2,target,competitor,0,3.176
9,169,perceptual,0.1,0.05,target,competitor,0,3.295
9,170,perceptual,0.1,0.2,target,competitor,0,3.892
9,171,numeric,0.03,0.2,competitor,competitor,0,4.596
9,172,perceptual,0.03,0.2,target,competitor,0,3.091
9,173,numeric,0.1,0.2,competitor,competitor,0,3.264
9,174,numeric,0.03,0.05,target,decoy,0,4.002
9,175,perceptual,0.1,0.05,target,target,1,3.09
9,176,perceptual,0.03,0.2,competitor,competitor,0,3.185
9,177,perceptual,0.03,0.05,competitor,target,1,2.506
9,178,numeric,0.1,0.05,target,competitor,0,2.968
9,179,perceptual,0.1,0.2,target,target,1,3.809
9,180,perceptual,0.03,0.2,competitor,target,1,2.728
9,181,perceptual,0.1,0.05,competitor,competitor,0,4.614
9,182,perceptual,0.03,0.2,target,competitor,0,4.218
9,183,perceptual,0.1,0.05,target,competitor,0,5.836
9,184,numeric,0.03,0.05,competitor,competitor,0,4.016
9,185,numeric,0.03,0.05,target,target,1,5.258
9,186,perceptual,0.03,0.2,competitor,target,1,3.128
9,187,numeric,0.03,0.05,target,target,1,6.858
9,188,numeric,0.03,0.2,competitor,target,1,3.004
9,189,numeric,0.03,0.05,competitor,competitor,0,2.79
9,190,perceptual,0.03,0.2,target,competitor,0,3.445
9,191,numeric,0.03,0.2,target,target,1,3.284
9,192,numeric,0.1,0.2,competitor,competitor,0,11.458
10,1,perceptual,0.03,0.05,target,decoy,0,9.424
10,2,perceptual,0.1,0.05,target,target,1,9.45
10,3,numeric,0.1,0.05,target,decoy,0,10.441
10,4,numeric,0.1,0.05,target,competitor,0,8.637
10,5,numeric,0.03,0.2,target,target,1,15.689
10,6,perceptual,0.1,0.05,competitor,target,1,5.874
10,7,numeric,0.03,0.05,competitor,competitor,0,7.178
10,8,numeric,0.03,0.05,target,target,1,9.003
10,9,perceptual,0.03,0.2,competitor,competitor,0,4.86
10,10,perceptual,0.03,0.2,competitor,target,1,9.861
10,11,numeric,0.1,0.05,competitor,target,1,7.525
10,12,numeric,0.1,0.2,target,target,1,5.848
10,13,perceptual,0.1,0.05,competitor,competitor,0,6.02
10,14,perceptual,0.03,0.2,target,target,1,4.936
10,15,numeric,0.03,0.05,competitor,competitor,0,8.652
10,16,numeric,0.03,0.05,target,decoy,0,6.429
10,17,perceptual,0.1,0.2,competitor,target,1,4.353
10,18,numeric,0.1,0.2,target,competitor,0,4.53
10,19,numeric,0.03,0.2,competitor,target,1,6.304
10,20,perceptual,0.1,0.05,target,competitor,0,5.494
10,21,numeric,0.03,0.05,target,target,1,4.304
10,22,numeric,0.03,0.2,competitor,competitor,0,4.938
10,23,numeric,0.1,0.2,competitor,target,1,4.558
10,24,numeric,0.03,0.2,target,competitor,0,4.478
10,25,numeric,0.03,0.05,competitor,decoy,0,9.285
10,26,perceptual,0.03,0.2,competitor,target,1,4.468
10,27,numeric,0.1,0.05,competitor,target,1,8.221
10,28,perceptual,0.03,0.05,target,competitor,0,4.815
10,29,numeric,0.03,0.2,competitor,target,1,4.913
10,30,numeric,0.1,0.2,target,competitor,0,3.64
10,31,numeric,0.1,0.05,target,competitor,0,4.908
10,32,numeric,0.1,0.2,target,target,1,4.706
10,33,perceptual,0.03,0.05,target,decoy,0,2.978
10,34,perceptual,0.1,0.2,target,competitor,0,3.331
10,35,perceptual,0.03,0.05,competitor,target,1,13.111
10,36,perceptual,0.1,0.2,competitor,target,1,6.715
10,37,numeric,0.03,0.2,target,target,1,6.245
10,38,numeric,0.03,0.05,target,target,1,16.291
10,39,numeric,0.03,0.05,target,competitor,0,7.182
10,40,numeric,0.1,0.2,competitor,competitor,0,9.08
10,41,perceptual,0.1,0.05,target,competitor,0,6.114
10,42,numeric,0.1,0.05,competitor,decoy,0,11.876
10,43,perceptual,0.03,0.05,target,target,1,11.371
10,44,numeric,0.1,0.05,competitor,competitor,0,15.354
10,45,numeric,0.1,0.2,target,target,1,9.037
10,46,numeric,0.03,0.2,competitor,competitor,0,15.564
10,47,perceptual,0.1,0.2,competitor,target,1,6.662
10,48,perceptual,0.1,0.2,competitor,target,1,5.718
10,49,perceptual,0.1,0.2,competitor,target,1,4.518
10,50,perceptual,0.1,0.05,target,decoy,0,7.945
10,51,perceptual,0.03,0.05,competitor,target,1,5.43
10,52,numeric,0.03,0.2,competitor,competitor,0,4.92
10,53,numeric,0.03,0.2,competitor,target,1,5.487
10,54,perceptual,0.03,0.05,competitor,target,1,6.419
10,55,perceptual,0.1,0.05,competitor,target,1,3.185
10,56,perceptual,0.03,0.2,competitor,target,1,9.863
10,57,perceptual,0.03,0.05,target,competitor,0,14.569
10,58,perceptual,0.03,0.05,competitor,competitor,0,3.805
10,59,perceptual,0.03,0.05,target,target,1,3.624
10,60,perceptual,0.03,0.2,target,target,1,3.64
10,61,numeric,0.03,0.2,target,target,1,8.722
10,62,perceptual,0.1,0.2,competitor,target,1,3.532
10,63,numeric,0.1,0.05,target,decoy,0,4.622
10,64,numeric,0.1,0.2,competitor,target,1,3.662
10,65,perceptual,0.1,0.2,target,target,1,3.086
10,66,perceptual,0.03,0.2,competitor,competitor,0,3.588
10,67,perceptual,0.1,0.2,target,competitor,0,3.524
10,68,numeric,0.1,0.05,competitor,competitor,0,4.549
10,69,numeric,0.03,0.2,target,target,1,8.736
10,70,perceptual,0.03,0.2,competitor,target,1,4.808
10,71,perceptual,0.03,0.2,target,target,1,9.33
10,72,perceptual,0.03,0.05,target,competitor,0,6.014
10,73,numeric,0.03,0.2,competitor,target,1,6.229
10,74,numeric,0.03,0.2,competitor,competitor,0,8.801
10,75,perceptual,0.03,0.05,competitor,decoy,0,3.479
10,76,perceptual,0.03,0.05,competitor,target,1,3.611
10,77,perceptual,0.1,0.2,target,target,1,5.427
10,78,perceptual,0.1,0.2,target,competitor,0,4.558
10,79,numeric,0.1,0.2,competitor,competitor,0,4.588
10,80,numeric,0.1,0.05,competitor,target,1,6.88
10,81,numeric,0.1,0.05,target,target,1,3.708
10,82,numeric,0.1,0.05,target,competitor,0,3.257
10,83,perceptual,0.1,0.05,target,decoy,0,9.674
10,84,numeric,0.03,0.05,competitor,competitor,0,4.909
10,85,numeric,0.03,0.05,target,target,1,5.758
10,86,numeric,0.1,0.2,competitor,target,1,8.021
10,87,numeric,0.1,0.05,target,target,1,4.581
10,88,perceptual,0.03,0.05,target,competitor,0,5.391
10,89,perceptual,0.1,0.05,competitor,competitor,0,4.16
10,90,numeric,0.1,0.2,target,target,1,8.448
10,91,numeric,0.03,0.05,competitor,competitor,0,6.928
10,92,perceptual,0.03,0.05,competitor,target,1,4.023
10,93,numeric,0.03,0.05,competitor,target,1,5.041
10,94,perceptual,0.03,0.2,target,competitor,0,4.284
10,95,perceptual,0.03,0.2,competitor,competitor,0,5.963
10,96,numeric,0.03,0.05,competitor,decoy,0,8.509
10,97,numeric,0.03,0.2,target,target,1,5
10,98,numeric,0.1,0.2,target,competitor,0,3.995
10,99,perceptual,0.03,0.2,competitor,competitor,0,3.68
10,100,perceptual,0.1,0.05,competitor,target,1,4.415
10,101,perceptual,0.03,0.05,competitor,target,1,4.882
10,102,perceptual,0.1,0.2,competitor,target,1,3.541
10,103,numeric,0.1,0.2,target,competitor,0,5.37
10,104,numeric,0.1,0.05,competitor,target,1,3.701
10,105,numeric,0.03,0.2,competitor,target,1,8.089
10,106,numeric,0.1,0.05,target,competitor,0,6.446
10,107,perceptual,0.1,0.2,target,competitor,0,2.991
10,108,numeric,0.1,0.05,competitor,target,1,5.421
10,109,numeric,0.03,0.05,competitor,competitor,0,7.366
10,110,perceptual,0.03,0.05,target,target,1,4.368
10,111,numeric,0.03,0.2,target,target,1,8.013
10,112,numeric,0.1,0.2,competitor,target,1,4.835
10,113,perceptual,0.03,0.2,target,competitor,0,3.74
10,114,perceptual,0.03,0.05,competitor,target,1,4.317
10,115,perceptual,0.1,0.05,target,target,1,4.483
10,116,numeric,0.03,0.2,competitor,target,1,7.185
10,117,perceptual,0.03,0.2,target,target,1,4.064
10,118,numeric,0.1,0.2,competitor,target,1,5.035
10,119,numeric,0.03,0.2,target,target,1,15.697
10,120,perceptual,0.03,0.05,target,target,1,5.706
10,121,numeric,0.03,0.2,target,competitor,0,3.678
10,122,perceptual,0.03,0.2,competitor,target,1,3.046
10,123,numeric,0.1,0.2,competitor,competitor,0,5.283
10,124,perceptual,0.1,0.05,target,target,1,3.537
10,125,perceptual,0.1,0.05,target,decoy,0,3.271
10,126,perceptual,0.1,0.2,target,target,1,7.025
10,127,numeric,0.1,0.2,competitor,competitor,0,6.436
10,128,numeric,0.03,0.2,target,target,1,11.247
10,129,numeric,0.1,0.05,target,competitor,0,3.83
10,130,perceptual,0.1,0.05,competitor,decoy,0,3.915
10,131,perceptual,0.1,0.05,competitor,target,1,3.51
10,132,numeric,0.03,0.2,target,target,1,5.413
10,133,perceptual,0.03,0.2,target,competitor,0,5.359
10,134,numeric,0.1,0.2,target,target,1,18.198
10,135,perceptual,0.03,0.2,target,target,1,3.104
10,136,numeric,0.1,0.2,target,target,1,4.997
10,137,numeric,0.03,0.05,target,competitor,0,8.637
10,138,numeric,0.1,0.05,competitor,target,1,8.675
10,139,numeric,0.03,0.2,target,target,1,5.455
10,140,perceptual,0.03,0.2,target,competitor,0,4.33
10,141,perceptual,0.03,0.2,target,target,1,3.332
10,142,perceptual,0.03,0.2,target,competitor,0,6.279
10,143,numeric,0.1,0.2,target,target,1,5.38
10,144,numeric,0.03,0.05,competitor,target,1,7.524
10,145,numeric,0.1,0.05,target,target,1,4.497
10,146,numeric,0.03,0.05,target,competitor,0,4.816
10,147,perceptual,0.03,0.2,target,competitor,0,3.087
10,148,perceptual,0.1,0.2,competitor,competitor,0,3.106
10,149,perceptual,0.1,0.2,target,competitor,0,4.237
10,150,perceptual,0.1,0.05,target,competitor,0,2.758
10,151,perceptual,0.1,0.2,competitor,target,1,3.252
10,152,numeric,0.03,0.05,target,target,1,4.885
10,153,perceptual,0.1,0.2,target,competitor,0,3.913
10,154,perceptual,0.03,0.2,competitor,competitor,0,5.498
10,155,numeric,0.03,0.05,competitor,target,1,4.198
10,156,perceptual,0.1,0.05,competitor,decoy,0,3.474
10,157,perceptual,0.1,0.05,target,target,1,5.254
10,158,numeric,0.1,0.2,competitor,target,1,5.19
10,159,perceptual,0.03,0.05,competitor,competitor,0,4.168
10,160,perceptual,0.1,0.2,target,target,1,3.006
10,161,perceptual,0.1,0.05,target,target,1,3.286
10,162,numeric,0.03,0.05,competitor,competitor,0,4.12
10,163,numeric,0.1,0.2,target,target,1,2.864
10,164,perceptual,0.1,0.05,competitor,target,1,2.931
10,165,perceptual,0.1,0.05,competitor,target,1,2.393
10,166,numeric,0.1,0.2,competitor,target,1,2.393
10,167,numeric,0.1,0.05,competitor,target,1,3.646
10,168,numeric,0.03,0.05,target,target,1,2.612
10,169,numeric,0.03,0.2,competitor,target,1,3.449
10,170,numeric,0.1,0.2,competitor,target,1,3.074
10,171,numeric,0.03,0.05,competitor,competitor,0,2.513
10,172,perceptual,0.03,0.05,competitor,competitor,0,2.237
10,173,numeric,0.1,0.05,target,decoy,0,3.374
10,174,numeric,0.1,0.05,competitor,competitor,0,2.287
10,175,perceptual,0.03,0.05,target,target,1,2.388
10,176,perceptual,0.1,0.2,competitor,decoy,0,2.759
10,177,perceptual,0.1,0.05,competitor,target,1,2.244
10,178,perceptual,0.03,0.05,competitor,decoy,0,1.895
10,179,perceptual,0.03,0.2,competitor,decoy,0,2.196
10,180,perceptual,0.1,0.2,target,competitor,0,2.011
10,181,numeric,0.1,0.05,competitor,competitor,0,4.25
10,182,perceptual,0.1,0.2,competitor,competitor,0,3.441
10,183,numeric,0.1,0.05,target,decoy,0,3.866
10,184,perceptual,0.1,0.2,target,target,1,2.303
10,185,numeric,0.03,0.05,target,competitor,0,3.312
10,186,numeric,0.03,0.2,competitor,target,1,5.603
10,187,perceptual,0.03,0.05,target,decoy,0,2.493
10,188,perceptual,0.1,0.05,competitor,competitor,0,2.362
10,189,numeric,0.03,0.05,target,target,1,6.274
10,190,perceptual,0.1,0.05,target,target,1,4.784
10,191,perceptual,0.03,0.2,competitor,decoy,0,2.375
10,192,perceptual,0.1,0.2,competitor,target,1,2.435
11,2,perceptual,0.1,0.2,target,decoy,0,0.246
11,3,perceptual,0.1,0.2,competitor,competitor,0,8.426
11,4,numeric,0.03,0.2,competitor,competitor,0,10.899
11,5,perceptual,0.1,0.05,competitor,competitor,0,9.362
11,6,numeric,0.1,0.05,target,target,1,7.938
11,7,perceptual,0.1,0.2,competitor,competitor,0,7.129
11,9,perceptual,0.1,0.2,target,target,1,7.629
11,10,perceptual,0.1,0.05,target,decoy,0,11.682
11,11,perceptual,0.1,0.2,target,decoy,0,8.034
11,12,numeric,0.1,0.05,target,target,1,18.031
11,13,perceptual,0.03,0.05,competitor,target,1,4.415
11,14,perceptual,0.03,0.2,competitor,target,1,7.232
11,15,perceptual,0.03,0.2,target,target,1,5.967
11,16,numeric,0.1,0.2,competitor,competitor,0,16.688
11,17,perceptual,0.03,0.2,competitor,competitor,0,6.385
11,18,perceptual,0.1,0.2,competitor,decoy,0,7.652
11,19,perceptual,0.03,0.05,target,decoy,0,5.64
11,20,perceptual,0.03,0.2,target,target,1,6.383
11,21,perceptual,0.03,0.05,target,competitor,0,9.1
11,22,perceptual,0.03,0.05,competitor,competitor,0,6.55
11,23,numeric,0.1,0.2,target,competitor,0,8.21
11,24,numeric,0.03,0.05,competitor,competitor,0,10.063
11,25,perceptual,0.03,0.05,competitor,target,1,6.101
11,26,perceptual,0.03,0.05,target,target,1,11.721
11,27,numeric,0.1,0.05,target,target,1,5.496
11,28,perceptual,0.1,0.05,competitor,competitor,0,8.152
11,29,perceptual,0.1,0.05,target,target,1,5.929
11,30,numeric,0.03,0.05,target,target,1,6.911
11,31,numeric,0.03,0.05,target,target,1,11.828
11,32,perceptual,0.1,0.05,competitor,target,1,9.029
11,33,numeric,0.03,0.2,target,target,1,9.008
11,34,perceptual,0.1,0.05,competitor,decoy,0,9.662
11,35,numeric,0.03,0.2,competitor,target,1,7.766
11,36,numeric,0.03,0.2,competitor,target,1,9.679
11,37,perceptual,0.1,0.2,target,target,1,7.636
11,38,perceptual,0.1,0.2,target,target,1,6.231
11,39,numeric,0.1,0.2,competitor,target,1,17.111
11,40,perceptual,0.1,0.05,target,target,1,8.077
11,41,perceptual,0.03,0.2,target,target,1,7.425
11,42,perceptual,0.03,0.2,competitor,target,1,7.816
11,43,numeric,0.1,0.2,competitor,target,1,5.329
11,44,perceptual,0.03,0.05,target,target,1,5.313
11,45,perceptual,0.1,0.2,competitor,target,1,5.486
11,46,perceptual,0.1,0.2,competitor,target,1,4.632
11,47,perceptual,0.1,0.05,competitor,target,1,6.724
11,48,perceptual,0.03,0.05,competitor,target,1,13.825
11,49,numeric,0.03,0.2,competitor,target,1,8.233
11,50,perceptual,0.03,0.2,target,competitor,0,7.985
11,51,numeric,0.03,0.2,competitor,target,1,8.995
11,52,numeric,0.1,0.2,target,target,1,6.195
11,53,numeric,0.1,0.2,target,target,1,6.236
11,54,numeric,0.03,0.05,competitor,target,1,10.916
11,55,perceptual,0.03,0.2,competitor,target,1,5.609
11,56,perceptual,0.03,0.2,competitor,competitor,0,9.566
11,57,numeric,0.1,0.2,target,target,1,6.544
11,58,perceptual,0.1,0.05,target,target,1,5.559
11,59,numeric,0.03,0.05,target,target,1,6.901
11,60,perceptual,0.03,0.05,target,competitor,0,6.939
11,61,numeric,0.03,0.05,target,target,1,10.234
11,62,perceptual,0.1,0.2,competitor,target,1,7.127
11,63,perceptual,0.1,0.05,target,decoy,0,9.97
11,64,perceptual,0.03,0.05,competitor,competitor,0,7.869
11,65,perceptual,0.03,0.2,competitor,competitor,0,5.909
11,66,numeric,0.1,0.05,competitor,target,1,4.587
11,67,numeric,0.03,0.2,competitor,competitor,0,5.22
11,68,numeric,0.03,0.05,competitor,target,1,8.776
11,69,numeric,0.1,0.05,competitor,competitor,0,5.744
11,70,numeric,0.03,0.2,target,target,1,5.569
11,71,perceptual,0.1,0.2,competitor,target,1,3.855
11,72,perceptual,0.1,0.05,competitor,target,1,3.872
11,73,numeric,0.03,0.05,competitor,target,1,5.986
11,74,numeric,0.1,0.2,competitor,target,1,8.051
11,75,numeric,0.1,0.2,competitor,competitor,0,6.197
11,76,numeric,0.1,0.05,competitor,target,1,6.399
11,77,numeric,0.03,0.05,target,target,1,6.901
11,78,perceptual,0.1,0.05,target,target,1,7.695
11,79,perceptual,0.1,0.05,competitor,target,1,6.245
11,80,numeric,0.1,0.2,target,target,1,4.913
11,81,numeric,0.1,0.05,target,target,1,5.617
11,82,perceptual,0.03,0.05,target,target,1,10.578
11,83,numeric,0.1,0.2,competitor,competitor,0,11.691
11,84,numeric,0.1,0.05,target,target,1,7.336
11,85,perceptual,0.1,0.05,target,target,1,7.369
11,86,numeric,0.03,0.05,competitor,competitor,0,7.83
11,87,perceptual,0.1,0.2,target,target,1,9.831
11,88,numeric,0.03,0.05,target,target,1,6.355
11,89,numeric,0.03,0.2,competitor,competitor,0,4.909
11,90,numeric,0.1,0.2,target,competitor,0,9.479
11,91,numeric,0.1,0.2,target,target,1,11.318
11,92,numeric,0.03,0.05,competitor,target,1,6.789
11,93,numeric,0.1,0.05,competitor,target,1,6.315
11,94,numeric,0.1,0.05,target,competitor,0,13.705
11,95,perceptual,0.03,0.05,competitor,target,1,7.955
11,96,perceptual,0.03,0.2,target,target,1,4.707
11,97,perceptual,0.03,0.2,target,target,1,6.593
11,98,numeric,0.03,0.05,competitor,target,1,4.205
11,99,perceptual,0.03,0.2,competitor,competitor,0,3.043
11,100,numeric,0.03,0.05,target,target,1,4.799
11,101,perceptual,0.03,0.2,competitor,target,1,4.66
11,102,numeric,0.1,0.05,competitor,target,1,8.136
11,103,numeric,0.03,0.05,competitor,decoy,0,8.346
11,104,numeric,0.1,0.05,competitor,target,1,5.685
11,105,perceptual,0.03,0.05,target,competitor,0,12.825
11,106,perceptual,0.03,0.2,competitor,target,1,4.352
11,107,numeric,0.03,0.2,competitor,target,1,6.458
11,108,numeric,0.03,0.2,target,target,1,9.881
11,109,numeric,0.1,0.2,target,target,1,8.55
11,110,perceptual,0.03,0.05,target,target,1,6.671
11,111,perceptual,0.1,0.05,competitor,target,1,4.72
11,112,perceptual,0.1,0.05,competitor,competitor,0,7.518
11,113,numeric,0.1,0.05,target,target,1,7.966
11,114,numeric,0.03,0.2,target,target,1,7.654
11,115,perceptual,0.1,0.2,competitor,target,1,7.265
11,116,perceptual,0.03,0.2,competitor,target,1,5.931
11,117,numeric,0.03,0.05,target,target,1,4.478
