participant,trial_counter,condition,target_to_competitor,decoy_reduction,decoy_on,chosen_item,correct,rt
1,1,numeric,0.03,0.2,target,competitor,0,11.502
1,2,perceptual,0.03,0.2,competitor,competitor,0,9.736
1,3,perceptual,0.03,0.2,competitor,target,1,12.578
1,4,perceptual,0.1,0.05,competitor,competitor,0,11.83
1,5,perceptual,0.03,0.2,no_decoy,competitor,1,4.76
1,6,numeric,0.03,0.05,competitor,competitor,1,5.532
1,7,numeric,0.03,0.2,no_decoy,competitor,0,6.498
1,8,perceptual,0.1,0.05,competitor,competitor,1,13.647
1,9,numeric,0.1,0.05,no_decoy,competitor,1,4.472
1,10,numeric,0.1,0.2,competitor,competitor,0,9.157
1,11,perceptual,0.03,0.05,competitor,target,0,8.798
1,12,perceptual,0.03,0.2,competitor,target,1,5.597
1,13,perceptual,0.1,0.2,target,target,1,10.112
1,14,numeric,0.1,0.2,target,decoy,0,5.951
1,15,perceptual,0.1,0.05,target,competitor,1,5.648
1,16,numeric,0.03,0.05,target,competitor,0,10.872
1,17,numeric,0.1,0.2,no_decoy,target,1,4.398
1,18,numeric,0.03,0.2,competitor,target,0,7.533
1,19,numeric,0.1,0.05,competitor,decoy,0,5.263
1,20,numeric,0.1,0.05,target,decoy,0,13.831
1,21,numeric,0.1,0.2,no_decoy,competitor,0,4.751
1,22,perceptual,0.03,0.2,competitor,decoy,1,6.424
1,23,perceptual,0.1,0.2,target,competitor,1,5.663
1,24,numeric,0.1,0.2,target,decoy,1,10.968
1,25,perceptual,0.03,0.05,no_decoy,competitor,1,2.982
1,26,perceptual,0.1,0.2,no_decoy,competitor,1,3.42
1,27,perceptual,0.03,0.05,no_decoy,target,0,2.625
1,28,numeric,0.1,0.2,competitor,competitor,0,7.484
1,29,numeric,0.03,0.2,no_decoy,target,1,3.245
1,30,perceptual,0.1,0.05,competitor,decoy,1,3.823
1,31,numeric,0.1,0.05,target,target,0,4.619
1,32,numeric,0.03,0.05,competitor,decoy,1,4.702
1,33,perceptual,0.1,0.2,no_decoy,target,1,3.824
1,34,numeric,0.1,0.2,target,target,0,5.735
1,35,perceptual,0.03,0.2,target,target,0,4.423
1,36,perceptual,0.1,0.05,no_decoy,competitor,0,3.438
1,37,numeric,0.03,0.05,no_decoy,target,0,2.68
1,38,numeric,0.1,0.05,no_decoy,competitor,1,3.649
1,39,numeric,0.03,0.05,target,competitor,1,7.769
1,40,numeric,0.03,0.05,competitor,decoy,1,6.331
1,41,perceptual,0.1,0.2,competitor,decoy,0,5.343
1,42,perceptual,0.03,0.2,no_decoy,target,1,2.564
1,43,numeric,0.03,0.2,no_decoy,target,1,3.18
1,44,perceptual,0.1,0.2,target,target,1,3.849
1,45,numeric,0.03,0.05,target,target,0,3.946
1,46,numeric,0.1,0.05,no_decoy,target,1,6.264
1,47,perceptual,0.1,0.2,target,competitor,1,2.85
1,48,perceptual,0.1,0.05,target,target,0,2.802
1,49,perceptual,0.1,0.2,competitor,competitor,0,2.958
1,50,perceptual,0.1,0.2,competitor,competitor,1,3.676
1,51,perceptual,0.03,0.2,no_decoy,target,1,2.854
1,52,numeric,0.1,0.2,competitor,target,1,7.181
1,53,numeric,0.03,0.2,no_decoy,target,1,2.289
1,54,perceptual,0.03,0.05,competitor,decoy,0,2.88
1,55,perceptual,0.03,0.05,competitor,target,1,2.82
1,56,numeric,0.1,0.2,no_decoy,competitor,1,3.782
1,57,numeric,0.1,0.05,competitor,competitor,0,6.871
1,58,perceptual,0.1,0.05,no_decoy,competitor,1,2.235
1,59,perceptual,0.1,0.2,target,target,0,1.961
1,60,numeric,0.1,0.2,no_decoy,target,1,2.354
1,61,perceptual,0.1,0.05,target,competitor,0,2.68
1,62,perceptual,0.03,0.05,target,target,0,2.435
1,63,numeric,0.03,0.2,competitor,decoy,1,3.165
1,64,numeric,0.1,0.2,target,target,0,3.826
1,65,perceptual,0.03,0.05,no_decoy,competitor,0,3.233
1,66,numeric,0.1,0.2,target,target,0,4.278
1,67,perceptual,0.1,0.2,no_decoy,competitor,1,2.05
1,68,numeric,0.03,0.2,target,decoy,1,3.222
1,69,numeric,0.1,0.05,target,decoy,1,2.439
1,70,perceptual,0.1,0.05,competitor,competitor,1,2.657
1,71,numeric,0.1,0.05,target,target,1,3.336
1,72,perceptual,0.03,0.05,no_decoy,competitor,0,1.933
1,73,perceptual,0.1,0.05,no_decoy,target,0,1.741
1,74,perceptual,0.1,0.2,no_decoy,target,0,2.32
1,75,perceptual,0.03,0.2,target,target,1,2.562
1,76,numeric,0.1,0.2,target,decoy,0,2.068
1,77,numeric,0.03,0.05,no_decoy,competitor,0,2.589
1,78,perceptual,0.03,0.05,target,competitor,1,3.362
1,79,numeric,0.03,0.05,competitor,decoy,1,2.984
1,80,perceptual,0.1,0.2,target,competitor,0,2.146
1,81,perceptual,0.1,0.2,target,decoy,1,2.051
1,82,numeric,0.03,0.05,no_decoy,competitor,1,3.437
1,83,numeric,0.1,0.2,no_decoy,target,1,3.228
1,84,numeric,0.03,0.2,no_decoy,target,1,4.715
1,85,numeric,0.1,0.2,no_decoy,competitor,1,5.043
1,86,numeric,0.1,0.05,no_decoy,competitor,1,2.509
1,87,perceptual,0.03,0.05,target,target,0,1.874
1,88,numeric,0.03,0.2,target,competitor,1,2.82
1,89,perceptual,0.03,0.05,no_decoy,target,0,2.272
1,90,perceptual,0.03,0.05,no_decoy,target,1,3.785
1,91,numeric,0.03,0.2,competitor,decoy,0,2.503
1,92,numeric,0.1,0.2,no_decoy,competitor,0,2.387
1,93,perceptual,0.03,0.05,competitor,decoy,0,2.046
1,94,numeric,0.1,0.2,competitor,decoy,1,2.392
1,95,numeric,0.03,0.05,target,target,0,2.195
1,96,perceptual,0.03,0.05,competitor,competitor,1,1.89
1,97,perceptual,0.1,0.05,no_decoy,competitor,0,0.851
1,98,perceptual,0.03,0.2,target,target,0,2.679
1,99,numeric,0.03,0.2,competitor,target,0,2.829
1,100,perceptual,0.03,0.2,competitor,decoy,1,2.747
1,101,perceptual,0.03,0.05,competitor,decoy,1,2.462
1,102,numeric,0.03,0.2,competitor,competitor,1,2.328
1,103,perceptual,0.03,0.05,target,competitor,0,3.511
1,104,numeric,0.03,0.05,competitor,target,0,2.86
1,105,numeric,0.03,0.2,no_decoy,target,0,2.409
1,106,perceptual,0.03,0.05,no_decoy,competitor,0,2.247
1,107,numeric,0.1,0.05,target,target,0,5.443
1,108,perceptual,0.1,0.2,no_decoy,competitor,1,2.962
1,109,numeric,0.03,0.2,no_decoy,competitor,0,2.155
1,110,numeric,0.03,0.2,target,decoy,1,2.781
1,111,numeric,0.1,0.2,target,competitor,0,2.572
1,112,numeric,0.03,0.05,no_decoy,competitor,0,2.185
1,113,numeric,0.03,0.05,target,target,1,3.76
1,114,perceptual,0.1,0.2,competitor,decoy,0,2.106
1,115,perceptual,0.03,0.05,no_decoy,target,1,2.113
1,116,numeric,0.1,0.05,competitor,target,1,2.154
1,117,perceptual,0.03,0.05,no_decoy,target,0,1.952
1,118,numeric,0.1,0.05,no_decoy,competitor,1,2.19
1,119,numeric,0.03,0.05,no_decoy,competitor,1,2.187
1,120,numeric,0.03,0.05,target,competitor,1,3.221
1,121,numeric,0.03,0.05,target,competitor,0,1.989
1,122,perceptual,0.1,0.05,competitor,decoy,1,2.338
1,123,numeric,0.1,0.2,no_decoy,competitor,0,1.896
1,124,perceptual,0.03,0.2,competitor,decoy,1,2.448
1,125,perceptual,0.03,0.05,target,target,0,2.667
1,126,numeric,0.03,0.2,competitor,decoy,1,2.011
1,127,numeric,0.1,0.05,target,competitor,0,3.034
1,128,perceptual,0.03,0.05,target,competitor,0,2.068
1,129,numeric,0.1,0.05,no_decoy,target,1,2.268
1,130,numeric,0.1,0.05,target,decoy,1,3.53
1,131,numeric,0.03,0.05,no_decoy,competitor,0,2.461
1,132,perceptual,0.1,0.05,target,decoy,0,1.813
1,133,numeric,0.03,0.2,target,target,0,2.506
1,134,numeric,0.03,0.05,no_decoy,target,1,1.945
1,135,perceptual,0.1,0.2,target,decoy,0,2.374
1,136,numeric,0.1,0.05,target,competitor,0,1.908
1,137,numeric,0.1,0.2,no_decoy,target,0,1.93
1,138,numeric,0.1,0.05,competitor,target,0,2.186
1,139,numeric,0.03,0.2,target,competitor,0,1.711
1,140,perceptual,0.1,0.05,competitor,decoy,1,2.839
1,141,perceptual,0.03,0.05,competitor,target,0,1.962
1,142,perceptual,0.1,0.05,no_decoy,competitor,1,1.861
1,143,numeric,0.03,0.2,competitor,competitor,1,2.092
1,144,perceptual,0.1,0.2,no_decoy,competitor,0,1.856
1,145,perceptual,0.03,0.2,target,decoy,0,2.368
1,146,numeric,0.03,0.05,competitor,competitor,1,2.082
1,147,numeric,0.03,0.2,target,competitor,0,2.178
1,148,perceptual,0.03,0.05,target,competitor,0,1.818
1,149,numeric,0.03,0.05,no_decoy,competitor,1,2.463
1,150,numeric,0.03,0.05,no_decoy,target,0,2.03
1,151,numeric,0.03,0.05,no_decoy,target,1,1.941
1,152,perceptual,0.1,0.2,competitor,competitor,1,2.418
1,153,perceptual,0.1,0.05,target,decoy,1,1.906
1,154,perceptual,0.03,0.2,no_decoy,competitor,0,2.102
1,155,numeric,0.1,0.05,no_decoy,competitor,0,2.092
1,156,perceptual,0.1,0.05,no_decoy,competitor,1,1.955
1,157,perceptual,0.1,0.05,no_decoy,competitor,1,3.131
1,158,perceptual,0.03,0.2,target,decoy,1,3.931
1,159,numeric,0.1,0.2,target,target,1,2.391
1,160,perceptual,0.1,0.05,competitor,decoy,0,2.797
1,161,numeric,0.1,0.05,no_decoy,competitor,1,1.949
1,162,perceptual,0.03,0.2,no_decoy,competitor,0,2.416
1,163,numeric,0.03,0.2,target,competitor,0,3.465
1,164,perceptual,0.1,0.2,no_decoy,target,0,2.931
1,165,perceptual,0.1,0.05,no_decoy,target,1,2.367
1,166,numeric,0.1,0.2,competitor,competitor,1,3.218
1,167,perceptual,0.03,0.05,competitor,target,0,2.718
1,168,numeric,0.1,0.2,no_decoy,competitor,1,2.566
1,169,numeric,0.03,0.2,target,target,1,2.345
1,170,perceptual,0.1,0.05,target,competitor,0,1.925
1,171,perceptual,0.1,0.2,competitor,decoy,0,1.838
1,172,perceptual,0.03,0.05,competitor,competitor,1,2.269
1,173,perceptual,0.1,0.2,competitor,competitor,0,1.814
1,174,numeric,0.1,0.05,target,competitor,0,2.107
1,175,perceptual,0.1,0.05,target,decoy,0,2.456
1,176,numeric,0.03,0.05,target,decoy,0,2.02
1,177,numeric,0.03,0.05,target,target,0,2.689
1,178,perceptual,0.03,0.2,no_decoy,competitor,1,2.54
1,179,numeric,0.03,0.05,target,competitor,0,3.163
1,180,numeric,0.1,0.2,target,decoy,1,1.822
1,181,perceptual,0.1,0.2,competitor,competitor,0,3.113
1,182,numeric,0.1,0.05,no_decoy,target,1,2.242
1,183,perceptual,0.1,0.2,target,target,0,2.151
1,184,perceptual,0.1,0.05,target,target,0,2.219
1,185,perceptual,0.1,0.05,target,decoy,1,3.138
1,186,numeric,0.1,0.2,competitor,competitor,0,1.922
1,187,numeric,0.03,0.2,no_decoy,target,1,3.169
1,188,perceptual,0.03,0.2,competitor,decoy,1,2.351
1,189,perceptual,0.03,0.2,target,target,1,2.367
1,190,perceptual,0.1,0.05,target,target,1,2.64
1,191,perceptual,0.03,0.05,competitor,target,0,1.754
1,192,numeric,0.03,0.05,competitor,target,1,2.432
1,193,perceptual,0.1,0.2,target,decoy,1,2.306
1,194,numeric,0.03,0.2,no_decoy,competitor,0,2.134
1,195,numeric,0.03,0.2,no_decoy,target,0,1.729
1,196,perceptual,0.03,0.2,target,competitor,1,1.739
1,197,perceptual,0.1,0.2,competitor,target,0,2.012
1,198,numeric,0.1,0.05,competitor,competitor,0,1.661
1,199,numeric,0.1,0.2,competitor,decoy,0,2.245
1,200,numeric,0.1,0.05,target,competitor,0,2.034
1,201,perceptual,0.03,0.05,target,target,0,3.181
1,202,perceptual,0.1,0.2,competitor,competitor,0,2.417
1,203,numeric,0.1,0.2,target,target,1,2.991
1,204,numeric,0.1,0.05,competitor,decoy,1,3.453
1,205,numeric,0.03,0.2,competitor,decoy,0,2.178
1,206,numeric,0.1,0.2,target,competitor,0,2.906
1,207,perceptual,0.1,0.05,no_decoy,target,1,2.468
1,208,numeric,0.1,0.2,competitor,competitor,1,2.271
1,209,perceptual,0.1,0.05,competitor,target,1,1.967
1,210,numeric,0.1,0.05,competitor,target,0,2.35
1,211,numeric,0.1,0.2,competitor,decoy,1,1.886
1,212,perceptual,0.03,0.05,target,competitor,0,2.157
1,213,perceptual,0.03,0.2,no_decoy,target,0,2.429
1,214,numeric,0.03,0.2,target,decoy,1,2.562
1,215,perceptual,0.03,0.2,competitor,competitor,0,2.08
1,216,perceptual,0.03,0.2,target,competitor,0,2.12
1,217,numeric,0.03,0.05,target,decoy,0,3.779
1,218,perceptual,0.1,0.05,target,target,0,2.565
1,219,numeric,0.03,0.05,no_decoy,target,1,2.379
1,220,numeric,0.03,0.05,target,decoy,0,2.562
1,221,perceptual,0.1,0.05,competitor,decoy,0,4
1,222,numeric,0.1,0.2,competitor,decoy,1,4.805
1,223,perceptual,0.1,0.2,competitor,competitor,1,2.052
1,224,perceptual,0.1,0.2,no_decoy,target,1,3.158
1,225,perceptual,0.1,0.2,no_decoy,competitor,1,2.479
1,226,perceptual,0.1,0.2,no_decoy,target,0,2.477
1,227,numeric,0.1,0.2,no_decoy,competitor,1,2.741
1,228,perceptual,0.03,0.05,no_decoy,competitor,0,2.596
1,229,numeric,0.03,0.05,competitor,competitor,0,3.712
1,230,perceptual,0.1,0.05,no_decoy,target,0,2.479
1,231,numeric,0.03,0.05,competitor,target,0,3.496
1,232,numeric,0.03,0.2,competitor,competitor,1,2.694
1,233,perceptual,0.03,0.2,no_decoy,competitor,0,2.646
1,234,numeric,0.1,0.05,target,competitor,1,2.669
1,235,perceptual,0.03,0.2,no_decoy,target,0,2.254
1,236,numeric,0.03,0.05,competitor,target,0,2.724
1,237,perceptual,0.1,0.05,target,decoy,1,2.389
1,238,perceptual,0.03,0.2,target,target,0,2.726
1,239,perceptual,0.03,0.2,competitor,target,0,3.29
1,240,perceptual,0.1,0.2,no_decoy,competitor,0,2.22
1,241,perceptual,0.03,0.2,no_decoy,target,1,2.956
1,242,numeric,0.1,0.05,competitor,decoy,0,3.158
1,243,numeric,0.03,0.2,no_decoy,target,0,2.082
1,244,perceptual,0.1,0.05,competitor,target,0,2.255
1,245,numeric,0.03,0.2,target,decoy,1,2.321
1,246,perceptual,0.1,0.2,no_decoy,target,0,2.453
1,247,perceptual,0.03,0.2,target,competitor,0,1.902
1,248,numeric,0.1,0.05,competitor,target,1,3.642
1,249,perceptual,0.03,0.05,competitor,decoy,1,2.185
1,250,numeric,0.1,0.2,target,decoy,0,2.053
1,251,numeric,0.03,0.2,competitor,decoy,1,2.396
1,252,numeric,0.1,0.05,competitor,competitor,1,2.388
1,253,numeric,0.1,0.2,competitor,competitor,0,2.263
1,254,perceptual,0.03,0.05,target,competitor,0,2.649
1,255,perceptual,0.03,0.2,no_decoy,competitor,1,2.265
1,256,perceptual,0.1,0.05,competitor,competitor,0,3.066
1,257,perceptual,0.03,0.05,target,competitor,0,2.302
1,258,numeric,0.1,0.2,no_decoy,target,1,2.153
1,259,perceptual,0.1,0.05,no_decoy,competitor,1,1.787
1,260,perceptual,0.1,0.05,no_decoy,competitor,1,2.231
1,261,perceptual,0.03,0.2,competitor,decoy,0,2.66
1,262,numeric,0.03,0.2,competitor,decoy,1,2.335
1,263,perceptual,0.03,0.05,no_decoy,competitor,0,2.362
1,264,perceptual,0.03,0.2,no_decoy,target,0,2.034
1,265,perceptual,0.03,0.2,target,decoy,0,2.315
1,266,perceptual,0.03,0.2,competitor,decoy,0,2.048
1,267,numeric,0.03,0.05,competitor,target,0,2.885
1,268,numeric,0.1,0.05,no_decoy,competitor,1,2.702
1,269,numeric,0.1,0.05,no_decoy,competitor,1,2.057
1,270,perceptual,0.03,0.2,competitor,target,1,1.987
1,271,numeric,0.1,0.05,no_decoy,target,0,2.387
1,272,perceptual,0.03,0.05,target,target,0,1.852
1,273,perceptual,0.1,0.2,target,target,1,1.806
1,274,perceptual,0.03,0.05,competitor,target,1,2.154
1,275,numeric,0.03,0.2,target,competitor,0,2.879
1,276,numeric,0.03,0.05,no_decoy,competitor,0,1.823
1,277,numeric,0.1,0.05,target,decoy,0,2.271
1,278,perceptual,0.03,0.2,target,competitor,1,2.022
1,279,perceptual,0.1,0.05,competitor,decoy,1,2.109
1,280,numeric,0.1,0.2,competitor,target,0,2.18
1,281,numeric,0.03,0.2,competitor,decoy,0,1.745
1,282,perceptual,0.03,0.05,no_decoy,competitor,1,2.306
1,283,numeric,0.1,0.05,competitor,competitor,0,2.046
1,284,numeric,0.1,0.05,competitor,decoy,1,2.421
1,285,perceptual,0.1,0.2,competitor,target,0,2.382
1,286,perceptual,0.1,0.2,target,competitor,0,2.345
1,287,numeric,0.03,0.05,competitor,decoy,0,1.98
1,288,numeric,0.03,0.2,no_decoy,competitor,1,1.86
2,1,perceptual,0.1,0.05,no_decoy,competitor,1,12.395
2,2,perceptual,0.03,0.2,competitor,target,0,18.118
2,3,perceptual,0.1,0.2,target,target,0,9.796
2,4,perceptual,0.03,0.05,no_decoy,target,1,8.313
2,5,numeric,0.1,0.05,target,target,1,11.071
2,6,perceptual,0.03,0.2,target,decoy,1,10.743
2,7,perceptual,0.03,0.2,no_decoy,competitor,1,11.601
2,8,perceptual,0.03,0.2,competitor,competitor,0,19.34
2,9,perceptual,0.03,0.05,no_decoy,target,0,6.294
2,10,numeric,0.03,0.05,competitor,decoy,1,18.292
2,11,perceptual,0.03,0.05,no_decoy,competitor,0,10.967
2,12,numeric,0.03,0.2,competitor,target,1,14.136
2,14,numeric,0.1,0.05,no_decoy,target,1,6.771
2,15,numeric,0.03,0.2,target,decoy,0,14.15
2,16,numeric,0.03,0.05,no_decoy,target,1,5.292
2,17,numeric,0.1,0.2,competitor,target,0,11.536
2,18,perceptual,0.1,0.2,target,target,1,9.118
2,19,perceptual,0.1,0.2,target,target,1,10.302
2,20,numeric,0.1,0.2,target,target,1,10.181
2,21,numeric,0.03,0.05,competitor,competitor,1,8.836
2,22,perceptual,0.1,0.2,target,target,1,7.124
2,23,numeric,0.1,0.2,target,target,1,9.189
2,24,perceptual,0.03,0.05,competitor,decoy,1,8.368
2,25,perceptual,0.03,0.05,competitor,target,1,10.942
2,26,numeric,0.1,0.05,target,competitor,1,14.118
2,27,perceptual,0.1,0.2,no_decoy,target,1,4.933
2,28,perceptual,0.1,0.05,target,decoy,0,11.163
2,29,numeric,0.03,0.2,no_decoy,competitor,1,10.628
2,30,perceptual,0.03,0.2,competitor,competitor,0,8.959
2,31,perceptual,0.1,0.2,target,target,1,11.988
2,32,numeric,0.03,0.2,target,competitor,1,6.536
2,33,perceptual,0.1,0.2,target,competitor,1,8.558
2,34,perceptual,0.1,0.05,competitor,target,1,7.901
2,35,numeric,0.1,0.2,competitor,competitor,1,12.006
2,36,perceptual,0.03,0.05,target,decoy,1,15.034
2,37,perceptual,0.1,0.2,no_decoy,competitor,1,6.013
2,38,numeric,0.1,0.2,no_decoy,target,1,4.28
2,39,perceptual,0.1,0.2,target,target,1,11.092
2,40,numeric,0.1,0.05,no_decoy,target,1,9.19
2,41,numeric,0.03,0.05,no_decoy,competitor,1,6.016
2,42,numeric,0.1,0.05,competitor,competitor,1,10.516
2,43,perceptual,0.1,0.2,no_decoy,target,1,3.992
2,44,perceptual,0.03,0.05,target,competitor,0,10.66
2,45,numeric,0.03,0.2,competitor,competitor,1,15.637
2,46,perceptual,0.03,0.05,competitor,decoy,1,12.055
2,47,numeric,0.1,0.2,target,target,1,13.36
2,48,numeric,0.03,0.05,competitor,decoy,0,18.95
2,49,numeric,0.03,0.05,competitor,competitor,1,9.853
2,50,numeric,0.03,0.05,target,decoy,1,15.8
2,51,numeric,0.03,0.2,target,competitor,0,15.515
2,52,numeric,0.1,0.05,target,target,0,0.241
2,53,perceptual,0.1,0.05,competitor,target,0,12.655
2,54,perceptual,0.1,0.05,target,target,0,7.626
2,55,perceptual,0.03,0.05,target,target,0,6.121
2,56,numeric,0.1,0.2,competitor,target,1,14.472
2,57,numeric,0.1,0.2,competitor,competitor,1,9.965
2,58,perceptual,0.03,0.05,no_decoy,competitor,0,7.267
2,59,perceptual,0.03,0.2,competitor,target,0,6.744
2,60,perceptual,0.03,0.2,target,competitor,0,8.665
2,61,perceptual,0.1,0.05,no_decoy,competitor,1,4.743
2,62,numeric,0.03,0.05,target,competitor,1,13.092
2,63,numeric,0.1,0.2,no_decoy,target,0,7.78
2,64,perceptual,0.03,0.2,competitor,competitor,1,7.214
2,65,perceptual,0.1,0.05,competitor,competitor,1,7.888
2,66,numeric,0.1,0.2,no_decoy,target,1,6.502
2,67,numeric,0.1,0.05,competitor,target,1,15.698
2,68,perceptual,0.03,0.2,no_decoy,target,0,7.48
2,69,perceptual,0.03,0.05,competitor,decoy,1,8.856
2,70,perceptual,0.1,0.2,no_decoy,target,1,4.912
2,71,numeric,0.03,0.05,no_decoy,competitor,1,6.439
2,72,perceptual,0.03,0.2,target,decoy,1,6.45
2,73,perceptual,0.03,0.2,competitor,decoy,0,4.591
2,74,perceptual,0.1,0.2,no_decoy,target,0,4.304
2,75,perceptual,0.03,0.05,target,target,1,5.909
2,76,numeric,0.1,0.2,target,target,1,10.397
2,77,numeric,0.03,0.2,no_decoy,target,1,3.958
2,78,perceptual,0.03,0.05,no_decoy,target,1,6.156
2,79,numeric,0.03,0.2,no_decoy,target,0,8.015
2,80,numeric,0.03,0.05,target,target,0,14.956
2,81,perceptual,0.03,0.2,competitor,target,0,4.602
2,82,perceptual,0.03,0.05,competitor,decoy,0,4.533
2,83,perceptual,0.03,0.05,target,target,0,6.259
2,84,perceptual,0.1,0.2,no_decoy,competitor,1,3.269
2,85,numeric,0.03,0.2,competitor,target,1,4.87
2,86,perceptual,0.1,0.05,competitor,decoy,1,6.332
2,87,perceptual,0.03,0.2,target,target,1,8.016
2,88,perceptual,0.03,0.2,target,competitor,1,6.944
2,89,numeric,0.03,0.2,target,target,0,5.985
2,90,numeric,0.1,0.05,competitor,competitor,1,9.194
2,91,numeric,0.03,0.05,target,decoy,0,10.586
2,92,numeric,0.03,0.2,target,target,0,10.686
2,93,numeric,0.03,0.05,no_decoy,competitor,1,4.929
2,94,numeric,0.1,0.05,competitor,competitor,1,15.233
2,95,perceptual,0.03,0.05,no_decoy,competitor,1,5.005
2,96,numeric,0.03,0.2,competitor,target,1,9.055
2,97,numeric,0.03,0.05,target,target,1,11.003
2,98,perceptual,0.1,0.2,competitor,competitor,1,7.925
2,99,numeric,0.1,0.2,competitor,decoy,1,6.422
2,100,numeric,0.1,0.05,competitor,competitor,1,12.301
2,101,perceptual,0.1,0.2,competitor,competitor,1,5.337
2,102,perceptual,0.03,0.2,no_decoy,competitor,0,3.253
2,103,numeric,0.1,0.05,no_decoy,competitor,1,5.651
2,104,numeric,0.03,0.2,target,decoy,0,17.445
2,105,perceptual,0.03,0.05,target,competitor,0,7.316
2,106,numeric,0.1,0.05,target,decoy,1,8.567
2,107,numeric,0.1,0.2,no_decoy,competitor,1,3.49
2,108,perceptual,0.03,0.05,no_decoy,competitor,1,4.444
2,109,numeric,0.1,0.2,no_decoy,competitor,1,5.538
2,110,numeric,0.03,0.05,no_decoy,competitor,1,4.692
2,111,numeric,0.1,0.05,target,competitor,1,15.153
2,112,perceptual,0.1,0.05,target,target,1,4.083
2,113,numeric,0.03,0.2,no_decoy,competitor,1,3.613
2,114,numeric,0.1,0.2,target,competitor,1,6.607
2,115,perceptual,0.1,0.2,competitor,target,1,6.421
2,116,numeric,0.03,0.2,target,target,0,8.752
2,117,numeric,0.1,0.2,competitor,decoy,0,12.838
2,118,numeric,0.03,0.05,target,competitor,1,12.574
2,119,perceptual,0.1,0.2,target,decoy,1,9.416
2,120,numeric,0.1,0.05,no_decoy,competitor,1,9.279
2,121,perceptual,0.1,0.05,no_decoy,competitor,1,8.345
2,122,perceptual,0.1,0.05,no_decoy,competitor,1,5.459
2,123,numeric,0.03,0.2,no_decoy,competitor,0,6.661
2,124,perceptual,0.1,0.2,competitor,competitor,1,11.12
2,125,perceptual,0.03,0.2,no_decoy,target,1,3.61
2,126,numeric,0.1,0.05,target,decoy,1,11.074
2,127,numeric,0.1,0.2,competitor,target,1,7.992
2,128,numeric,0.03,0.05,no_decoy,target,0,6.467
2,129,perceptual,0.03,0.2,no_decoy,target,1,3.879
2,130,perceptual,0.1,0.05,no_decoy,target,1,8.854
2,131,numeric,0.1,0.05,competitor,competitor,1,8.427
2,132,numeric,0.1,0.2,no_decoy,target,1,7.078
2,133,numeric,0.03,0.05,competitor,target,0,11.645
2,134,numeric,0.1,0.05,no_decoy,target,1,6.36
2,135,numeric,0.1,0.2,competitor,target,1,10.053
2,136,perceptual,0.1,0.2,target,target,1,8.758
2,137,numeric,0.03,0.2,no_decoy,target,1,5.799
2,138,numeric,0.03,0.05,target,target,0,9.832
2,139,numeric,0.03,0.2,target,target,0,12.7
2,140,perceptual,0.03,0.2,target,decoy,1,15.045
2,141,perceptual,0.03,0.2,target,decoy,0,8.734
2,142,perceptual,0.1,0.2,competitor,target,1,11.954
2,143,numeric,0.03,0.05,no_decoy,target,0,8.953
2,144,numeric,0.1,0.05,no_decoy,competitor,1,10.335
2,145,numeric,0.1,0.05,no_decoy,target,1,5.784
2,146,perceptual,0.1,0.05,target,decoy,1,12.478
2,147,numeric,0.1,0.2,target,competitor,1,9.248
2,148,numeric,0.1,0.2,no_decoy,target,1,5.972
2,149,numeric,0.03,0.2,no_decoy,competitor,1,8.817
2,150,numeric,0.1,0.2,competitor,competitor,1,9.466
2,151,numeric,0.1,0.05,competitor,target,1,8.836
2,152,perceptual,0.1,0.05,no_decoy,competitor,0,6.891
2,153,numeric,0.03,0.05,competitor,decoy,1,8.963
2,154,perceptual,0.1,0.05,competitor,target,1,8.504
2,155,numeric,0.1,0.05,competitor,target,1,15.988
2,156,perceptual,0.03,0.2,target,decoy,1,7.641
2,157,numeric,0.1,0.05,competitor,competitor,1,10.952
2,158,numeric,0.03,0.2,target,decoy,1,16.186
2,159,numeric,0.03,0.05,target,target,0,13.536
2,160,numeric,0.1,0.2,target,competitor,1,14.442
2,161,numeric,0.1,0.2,competitor,decoy,1,6.257
2,162,perceptual,0.03,0.2,no_decoy,competitor,0,4.444
2,163,perceptual,0.1,0.05,target,decoy,0,10.8
2,164,numeric,0.03,0.2,target,decoy,1,7.007
2,165,perceptual,0.03,0.05,no_decoy,competitor,1,5.779
2,166,perceptual,0.03,0.2,competitor,target,1,8.331
2,167,perceptual,0.1,0.05,competitor,decoy,0,13.817
2,168,perceptual,0.1,0.2,target,competitor,1,6.589
2,169,perceptual,0.03,0.05,target,competitor,1,11.599
2,170,perceptual,0.1,0.05,no_decoy,target,1,4.977
2,172,numeric,0.1,0.05,no_decoy,target,0,5.274
2,173,perceptual,0.1,0.2,no_decoy,target,1,3.3
2,174,perceptual,0.1,0.2,competitor,target,1,3.86
2,175,perceptual,0.1,0.2,competitor,decoy,1,6.505
2,176,numeric,0.03,0.05,competitor,target,1,6.402
2,177,perceptual,0.03,0.2,competitor,target,1,3.801
2,178,perceptual,0.03,0.2,target,decoy,1,4.098
2,179,numeric,0.03,0.2,no_decoy,target,1,5.733
2,180,perceptual,0.1,0.05,competitor,competitor,1,5.553
2,181,numeric,0.1,0.2,no_decoy,competitor,0,4.473
2,182,perceptual,0.1,0.05,competitor,competitor,1,9.1
2,183,numeric,0.1,0.05,target,competitor,0,10.769
2,184,perceptual,0.1,0.2,competitor,competitor,1,5.387
2,185,numeric,0.1,0.2,no_decoy,competitor,1,6.493
2,186,perceptual,0.03,0.05,competitor,decoy,1,10.605
2,187,numeric,0.03,0.05,no_decoy,target,1,11.237
2,188,numeric,0.03,0.2,competitor,competitor,1,7.101
2,189,perceptual,0.1,0.2,competitor,target,1,11.827
2,190,numeric,0.03,0.05,target,competitor,1,6.3
2,191,perceptual,0.03,0.05,target,target,1,11.228
2,192,numeric,0.03,0.2,competitor,target,1,6.745
2,193,perceptual,0.03,0.05,no_decoy,target,1,4.1
2,194,perceptual,0.1,0.2,no_decoy,target,1,3.478
2,195,numeric,0.1,0.05,no_decoy,competitor,1,4.705
2,196,numeric,0.03,0.2,competitor,target,1,9.872
2,197,numeric,0.1,0.2,no_decoy,target,1,3.477
2,198,perceptual,0.1,0.05,no_decoy,competitor,0,5.424
2,199,perceptual,0.03,0.2,no_decoy,target,1,4.99
2,200,numeric,0.1,0.05,competitor,decoy,1,6.016
2,201,perceptual,0.03,0.05,target,target,1,7.92
2,202,perceptual,0.03,0.2,target,target,1,4.894
2,203,perceptual,0.1,0.05,target,decoy,1,5.114
2,204,numeric,0.1,0.05,no_decoy,target,1,6.33
2,205,numeric,0.03,0.05,no_decoy,competitor,0,6.12
2,206,perceptual,0.03,0.2,competitor,decoy,1,8.394
2,207,perceptual,0.1,0.2,competitor,decoy,1,10.389
2,208,perceptual,0.03,0.2,target,target,1,7.323
2,209,perceptual,0.03,0.05,competitor,competitor,1,6.992
2,210,perceptual,0.03,0.05,no_decoy,target,0,5.747
2,211,perceptual,0.1,0.05,target,competitor,1,4.287
2,212,perceptual,0.03,0.05,no_decoy,target,1,5.371
2,213,perceptual,0.03,0.2,competitor,target,1,4.993
2,214,numeric,0.1,0.05,competitor,target,1,6.709
2,215,perceptual,0.1,0.05,competitor,decoy,1,3.731
2,216,numeric,0.03,0.05,no_decoy,target,1,5.468
2,217,perceptual,0.03,0.05,competitor,decoy,1,12.054
2,218,numeric,0.03,0.05,competitor,decoy,1,8.488
2,219,numeric,0.03,0.2,target,decoy,1,8.028
2,220,numeric,0.03,0.05,target,competitor,0,10.278
2,221,numeric,0.1,0.2,target,target,0,7.111
2,222,numeric,0.03,0.2,no_decoy,competitor,0,7.153
2,223,numeric,0.03,0.05,target,decoy,0,11.894
2,224,numeric,0.03,0.05,competitor,target,1,10.656
2,225,perceptual,0.03,0.05,competitor,target,0,3.795
2,226,numeric,0.1,0.2,target,competitor,1,10.408
2,227,perceptual,0.03,0.2,no_decoy,competitor,0,4.255
2,228,numeric,0.03,0.05,target,competitor,0,9.369
2,229,perceptual,0.1,0.05,competitor,target,1,5.297
2,230,perceptual,0.03,0.2,no_decoy,competitor,1,6.714
2,231,numeric,0.03,0.2,target,competitor,1,8.346
2,232,perceptual,0.1,0.05,competitor,competitor,1,8.754
2,233,numeric,0.03,0.05,no_decoy,competitor,1,6.684
2,234,perceptual,0.03,0.05,target,decoy,0,7
2,235,perceptual,0.1,0.05,target,target,0,7.158
2,236,numeric,0.03,0.2,competitor,competitor,1,10.649
2,237,perceptual,0.03,0.2,no_decoy,competitor,1,4.44
2,238,perceptual,0.1,0.2,target,target,1,4.148
2,239,numeric,0.03,0.2,competitor,decoy,1,8.408
2,240,perceptual,0.1,0.05,no_decoy,competitor,1,9.029
2,241,numeric,0.03,0.2,no_decoy,competitor,1,7.475
2,242,numeric,0.03,0.05,no_decoy,competitor,1,6.617
2,243,perceptual,0.03,0.05,no_decoy,competitor,1,5.862
2,244,numeric,0.1,0.2,no_decoy,competitor,0,7.52
2,245,numeric,0.1,0.05,target,decoy,1,9.599
2,246,numeric,0.1,0.05,target,target,1,12.204
2,247,numeric,0.03,0.05,competitor,decoy,1,9.143
2,248,perceptual,0.1,0.05,target,decoy,1,4.162
2,249,numeric,0.1,0.05,target,target,1,7.16
2,250,numeric,0.1,0.2,competitor,target,1,11.251
2,251,numeric,0.03,0.2,competitor,decoy,1,7.426
2,252,numeric,0.1,0.05,target,target,1,9.388
2,253,perceptual,0.03,0.05,competitor,decoy,0,6.439
2,254,perceptual,0.03,0.05,target,decoy,1,5.109
2,255,perceptual,0.03,0.2,no_decoy,target,0,5.36
2,256,perceptual,0.1,0.2,no_decoy,competitor,0,6.279
2,257,perceptual,0.1,0.2,competitor,decoy,1,7.225
2,258,perceptual,0.03,0.2,competitor,target,1,9.085
2,259,perceptual,0.1,0.05,no_decoy,competitor,1,4.445
2,260,perceptual,0.1,0.05,no_decoy,target,1,4.592
2,261,perceptual,0.1,0.05,target,competitor,1,8.898
2,262,numeric,0.1,0.2,target,decoy,0,10.676
2,263,numeric,0.03,0.2,competitor,competitor,1,12.521
2,264,perceptual,0.1,0.2,competitor,decoy,1,4.867
2,265,perceptual,0.1,0.05,target,decoy,1,5.525
2,266,numeric,0.03,0.2,no_decoy,target,1,4.487
2,267,numeric,0.1,0.2,target,target,1,7.742
2,268,perceptual,0.1,0.05,competitor,competitor,1,10.027
2,269,numeric,0.03,0.05,competitor,target,1,10.502
2,270,numeric,0.03,0.05,competitor,target,1,13.9
2,271,perceptual,0.1,0.2,no_decoy,competitor,1,4.965
2,272,perceptual,0.03,0.05,target,competitor,1,7.681
2,273,perceptual,0.03,0.2,no_decoy,target,0,4.526
2,274,numeric,0.1,0.05,no_decoy,target,1,5.806
2,275,numeric,0.1,0.2,no_decoy,competitor,1,5.41
2,276,perceptual,0.03,0.2,target,target,1,8.594
2,277,perceptual,0.1,0.2,target,target,0,5.845
2,278,perceptual,0.03,0.05,competitor,target,1,6.62
2,279,perceptual,0.03,0.05,competitor,competitor,0,7.017
2,280,numeric,0.1,0.2,competitor,decoy,1,7.692
2,281,numeric,0.03,0.2,no_decoy,target,1,6.476
2,282,perceptual,0.1,0.05,no_decoy,competitor,1,4.414
2,283,perceptual,0.1,0.05,target,decoy,0,9.002
2,284,perceptual,0.1,0.2,no_decoy,competitor,1,2.94
2,285,perceptual,0.1,0.2,no_decoy,competitor,1,2.729
2,286,numeric,0.1,0.05,no_decoy,competitor,1,4.552
2,287,numeric,0.1,0.2,target,decoy,1,11.449
2,288,numeric,0.1,0.05,competitor,competitor,1,10.107
3,1,perceptual,0.03,0.2,target,target,0,7.346
3,2,numeric,0.03,0.2,no_decoy,competitor,1,8.466
3,3,perceptual,0.03,0.05,competitor,competitor,0,7.79
3,4,numeric,0.1,0.2,competitor,competitor,1,9.71
3,5,numeric,0.1,0.2,competitor,target,0,10.074
3,6,numeric,0.03,0.2,no_decoy,competitor,0,10.107
3,8,perceptual,0.03,0.2,no_decoy,target,1,5.89
3,9,numeric,0.03,0.05,competitor,decoy,1,8.411
3,10,perceptual,0.03,0.05,target,decoy,1,7.976
3,11,perceptual,0.1,0.2,target,target,1,8.354
3,12,numeric,0.03,0.05,competitor,target,1,13.117
3,13,perceptual,0.03,0.2,competitor,target,0,6.163
3,14,numeric,0.03,0.05,target,decoy,1,8.828
3,15,perceptual,0.1,0.2,target,decoy,0,8.959
3,16,perceptual,0.1,0.05,no_decoy,competitor,1,4.495
3,17,perceptual,0.03,0.05,target,competitor,0,5.602
3,18,perceptual,0.1,0.2,target,target,0,5.889
3,19,perceptual,0.1,0.2,competitor,target,1,7.493
3,20,numeric,0.03,0.05,target,target,0,13.965
3,21,numeric,0.03,0.2,no_decoy,competitor,0,7.065
3,22,numeric,0.03,0.2,target,competitor,1,9.173
3,23,perceptual,0.03,0.05,no_decoy,competitor,1,4.627
3,24,perceptual,0.1,0.05,no_decoy,competitor,1,5.123
3,25,perceptual,0.03,0.05,competitor,decoy,1,8.461
3,26,perceptual,0.1,0.2,competitor,decoy,1,6.576
3,27,numeric,0.03,0.05,no_decoy,target,1,6.412
3,28,numeric,0.03,0.2,competitor,decoy,1,9.875
3,29,numeric,0.03,0.2,competitor,target,1,8.096
3,30,perceptual,0.1,0.2,no_decoy,competitor,0,4.661
3,31,numeric,0.1,0.2,competitor,decoy,1,10.13
3,32,numeric,0.03,0.2,target,competitor,1,8.674
3,33,perceptual,0.03,0.05,competitor,competitor,1,6.981
3,34,numeric,0.1,0.2,target,target,1,8.551
3,35,perceptual,0.1,0.2,competitor,decoy,1,6.844
3,36,perceptual,0.1,0.2,competitor,competitor,1,5.929
3,37,numeric,0.03,0.05,competitor,decoy,1,11.329
3,38,perceptual,0.03,0.2,no_decoy,competitor,1,5.459
3,39,numeric,0.03,0.05,target,target,1,9.766
3,40,perceptual,0.1,0.05,target,target,1,8.277
3,41,numeric,0.1,0.05,target,decoy,1,12.239
3,42,perceptual,0.1,0.05,target,competitor,1,9.576
3,43,numeric,0.1,0.05,target,decoy,1,7.619
3,44,perceptual,0.1,0.05,target,decoy,0,8.288
3,45,numeric,0.03,0.05,target,decoy,1,9.648
3,46,perceptual,0.1,0.2,target,decoy,1,7.338
3,47,numeric,0.1,0.05,competitor,decoy,1,10.602
3,48,perceptual,0.03,0.2,target,target,0,5.341
3,49,perceptual,0.03,0.2,no_decoy,competitor,0,6.003
3,50,perceptual,0.1,0.2,target,decoy,1,8.846
3,51,perceptual,0.03,0.05,target,target,0,6.557
3,52,perceptual,0.03,0.05,target,competitor,0,7.105
3,53,perceptual,0.03,0.2,competitor,target,0,7.674
3,54,perceptual,0.03,0.05,competitor,competitor,1,6.149
3,55,numeric,0.03,0.2,competitor,decoy,1,9.165
3,56,numeric,0.1,0.05,no_decoy,competitor,0,9.111
3,57,perceptual,0.03,0.2,no_decoy,competitor,1,5.618
3,58,numeric,0.1,0.2,target,competitor,1,8.652
3,59,numeric,0.03,0.2,competitor,decoy,1,11.009
3,60,perceptual,0.1,0.05,no_decoy,competitor,1,4.343
3,61,numeric,0.1,0.05,target,decoy,1,10.936
3,62,numeric,0.1,0.05,no_decoy,target,1,8.847
3,63,perceptual,0.1,0.05,no_decoy,target,1,8.051
3,64,numeric,0.1,0.05,target,decoy,1,9.447
3,65,perceptual,0.1,0.2,target,decoy,0,5.149
3,66,numeric,0.03,0.05,no_decoy,competitor,0,9.367
3,67,numeric,0.1,0.05,target,competitor,1,12.498
3,68,perceptual,0.1,0.05,competitor,decoy,1,6.691
3,69,numeric,0.03,0.05,competitor,target,1,9.224
3,70,numeric,0.03,0.05,no_decoy,competitor,0,5.221
3,71,numeric,0.03,0.05,no_decoy,competitor,0,12.202
3,72,numeric,0.1,0.2,competitor,decoy,0,12.19
3,73,numeric,0.1,0.2,no_decoy,target,1,6.992
3,74,numeric,0.03,0.2,no_decoy,competitor,1,5.629
3,75,perceptual,0.1,0.05,competitor,decoy,1,5.945
3,76,numeric,0.03,0.2,competitor,decoy,1,9.502
3,77,numeric,0.1,0.2,target,target,1,9.484
3,78,perceptual,0.1,0.2,no_decoy,target,1,4.52
3,79,numeric,0.1,0.2,competitor,target,1,7.959
3,80,perceptual,0.03,0.2,competitor,decoy,1,10.535
3,81,perceptual,0.1,0.2,competitor,target,1,5.039
3,82,perceptual,0.1,0.2,competitor,competitor,1,4.571
3,83,numeric,0.1,0.05,no_decoy,target,1,6.493
3,84,numeric,0.1,0.05,no_decoy,competitor,0,5.301
3,85,numeric,0.03,0.2,competitor,target,1,8.779
3,86,perceptual,0.03,0.05,target,decoy,1,6.175
3,87,numeric,0.1,0.05,no_decoy,competitor,0,9.305
3,88,numeric,0.1,0.05,no_decoy,competitor,0,6.266
3,89,perceptual,0.1,0.05,no_decoy,target,1,6.409
3,90,perceptual,0.1,0.05,target,competitor,1,11.024
3,91,perceptual,0.1,0.05,competitor,target,1,4.806
3,92,perceptual,0.1,0.2,competitor,decoy,0,8.846
3,93,numeric,0.03,0.05,target,decoy,1,11.818
3,94,perceptual,0.1,0.2,competitor,competitor,1,6.518
3,95,numeric,0.03,0.05,no_decoy,target,0,10.202
3,96,numeric,0.03,0.2,no_decoy,competitor,1,7.725
3,97,numeric,0.03,0.2,competitor,competitor,1,13.248
3,98,perceptual,0.1,0.05,competitor,competitor,1,6.776
3,99,perceptual,0.03,0.2,target,decoy,1,5.833
3,100,numeric,0.1,0.05,no_decoy,target,0,10.041
3,101,perceptual,0.1,0.05,competitor,decoy,1,7.188
3,102,numeric,0.1,0.2,target,decoy,1,12.071
3,103,numeric,0.03,0.05,no_decoy,competitor,1,4.2
3,104,perceptual,0.1,0.2,no_decoy,competitor,1,3.764
3,105,numeric,0.03,0.2,target,decoy,0,9.984
3,106,perceptual,0.1,0.2,target,competitor,1,4.739
3,107,numeric,0.03,0.2,no_decoy,competitor,1,4.658
3,108,numeric,0.1,0.2,target,competitor,0,7.477
3,109,numeric,0.1,0.2,no_decoy,target,1,4.493
3,110,perceptual,0.1,0.2,no_decoy,competitor,1,3.862
3,111,perceptual,0.03,0.05,target,competitor,1,7.66
3,112,numeric,0.03,0.05,competitor,target,1,8.684
3,113,perceptual,0.03,0.2,no_decoy,target,0,3.782
3,114,perceptual,0.03,0.2,competitor,competitor,0,6.381
3,115,perceptual,0.03,0.2,target,target,1,6.777
3,116,numeric,0.03,0.2,target,decoy,0,7.658
3,117,numeric,0.1,0.2,no_decoy,competitor,0,7.959
3,118,numeric,0.03,0.05,competitor,target,0,8.396
3,119,numeric,0.1,0.05,no_decoy,competitor,1,5.59
3,120,numeric,0.03,0.05,target,competitor,1,9.492
3,121,perceptual,0.03,0.2,target,target,1,9.576
3,122,perceptual,0.1,0.2,competitor,target,1,5.467
3,123,perceptual,0.03,0.2,competitor,competitor,0,9.129
3,124,numeric,0.03,0.2,target,decoy,0,8.513
3,125,perceptual,0.1,0.05,target,target,0,6.268
3,126,numeric,0.03,0.05,no_decoy,competitor,1,5.485
3,127,numeric,0.1,0.2,no_decoy,competitor,1,9.104
3,128,numeric,0.1,0.2,no_decoy,competitor,1,8.125
3,129,numeric,0.1,0.2,no_decoy,competitor,1,4.539
3,130,numeric,0.03,0.05,target,decoy,0,11.689
3,131,perceptual,0.03,0.2,no_decoy,competitor,0,5.113
3,132,perceptual,0.03,0.05,target,decoy,1,9.137
3,133,numeric,0.03,0.05,target,decoy,1,7.098
3,134,numeric,0.1,0.2,competitor,decoy,1,7.537
3,135,numeric,0.1,0.05,competitor,decoy,1,7.653
3,136,numeric,0.03,0.2,target,target,0,6.601
3,137,perceptual,0.03,0.05,competitor,target,0,7.974
3,138,perceptual,0.03,0.05,target,decoy,1,5.73
3,139,perceptual,0.03,0.2,target,target,0,7.595
3,140,perceptual,0.1,0.2,no_decoy,competitor,1,4.235
3,141,numeric,0.1,0.05,competitor,target,1,10.173
3,142,perceptual,0.03,0.05,target,target,0,8.246
3,143,numeric,0.1,0.05,target,target,0,9.619
3,144,perceptual,0.1,0.05,no_decoy,target,1,4.185
3,145,numeric,0.1,0.05,competitor,competitor,1,8.211
3,146,perceptual,0.1,0.2,target,decoy,1,6.541
3,147,perceptual,0.1,0.05,no_decoy,target,1,3.634
3,148,numeric,0.1,0.05,competitor,target,1,8.188
3,149,numeric,0.1,0.2,no_decoy,competitor,1,10.604
3,150,numeric,0.1,0.2,competitor,decoy,1,9.888
3,151,perceptual,0.03,0.2,competitor,competitor,0,5.781
3,152,numeric,0.1,0.05,no_decoy,competitor,1,4.745
3,153,perceptual,0.03,0.2,no_decoy,target,1,6.86
3,154,perceptual,0.03,0.2,target,competitor,1,8.175
3,155,numeric,0.1,0.05,no_decoy,competitor,1,5.612
3,156,perceptual,0.03,0.2,target,decoy,1,11.288
3,157,numeric,0.03,0.2,target,competitor,1,7.451
3,158,numeric,0.1,0.2,competitor,competitor,1,6.89
3,159,perceptual,0.03,0.2,competitor,target,1,8.097
3,160,numeric,0.03,0.05,target,decoy,1,9.507
3,161,perceptual,0.1,0.05,target,competitor,1,8.223
3,162,perceptual,0.03,0.2,competitor,competitor,1,5.464
3,163,perceptual,0.1,0.05,no_decoy,competitor,1,5.922
3,164,numeric,0.03,0.2,no_decoy,target,1,4.392
3,165,perceptual,0.03,0.2,no_decoy,competitor,1,5.394
3,166,numeric,0.03,0.05,competitor,competitor,1,9.762
3,167,perceptual,0.03,0.05,competitor,competitor,1,8.712
3,168,numeric,0.1,0.05,competitor,competitor,1,13.595
3,169,numeric,0.03,0.2,competitor,target,1,12.941
3,170,perceptual,0.03,0.2,competitor,competitor,1,5.944
3,171,numeric,0.03,0.05,no_decoy,competitor,0,5.245
3,172,numeric,0.1,0.05,target,target,1,9.768
3,173,perceptual,0.03,0.05,competitor,competitor,0,7.906
3,174,perceptual,0.1,0.05,competitor,decoy,1,5.722
3,175,numeric,0.1,0.05,target,decoy,1,12.863
3,176,perceptual,0.1,0.2,no_decoy,target,1,3.758
3,177,numeric,0.1,0.05,no_decoy,competitor,1,4.643
3,178,numeric,0.1,0.05,competitor,decoy,1,7.162
3,179,perceptual,0.1,0.05,target,target,1,8.978
3,180,perceptual,0.1,0.2,competitor,decoy,1,7.561
3,181,numeric,0.03,0.05,competitor,decoy,1,7.045
3,182,numeric,0.1,0.2,competitor,competitor,1,9.627
3,183,numeric,0.03,0.2,target,competitor,1,9.292
3,184,numeric,0.1,0.2,target,target,1,10.168
3,185,numeric,0.03,0.2,target,target,1,5.59
3,186,numeric,0.03,0.2,competitor,target,0,6.928
3,187,numeric,0.03,0.05,no_decoy,competitor,0,4.784
3,188,perceptual,0.1,0.2,no_decoy,competitor,1,7.175
3,189,numeric,0.03,0.05,target,decoy,0,6.471
3,190,perceptual,0.1,0.05,competitor,decoy,0,6.397
3,191,perceptual,0.03,0.05,no_decoy,target,1,8.119
3,192,perceptual,0.03,0.2,no_decoy,competitor,1,4.498
3,193,numeric,0.03,0.2,no_decoy,competitor,0,6.404
3,194,numeric,0.1,0.2,target,decoy,1,9.618
3,195,perceptual,0.1,0.05,competitor,decoy,0,7.42
3,196,perceptual,0.03,0.05,no_decoy,target,0,4.562
3,197,numeric,0.1,0.05,competitor,competitor,1,7.719
3,198,perceptual,0.03,0.2,target,target,1,5.478
3,199,numeric,0.1,0.05,target,decoy,1,8.377
3,200,perceptual,0.03,0.05,competitor,decoy,1,9.536
3,201,numeric,0.03,0.2,target,target,1,7.803
3,202,numeric,0.1,0.05,competitor,decoy,0,12.16
3,203,numeric,0.1,0.2,competitor,decoy,1,6.745
3,204,perceptual,0.03,0.2,no_decoy,competitor,1,6.525
3,205,perceptual,0.1,0.05,no_decoy,competitor,1,4.796
3,206,perceptual,0.1,0.05,target,target,0,10.447
3,207,perceptual,0.1,0.05,no_decoy,target,1,5.211
3,208,numeric,0.1,0.05,target,competitor,1,8.005
3,209,numeric,0.03,0.2,competitor,competitor,0,6.823
3,210,numeric,0.03,0.2,target,target,1,6.892
3,211,perceptual,0.03,0.05,no_decoy,target,0,6.091
3,212,numeric,0.1,0.05,competitor,decoy,1,8.896
3,213,perceptual,0.03,0.05,no_decoy,target,1,5.181
3,214,perceptual,0.1,0.05,no_decoy,competitor,1,3.952
3,215,perceptual,0.1,0.05,competitor,target,1,4.889
3,216,numeric,0.03,0.2,competitor,decoy,1,7.816
3,217,perceptual,0.1,0.05,competitor,decoy,1,7.768
3,218,perceptual,0.1,0.2,no_decoy,target,1,4.763
3,219,perceptual,0.1,0.2,no_decoy,competitor,1,4.689
3,220,perceptual,0.03,0.05,target,competitor,1,9.348
3,221,perceptual,0.03,0.2,target,competitor,0,4.642
3,222,perceptual,0.03,0.2,target,target,0,6.416
3,223,perceptual,0.03,0.2,competitor,competitor,1,7.07
3,224,perceptual,0.03,0.05,no_decoy,competitor,1,4.276
3,225,perceptual,0.03,0.05,no_decoy,competitor,0,3.499
3,226,perceptual,0.1,0.05,no_decoy,competitor,0,3.202
3,227,perceptual,0.03,0.05,competitor,decoy,0,7.456
3,228,numeric,0.1,0.05,no_decoy,competitor,1,4.795
3,229,numeric,0.1,0.05,competitor,decoy,0,5.845
3,230,numeric,0.03,0.2,target,competitor,1,11.098
3,231,perceptual,0.1,0.05,target,competitor,0,5.663
3,232,perceptual,0.03,0.05,no_decoy,competitor,1,4.426
3,233,perceptual,0.03,0.2,competitor,decoy,1,4.712
3,234,perceptual,0.03,0.05,target,decoy,1,8.561
3,235,numeric,0.1,0.2,no_decoy,target,0,8.06
3,236,numeric,0.1,0.2,target,competitor,0,5.747
3,237,perceptual,0.1,0.05,competitor,decoy,1,5.022
3,238,numeric,0.1,0.05,competitor,target,1,12.901
3,239,numeric,0.03,0.2,competitor,decoy,1,8.377
3,240,numeric,0.1,0.2,target,target,1,8.749
3,241,numeric,0.1,0.05,target,competitor,1,7.008
3,242,perceptual,0.03,0.2,no_decoy,target,1,4.212
3,243,numeric,0.1,0.2,target,competitor,0,7.863
3,244,numeric,0.03,0.05,competitor,target,1,9.847
3,245,perceptual,0.1,0.2,competitor,target,0,4.667
3,246,perceptual,0.03,0.05,competitor,decoy,0,5.416
3,247,numeric,0.1,0.2,no_decoy,competitor,1,7.362
3,248,numeric,0.03,0.05,competitor,decoy,1,6.6
3,249,numeric,0.1,0.2,competitor,competitor,1,6.787
3,250,perceptual,0.03,0.05,target,competitor,1,5.489
3,251,numeric,0.03,0.05,competitor,target,0,5.664
3,252,numeric,0.03,0.2,no_decoy,competitor,0,7.971
3,253,perceptual,0.03,0.2,target,decoy,1,6.314
3,254,perceptual,0.03,0.05,no_decoy,competitor,1,4.093
3,255,perceptual,0.1,0.05,competitor,decoy,0,8.128
3,256,perceptual,0.03,0.2,no_decoy,target,0,3.739
3,257,numeric,0.03,0.2,no_decoy,competitor,0,5.305
3,258,numeric,0.1,0.2,target,competitor,1,8.783
3,259,perceptual,0.1,0.2,target,competitor,1,4.029
3,260,perceptual,0.03,0.05,no_decoy,competitor,0,3.767
3,261,perceptual,0.1,0.2,no_decoy,target,1,4.545
3,262,perceptual,0.1,0.05,target,competitor,1,9.107
3,263,numeric,0.03,0.05,competitor,target,1,11.348
3,264,numeric,0.03,0.2,no_decoy,target,0,5.25
3,265,numeric,0.03,0.05,target,target,1,8.849
3,266,perceptual,0.03,0.05,competitor,target,0,8.932
3,267,numeric,0.1,0.2,no_decoy,competitor,0,4.661
3,268,numeric,0.03,0.05,no_decoy,competitor,1,6.072
3,269,numeric,0.1,0.2,no_decoy,target,1,4.6
3,270,numeric,0.03,0.05,no_decoy,competitor,0,3.84
3,271,numeric,0.03,0.2,no_decoy,competitor,0,4.743
3,272,perceptual,0.1,0.05,target,decoy,0,4.327
3,273,perceptual,0.03,0.05,competitor,competitor,0,5.699
3,274,numeric,0.1,0.2,competitor,target,0,6.046
3,275,perceptual,0.1,0.2,target,target,1,5.373
3,276,perceptual,0.1,0.2,no_decoy,target,1,3.911
3,277,numeric,0.1,0.2,target,decoy,1,13.858
3,278,perceptual,0.1,0.2,target,decoy,1,5.569
3,279,numeric,0.03,0.05,target,target,1,11.286
3,280,numeric,0.1,0.2,no_decoy,target,1,5.365
3,281,perceptual,0.03,0.2,competitor,competitor,1,5.698
3,282,perceptual,0.03,0.05,no_decoy,competitor,1,3.77
3,283,numeric,0.03,0.05,no_decoy,competitor,1,5.743
3,284,perceptual,0.03,0.05,no_decoy,competitor,0,6.808
3,285,perceptual,0.1,0.2,target,competitor,0,6.821
3,286,perceptual,0.1,0.2,no_decoy,target,1,3.178
3,287,perceptual,0.1,0.05,target,competitor,1,4.292
3,288,perceptual,0.1,0.2,competitor,competitor,1,3.891
4,1,perceptual,0.03,0.2,competitor,decoy,1,11.053
4,2,numeric,0.1,0.2,competitor,decoy,1,5.976
4,3,perceptual,0.1,0.2,no_decoy,target,1,4.27
4,4,perceptual,0.1,0.05,target,competitor,1,5.535
4,5,perceptual,0.1,0.05,target,decoy,1,5.01
4,6,perceptual,0.03,0.05,no_decoy,target,1,6.779
4,7,numeric,0.1,0.05,target,competitor,1,9.803
4,8,numeric,0.1,0.2,competitor,decoy,1,8.041
4,9,numeric,0.1,0.2,no_decoy,target,1,5.316
4,10,perceptual,0.1,0.05,target,competitor,1,3.956
4,11,perceptual,0.1,0.05,competitor,decoy,1,10.801
4,12,numeric,0.1,0.05,competitor,competitor,1,10.549
4,13,perceptual,0.03,0.2,target,target,1,12.022
4,14,perceptual,0.1,0.2,target,target,0,9.855
4,15,numeric,0.1,0.2,target,target,1,8.11
4,16,numeric,0.1,0.2,no_decoy,target,1,4.971
4,17,perceptual,0.03,0.2,target,target,1,6.106
4,18,perceptual,0.03,0.05,target,target,0,7.702
4,19,perceptual,0.03,0.05,target,target,0,5.074
4,20,perceptual,0.1,0.05,no_decoy,competitor,0,1.427
4,21,numeric,0.03,0.2,no_decoy,target,0,7.364
4,22,numeric,0.1,0.05,target,competitor,1,9.752
4,23,perceptual,0.1,0.2,competitor,target,1,5.357
4,24,perceptual,0.03,0.2,competitor,decoy,0,6.326
4,25,numeric,0.1,0.05,target,competitor,1,12.973
4,26,numeric,0.1,0.2,target,decoy,1,8.514
4,27,numeric,0.1,0.05,target,target,1,10.881
4,28,perceptual,0.03,0.05,target,competitor,1,6.429
4,29,perceptual,0.1,0.2,target,decoy,0,7.655
4,30,perceptual,0.1,0.05,no_decoy,competitor,1,3.364
4,31,perceptual,0.03,0.2,target,competitor,1,8.492
4,32,numeric,0.1,0.2,target,target,1,6.79
4,33,perceptual,0.03,0.05,competitor,competitor,0,6.859
4,34,numeric,0.03,0.2,no_decoy,target,1,7.236
4,35,perceptual,0.03,0.2,no_decoy,competitor,0,3.657
4,36,perceptual,0.03,0.05,target,target,0,7.862
4,37,perceptual,0.1,0.05,competitor,decoy,1,5.363
4,38,numeric,0.03,0.2,no_decoy,competitor,0,5.044
4,39,perceptual,0.1,0.05,competitor,competitor,1,4.769
4,40,numeric,0.03,0.2,target,target,1,15.412
4,41,numeric,0.1,0.2,competitor,decoy,0,11.397
4,42,perceptual,0.1,0.05,competitor,decoy,1,9.657
4,43,perceptual,0.1,0.2,competitor,decoy,1,7.527
4,44,perceptual,0.03,0.2,target,target,1,3.587
4,45,numeric,0.03,0.2,target,decoy,1,6.565
4,46,perceptual,0.1,0.05,target,competitor,0,4.516
4,47,numeric,0.03,0.05,target,decoy,0,6.936
4,48,perceptual,0.1,0.2,target,decoy,1,4.467
4,49,numeric,0.03,0.05,no_decoy,target,1,4.659
4,50,perceptual,0.03,0.2,competitor,competitor,0,4.011
4,51,numeric,0.03,0.05,target,competitor,1,10.773
4,52,perceptual,0.03,0.2,competitor,competitor,1,2.997
4,53,perceptual,0.03,0.05,competitor,target,1,2.454
4,54,perceptual,0.1,0.05,no_decoy,target,0,3.606
4,55,perceptual,0.03,0.05,target,competitor,1,6.33
4,56,numeric,0.1,0.05,no_decoy,competitor,0,7.178
4,57,numeric,0.03,0.2,no_decoy,competitor,0,6.284
4,58,perceptual,0.03,0.05,target,decoy,0,7.78
4,59,perceptual,0.03,0.2,competitor,decoy,0,3.395
4,60,perceptual,0.1,0.2,no_decoy,target,1,4.243
4,61,numeric,0.1,0.2,competitor,target,1,11.451
4,62,numeric,0.03,0.05,target,target,0,11.784
4,63,perceptual,0.1,0.2,target,target,1,3.977
4,64,perceptual,0.03,0.2,target,target,0,4.172
4,65,perceptual,0.03,0.2,competitor,target,0,5.214
4,66,numeric,0.1,0.2,target,decoy,1,6.964
4,67,perceptual,0.03,0.05,competitor,competitor,1,5.197
4,68,perceptual,0.03,0.05,no_decoy,target,0,4.838
4,69,numeric,0.03,0.2,competitor,target,1,13.497
4,70,perceptual,0.03,0.2,competitor,decoy,1,5.18
4,71,numeric,0.03,0.05,competitor,competitor,0,5.954
4,72,numeric,0.03,0.2,target,target,0,9.35
4,73,numeric,0.03,0.2,competitor,competitor,0,11.146
4,74,perceptual,0.1,0.2,target,decoy,1,3.82
4,75,perceptual,0.1,0.05,target,decoy,0,3.485
4,76,numeric,0.03,0.05,no_decoy,target,1,6.015
4,77,numeric,0.03,0.2,target,target,1,8.042
4,78,numeric,0.03,0.05,competitor,decoy,1,4.752
4,79,perceptual,0.03,0.05,competitor,decoy,1,4.239
4,80,perceptual,0.1,0.2,target,target,1,4.422
4,81,perceptual,0.03,0.05,competitor,competitor,1,8.265
4,82,numeric,0.1,0.05,competitor,target,1,5.069
4,83,numeric,0.1,0.05,no_decoy,target,1,5.237
4,84,numeric,0.03,0.2,target,target,0,6.507
4,85,perceptual,0.03,0.2,no_decoy,competitor,1,6.353
4,86,numeric,0.1,0.2,competitor,decoy,0,4.65
4,87,perceptual,0.1,0.2,no_decoy,target,1,4.161
4,88,numeric,0.03,0.2,target,competitor,1,5.952
4,89,numeric,0.1,0.05,no_decoy,competitor,1,5.773
4,90,numeric,0.03,0.05,target,decoy,1,6.804
4,91,numeric,0.1,0.05,competitor,decoy,1,8.539
4,92,perceptual,0.1,0.2,target,decoy,1,5.046
4,93,numeric,0.1,0.05,no_decoy,target,1,5.847
4,94,numeric,0.03,0.2,target,competitor,1,6.751
4,95,perceptual,0.03,0.2,no_decoy,target,0,6.61
4,96,perceptual,0.1,0.2,competitor,decoy,1,4.061
4,97,perceptual,0.03,0.2,target,decoy,1,4.033
4,98,numeric,0.1,0.05,target,decoy,1,4.591
4,99,numeric,0.03,0.2,competitor,target,1,4.739
4,100,perceptual,0.03,0.05,target,decoy,1,5.53
4,101,perceptual,0.1,0.2,no_decoy,target,1,3.599
4,102,perceptual,0.1,0.2,competitor,competitor,1,4.624
4,103,perceptual,0.1,0.2,competitor,decoy,1,4.273
4,104,numeric,0.1,0.2,no_decoy,target,1,5.116
4,105,perceptual,0.1,0.2,competitor,competitor,0,5.774
4,106,numeric,0.03,0.05,target,target,0,11.55
4,107,numeric,0.03,0.2,competitor,target,1,8.368
4,108,numeric,0.1,0.2,competitor,competitor,1,5.445
4,109,numeric,0.03,0.05,competitor,target,1,9.675
4,110,numeric,0.03,0.05,competitor,decoy,1,5.406
4,111,numeric,0.1,0.05,target,decoy,1,6.198
4,112,perceptual,0.1,0.05,target,competitor,1,3.857
4,113,perceptual,0.1,0.05,target,decoy,0,6.593
4,114,numeric,0.03,0.2,no_decoy,target,1,4.887
4,115,numeric,0.1,0.2,target,target,0,10.447
4,116,perceptual,0.03,0.05,no_decoy,competitor,1,3.143
4,117,numeric,0.1,0.2,competitor,competitor,1,4.848
4,118,numeric,0.03,0.05,competitor,decoy,0,5.245
4,119,perceptual,0.03,0.2,no_decoy,target,1,3.046
4,120,perceptual,0.03,0.05,no_decoy,target,0,4.239
4,121,perceptual,0.1,0.05,competitor,target,1,4.925
4,122,perceptual,0.1,0.05,no_decoy,competitor,1,2.963
4,123,numeric,0.1,0.2,no_decoy,target,1,6.852
4,124,numeric,0.03,0.05,no_decoy,competitor,1,9.404
4,125,perceptual,0.03,0.2,no_decoy,competitor,1,5.289
4,126,numeric,0.03,0.05,no_decoy,competitor,1,9.103
4,127,perceptual,0.1,0.2,competitor,target,1,4.507
4,128,numeric,0.1,0.05,target,target,1,5.197
4,129,numeric,0.03,0.2,target,competitor,1,7.587
4,130,numeric,0.1,0.2,no_decoy,target,1,7.089
4,131,perceptual,0.1,0.2,competitor,target,1,5.162
4,132,perceptual,0.1,0.2,competitor,competitor,1,4.982
4,133,numeric,0.1,0.05,competitor,decoy,0,5.063
4,134,numeric,0.1,0.05,target,target,1,4.562
4,135,numeric,0.1,0.05,target,decoy,0,6.681
4,136,numeric,0.1,0.05,no_decoy,target,1,4.472
4,137,numeric,0.03,0.05,no_decoy,target,1,4.603
4,138,numeric,0.1,0.2,target,competitor,1,5.91
4,139,perceptual,0.1,0.05,target,target,1,2.836
4,140,perceptual,0.03,0.05,competitor,competitor,1,5.358
4,141,numeric,0.1,0.05,no_decoy,competitor,1,3.489
4,142,numeric,0.1,0.2,target,competitor,1,4.73
4,143,numeric,0.03,0.05,target,competitor,1,5.014
4,144,numeric,0.03,0.05,no_decoy,competitor,1,3.22
4,145,numeric,0.03,0.05,no_decoy,target,1,4.024
4,146,numeric,0.1,0.05,competitor,competitor,0,0.258
4,147,perceptual,0.1,0.05,no_decoy,target,1,2.667
4,148,perceptual,0.1,0.05,no_decoy,competitor,1,2.67
4,149,perceptual,0.03,0.05,no_decoy,target,0,3.006
4,150,numeric,0.03,0.2,target,competitor,1,5.587
4,151,numeric,0.1,0.05,no_decoy,competitor,1,4.001
4,152,perceptual,0.03,0.2,no_decoy,competitor,0,2.627
4,153,perceptual,0.03,0.05,target,competitor,0,4.1
4,154,numeric,0.1,0.05,target,decoy,1,4.818
4,155,numeric,0.1,0.05,no_decoy,target,1,7.22
4,156,perceptual,0.03,0.05,competitor,target,0,3.61
4,157,numeric,0.1,0.2,no_decoy,competitor,1,3.284
4,158,perceptual,0.03,0.05,no_decoy,competitor,0,2.659
4,159,perceptual,0.03,0.05,no_decoy,target,0,4.078
4,160,numeric,0.1,0.05,competitor,target,0,6.27
4,161,numeric,0.1,0.2,competitor,competitor,1,4.457
4,162,numeric,0.03,0.2,competitor,decoy,0,7.958
4,163,numeric,0.03,0.2,no_decoy,competitor,0,3.589
4,164,numeric,0.03,0.05,no_decoy,competitor,1,4.86
4,165,perceptual,0.03,0.2,target,competitor,0,6.117
4,166,perceptual,0.1,0.05,competitor,competitor,1,4.058
4,167,numeric,0.1,0.2,competitor,competitor,1,4.301
4,168,numeric,0.1,0.05,target,competitor,1,6.761
4,169,perceptual,0.03,0.2,target,decoy,0,3.971
4,170,perceptual,0.03,0.05,no_decoy,target,1,4.047
4,171,numeric,0.1,0.05,target,target,1,5.741
4,172,perceptual,0.03,0.05,no_decoy,competitor,1,3.069
4,173,perceptual,0.03,0.2,no_decoy,competitor,1,2.742
4,174,perceptual,0.1,0.2,competitor,competitor,1,2.795
4,175,numeric,0.03,0.2,no_decoy,target,1,3.873
4,176,perceptual,0.1,0.2,no_decoy,competitor,1,2.777
4,177,perceptual,0.03,0.05,target,target,0,4.503
4,178,perceptual,0.03,0.05,target,competitor,1,4.403
4,179,numeric,0.03,0.2,competitor,competitor,0,7.947
4,180,perceptual,0.03,0.2,target,competitor,0,5.899
4,181,numeric,0.1,0.2,competitor,competitor,1,8.664
4,182,numeric,0.1,0.05,competitor,target,1,5.618
4,183,numeric,0.1,0.05,no_decoy,target,1,5.794
4,184,numeric,0.03,0.05,competitor,target,0,7.357
4,185,numeric,0.1,0.2,competitor,target,1,6.157
4,186,numeric,0.03,0.2,competitor,target,1,6.957
4,187,numeric,0.1,0.05,competitor,competitor,1,8.271
4,188,numeric,0.03,0.2,no_decoy,competitor,0,6.594
4,189,numeric,0.03,0.05,no_decoy,target,1,3.995
4,190,perceptual,0.03,0.05,competitor,competitor,1,3.86
4,191,perceptual,0.1,0.05,no_decoy,competitor,1,2.945
4,192,perceptual,0.03,0.2,no_decoy,competitor,0,4.952
4,193,numeric,0.03,0.2,competitor,competitor,0,6.775
4,194,numeric,0.1,0.2,competitor,decoy,1,5.019
4,195,numeric,0.03,0.05,target,competitor,1,9.403
4,196,perceptual,0.1,0.05,target,competitor,1,3.034
4,197,numeric,0.03,0.2,no_decoy,target,1,3.186
4,198,perceptual,0.03,0.05,competitor,competitor,1,3.721
4,199,perceptual,0.1,0.2,competitor,competitor,1,2.941
4,200,perceptual,0.1,0.2,no_decoy,competitor,1,2.837
4,201,perceptual,0.1,0.2,target,competitor,1,2.714
4,202,numeric,0.03,0.2,target,target,1,4.324
4,203,perceptual,0.1,0.05,target,competitor,1,4.959
4,204,perceptual,0.03,0.05,target,target,0,4.17
4,205,perceptual,0.1,0.2,no_decoy,competitor,1,3.57
4,206,perceptual,0.1,0.2,no_decoy,target,1,3.929
4,207,perceptual,0.1,0.05,target,target,1,3.505
4,208,numeric,0.03,0.2,no_decoy,competitor,1,5.338
4,209,perceptual,0.03,0.2,no_decoy,target,1,2.965
4,210,numeric,0.1,0.05,no_decoy,competitor,0,3.576
4,211,perceptual,0.03,0.05,no_decoy,target,0,3.014
4,212,perceptual,0.1,0.05,no_decoy,competitor,1,2.813
4,213,numeric,0.03,0.2,target,target,1,5.496
4,214,perceptual,0.03,0.05,no_decoy,competitor,1,2.454
4,215,perceptual,0.03,0.2,target,decoy,1,2.43
4,216,perceptual,0.03,0.2,competitor,competitor,0,2.595
4,217,numeric,0.1,0.05,competitor,decoy,1,4.128
4,218,numeric,0.03,0.05,no_decoy,target,1,4.003
4,219,perceptual,0.1,0.2,no_decoy,target,1,2.881
4,220,numeric,0.1,0.05,competitor,target,1,6.087
4,221,numeric,0.03,0.2,competitor,decoy,0,8.431
4,222,numeric,0.03,0.2,competitor,decoy,0,5.534
4,223,numeric,0.03,0.05,competitor,target,0,6.891
4,224,numeric,0.03,0.05,target,competitor,1,4.427
4,225,numeric,0.1,0.05,competitor,target,1,4.505
4,226,numeric,0.1,0.2,target,target,1,5.169
4,227,numeric,0.1,0.2,no_decoy,target,1,7.841
4,228,numeric,0.03,0.05,competitor,competitor,0,4.894
4,229,numeric,0.03,0.2,competitor,competitor,0,5.431
4,230,perceptual,0.1,0.05,competitor,decoy,0,3.31
4,231,perceptual,0.03,0.2,competitor,target,0,4.026
4,232,perceptual,0.03,0.2,target,decoy,0,4.792
4,233,numeric,0.03,0.05,no_decoy,target,0,6.901
4,234,numeric,0.03,0.05,competitor,target,0,5.871
4,235,perceptual,0.03,0.2,competitor,competitor,0,3.604
4,236,numeric,0.03,0.2,no_decoy,competitor,0,3.8
4,237,numeric,0.03,0.05,no_decoy,competitor,0,3.862
4,238,perceptual,0.1,0.2,no_decoy,competitor,1,3.527
4,239,numeric,0.03,0.05,target,competitor,0,8.824
4,240,perceptual,0.1,0.05,target,decoy,0,5.963
4,241,perceptual,0.1,0.2,no_decoy,competitor,1,3.168
4,242,numeric,0.1,0.2,no_decoy,target,1,3.753
4,243,perceptual,0.1,0.05,competitor,competitor,1,3.356
4,244,perceptual,0.1,0.05,competitor,decoy,1,3.088
4,245,numeric,0.1,0.2,no_decoy,competitor,1,5.939
4,246,perceptual,0.1,0.2,target,target,1,4.048
4,247,perceptual,0.1,0.05,competitor,target,1,6.575
4,248,numeric,0.1,0.05,competitor,target,1,3.887
4,249,perceptual,0.03,0.05,target,decoy,0,4.016
4,250,numeric,0.1,0.05,no_decoy,competitor,1,3.732
4,251,perceptual,0.1,0.2,target,competitor,1,3.138
4,252,numeric,0.03,0.05,competitor,decoy,1,5.964
4,253,perceptual,0.03,0.05,competitor,decoy,0,3.275
4,254,perceptual,0.1,0.05,no_decoy,competitor,1,4.601
4,255,numeric,0.03,0.05,target,target,1,6.597
4,256,numeric,0.1,0.2,target,target,1,4.831
4,257,perceptual,0.03,0.2,no_decoy,competitor,0,3.663
4,258,perceptual,0.03,0.05,competitor,competitor,0,3.503
4,259,perceptual,0.1,0.2,no_decoy,competitor,0,3.026
4,260,numeric,0.03,0.05,competitor,target,0,7.269
4,261,perceptual,0.1,0.05,no_decoy,target,1,2.716
4,262,perceptual,0.03,0.05,competitor,decoy,1,2.724
4,263,numeric,0.03,0.2,no_decoy,target,1,5.542
4,264,numeric,0.1,0.05,no_decoy,competitor,1,7.239
4,265,numeric,0.1,0.2,no_decoy,competitor,1,3.741
4,266,perceptual,0.03,0.2,no_decoy,target,0,3.361
4,267,numeric,0.1,0.2,target,competitor,0,9.686
4,268,perceptual,0.03,0.2,target,target,1,2.904
4,269,perceptual,0.1,0.05,competitor,competitor,0,3.181
4,270,perceptual,0.03,0.2,no_decoy,competitor,1,2.96
4,271,numeric,0.03,0.2,target,target,0,3.703
4,272,numeric,0.1,0.2,no_decoy,competitor,1,4.979
4,273,numeric,0.03,0.05,target,target,1,3.832
4,274,perceptual,0.1,0.2,competitor,target,1,3.646
4,275,numeric,0.03,0.2,competitor,target,1,4.252
4,276,perceptual,0.1,0.05,no_decoy,competitor,1,4.042
4,277,numeric,0.1,0.2,target,competitor,1,5.017
4,278,perceptual,0.1,0.2,target,decoy,1,4.35
4,279,numeric,0.03,0.05,target,decoy,1,8.264
4,280,numeric,0.1,0.2,no_decoy,target,0,7.414
4,281,numeric,0.03,0.05,competitor,competitor,0,5.785
4,282,perceptual,0.1,0.05,no_decoy,competitor,1,2.74
4,283,perceptual,0.1,0.2,target,competitor,1,7.474
4,284,numeric,0.1,0.2,target,decoy,0,7.305
4,285,perceptual,0.03,0.2,competitor,competitor,1,3.785
4,286,perceptual,0.1,0.05,competitor,decoy,0,3.913
4,287,perceptual,0.03,0.05,no_decoy,target,0,4.304
4,288,perceptual,0.03,0.2,competitor,decoy,0,4.074
5,1,numeric,0.03,0.2,competitor,competitor,1,16.165
5,2,numeric,0.1,0.05,target,target,0,18.11
5,5,perceptual,0.1,0.2,competitor,competitor,0,0.323
5,6,perceptual,0.1,0.2,target,competitor,1,3.375
5,7,perceptual,0.1,0.05,competitor,decoy,0,3.008
5,8,perceptual,0.1,0.05,competitor,competitor,0,1.966
5,9,numeric,0.03,0.05,competitor,competitor,1,4.897
5,10,numeric,0.1,0.05,no_decoy,target,1,4.371
5,11,numeric,0.1,0.05,competitor,competitor,1,5.177
5,12,numeric,0.1,0.2,competitor,target,1,4.012
5,13,numeric,0.1,0.05,target,competitor,1,4.893
5,14,numeric,0.1,0.05,no_decoy,competitor,0,3.409
5,15,numeric,0.03,0.05,target,decoy,1,5.035
5,16,perceptual,0.1,0.2,target,competitor,1,6.77
5,17,perceptual,0.03,0.05,no_decoy,target,1,7.519
5,18,numeric,0.03,0.05,competitor,competitor,1,8.809
5,19,perceptual,0.1,0.05,target,target,0,1.899
5,20,perceptual,0.1,0.05,target,competitor,1,0.844
5,21,perceptual,0.1,0.2,competitor,target,1,0.203
5,22,perceptual,0.03,0.2,competitor,competitor,0,0.315
5,23,perceptual,0.03,0.05,competitor,decoy,0,0.074
5,24,numeric,0.1,0.2,competitor,competitor,0,0.154
5,25,numeric,0.03,0.2,target,competitor,0,0.016
5,26,numeric,0.03,0.05,target,competitor,0,0.206
5,27,numeric,0.1,0.2,competitor,decoy,0,1.998
5,28,perceptual,0.03,0.2,no_decoy,target,0,1.251
5,29,numeric,0.03,0.05,competitor,target,0,1.236
5,30,numeric,0.1,0.05,target,competitor,1,2.655
5,31,perceptual,0.1,0.2,target,decoy,1,3.002
5,32,numeric,0.03,0.2,no_decoy,competitor,0,1.828
5,33,perceptual,0.1,0.2,target,competitor,0,10.428
5,34,perceptual,0.1,0.2,competitor,competitor,0,3.159
5,35,perceptual,0.1,0.05,competitor,decoy,0,1.826
5,36,perceptual,0.1,0.2,competitor,competitor,1,1.364
5,37,numeric,0.1,0.05,target,competitor,1,0.668
5,38,numeric,0.1,0.05,competitor,target,1,0.329
5,39,numeric,0.1,0.2,target,competitor,0,0.315
5,40,perceptual,0.03,0.05,competitor,decoy,1,0.551
5,41,numeric,0.03,0.05,no_decoy,competitor,1,10.008
5,42,perceptual,0.1,0.2,competitor,target,0,2.058
5,43,numeric,0.1,0.2,target,competitor,0,1.065
5,44,numeric,0.1,0.2,competitor,decoy,0,0.999
5,45,numeric,0.1,0.2,target,competitor,1,4.16
5,46,perceptual,0.03,0.2,no_decoy,competitor,1,1.774
5,47,perceptual,0.1,0.2,competitor,competitor,0,1.103
5,48,numeric,0.03,0.2,target,competitor,1,0.549
5,49,numeric,0.03,0.05,no_decoy,target,0,5.094
5,50,perceptual,0.03,0.05,no_decoy,competitor,1,3.274
5,51,perceptual,0.1,0.05,target,decoy,0,1.587
5,52,perceptual,0.03,0.05,no_decoy,target,1,1.348
5,53,numeric,0.1,0.2,target,competitor,1,9.729
5,54,numeric,0.03,0.2,no_decoy,target,1,3.819
5,55,perceptual,0.03,0.2,competitor,target,0,5.703
5,56,numeric,0.03,0.2,no_decoy,target,1,7.829
5,57,perceptual,0.03,0.2,no_decoy,competitor,1,2.584
5,58,perceptual,0.1,0.2,target,target,1,1.731
5,59,numeric,0.03,0.2,competitor,competitor,1,4.542
5,60,perceptual,0.1,0.05,competitor,decoy,1,2.569
5,61,numeric,0.1,0.2,target,decoy,1,3.94
5,62,perceptual,0.03,0.2,competitor,target,0,2.243
5,63,perceptual,0.03,0.05,no_decoy,competitor,1,9.616
5,64,perceptual,0.1,0.05,no_decoy,target,1,2.969
5,65,perceptual,0.1,0.2,no_decoy,target,1,2.479
5,66,perceptual,0.03,0.2,competitor,competitor,0,2.53
5,67,numeric,0.03,0.2,no_decoy,target,0,4.55
5,68,perceptual,0.1,0.05,no_decoy,competitor,0,4.007
5,69,numeric,0.03,0.05,target,target,1,9.469
5,70,perceptual,0.03,0.05,target,decoy,0,6.723
5,71,numeric,0.03,0.05,competitor,competitor,1,8.482
5,72,perceptual,0.1,0.05,target,competitor,0,6.451
5,73,perceptual,0.1,0.2,target,decoy,1,4.951
5,74,perceptual,0.03,0.2,no_decoy,competitor,1,6.175
5,75,perceptual,0.1,0.05,competitor,decoy,0,5.728
5,76,perceptual,0.03,0.05,competitor,target,1,5.079
5,77,perceptual,0.03,0.2,no_decoy,competitor,1,4.488
5,78,perceptual,0.1,0.2,target,competitor,0,2.199
5,79,perceptual,0.03,0.05,competitor,competitor,1,4.944
5,80,numeric,0.03,0.05,no_decoy,target,0,6.084
5,81,perceptual,0.1,0.05,no_decoy,competitor,0,1.536
5,82,perceptual,0.03,0.2,competitor,competitor,0,1.006
5,83,numeric,0.03,0.2,target,competitor,0,1.215
5,84,numeric,0.1,0.05,competitor,target,0,0.881
5,85,numeric,0.03,0.05,target,target,1,0.384
5,86,perceptual,0.03,0.05,target,decoy,0,0.344
5,87,numeric,0.1,0.05,target,competitor,1,0.403
5,88,perceptual,0.03,0.2,no_decoy,target,0,0.056
5,89,numeric,0.1,0.2,no_decoy,target,0,0.283
5,90,perceptual,0.1,0.05,competitor,competitor,0,0.083
5,91,numeric,0.1,0.05,competitor,target,1,0.098
5,92,numeric,0.03,0.2,target,target,0,0.091
5,93,numeric,0.03,0.05,target,competitor,0,0.308
5,94,perceptual,0.1,0.2,no_decoy,competitor,0,0.442
5,95,numeric,0.1,0.05,no_decoy,target,0,0.19
5,96,numeric,0.03,0.05,target,target,0,0.991
5,97,perceptual,0.03,0.2,competitor,decoy,0,2.721
5,98,perceptual,0.1,0.2,no_decoy,target,1,1.436
5,99,perceptual,0.1,0.05,no_decoy,competitor,0,1.451
5,100,numeric,0.1,0.2,no_decoy,competitor,0,1.16
5,101,numeric,0.1,0.2,competitor,target,1,7.418
5,102,perceptual,0.03,0.2,target,target,0,5.08
5,103,perceptual,0.1,0.05,target,target,1,2.655
5,104,perceptual,0.1,0.05,target,target,1,0.415
5,105,perceptual,0.03,0.05,no_decoy,competitor,0,2.084
5,106,numeric,0.03,0.2,competitor,decoy,0,3.53
5,107,numeric,0.1,0.2,target,decoy,0,1.331
5,108,numeric,0.1,0.2,no_decoy,competitor,1,6.208
5,109,numeric,0.1,0.05,target,competitor,1,5.744
5,110,numeric,0.1,0.2,target,competitor,1,9.296
5,111,numeric,0.03,0.05,competitor,decoy,0,5.114
5,112,numeric,0.1,0.05,no_decoy,competitor,1,7.929
5,113,numeric,0.1,0.2,no_decoy,target,1,1.822
5,114,perceptual,0.03,0.2,target,target,0,0.024
5,115,numeric,0.03,0.2,no_decoy,competitor,1,1.455
5,116,perceptual,0.03,0.2,competitor,target,0,4.178
5,117,perceptual,0.03,0.05,no_decoy,competitor,1,1.582
5,118,numeric,0.1,0.2,no_decoy,competitor,1,0.845
5,119,perceptual,0.1,0.2,no_decoy,competitor,0,0.508
5,120,numeric,0.1,0.2,no_decoy,competitor,0,0.263
5,121,numeric,0.03,0.05,target,decoy,1,0.174
5,122,perceptual,0.1,0.05,no_decoy,competitor,1,0.984
5,123,perceptual,0.1,0.05,competitor,target,0,0.082
5,124,numeric,0.03,0.2,no_decoy,target,0,0.235
5,125,perceptual,0.1,0.2,target,competitor,0,0.079
5,126,numeric,0.03,0.2,target,decoy,1,0.429
5,127,perceptual,0.1,0.2,target,competitor,0,0.313
5,128,numeric,0.1,0.05,no_decoy,competitor,0,0.196
5,129,perceptual,0.03,0.2,target,target,1,1.783
5,130,perceptual,0.1,0.05,competitor,competitor,0,0.105
5,131,perceptual,0.03,0.2,target,decoy,1,0.471
5,132,numeric,0.1,0.05,competitor,target,0,0.38
5,133,perceptual,0.03,0.05,competitor,competitor,1,0.196
5,134,perceptual,0.03,0.05,target,competitor,1,0.13
5,135,perceptual,0.1,0.2,no_decoy,competitor,0,0.083
5,136,numeric,0.03,0.2,competitor,decoy,0,0.05
5,137,perceptual,0.1,0.2,no_decoy,target,0,0.162
5,138,perceptual,0.03,0.2,no_decoy,target,1,0.214
5,139,numeric,0.1,0.2,no_decoy,target,1,0.379
5,140,numeric,0.1,0.05,competitor,competitor,0,0.445
5,141,numeric,0.1,0.05,competitor,decoy,0,0.161
5,142,numeric,0.03,0.05,target,target,0,0.434
5,143,perceptual,0.1,0.05,competitor,target,0,0.382
5,144,perceptual,0.1,0.2,target,competitor,1,0.237
5,145,numeric,0.03,0.05,competitor,competitor,1,5.422
5,146,numeric,0.1,0.05,target,competitor,1,1.534
5,147,numeric,0.1,0.05,no_decoy,competitor,1,0.992
5,148,perceptual,0.1,0.05,no_decoy,target,1,3.066
5,149,numeric,0.03,0.05,target,decoy,0,4.784
5,150,perceptual,0.1,0.05,no_decoy,competitor,0,6.964
5,151,perceptual,0.03,0.05,target,decoy,1,2.069
5,152,perceptual,0.03,0.2,target,target,0,0.824
5,153,numeric,0.03,0.2,target,competitor,0,0.456
5,154,perceptual,0.03,0.05,no_decoy,competitor,0,0.297
5,155,perceptual,0.03,0.05,competitor,competitor,1,0.166
5,156,numeric,0.03,0.2,no_decoy,target,0,0.358
5,157,perceptual,0.03,0.2,target,target,0,0.215
5,158,perceptual,0.03,0.05,target,competitor,0,0.264
5,159,numeric,0.1,0.05,no_decoy,competitor,1,0.786
5,160,perceptual,0.03,0.05,competitor,target,0,4.521
5,161,perceptual,0.03,0.2,target,decoy,0,1.702
5,162,perceptual,0.03,0.05,target,target,0,1.129
5,163,numeric,0.1,0.05,target,decoy,0,0.695
5,164,perceptual,0.03,0.2,no_decoy,competitor,0,1.734
5,165,perceptual,0.03,0.2,target,decoy,0,1.244
5,166,numeric,0.1,0.2,target,competitor,0,0.808
5,167,perceptual,0.1,0.2,no_decoy,competitor,1,1.858
5,168,perceptual,0.1,0.2,competitor,target,0,1.413
5,169,numeric,0.03,0.2,competitor,decoy,0,1.256
5,170,perceptual,0.1,0.05,competitor,target,1,9.085
5,171,numeric,0.03,0.05,target,target,1,6.735
5,172,numeric,0.1,0.2,competitor,target,1,5.686
5,173,perceptual,0.03,0.05,target,competitor,0,8.848
5,174,numeric,0.03,0.05,competitor,target,0,0.017
5,175,perceptual,0.1,0.05,no_decoy,competitor,1,12.731
5,176,perceptual,0.03,0.05,no_decoy,competitor,1,10.688
5,177,numeric,0.1,0.2,target,target,1,8.783
5,178,perceptual,0.1,0.2,competitor,target,0,1.182
5,179,numeric,0.1,0.05,target,decoy,1,0.262
5,180,numeric,0.1,0.2,no_decoy,target,0,0.184
5,181,perceptual,0.03,0.05,competitor,competitor,0,0.067
5,182,numeric,0.03,0.2,target,decoy,0,0.136
5,183,numeric,0.1,0.05,target,decoy,0,0.217
5,184,numeric,0.03,0.2,competitor,competitor,0,0.084
5,185,perceptual,0.03,0.2,competitor,target,0,0.154
5,186,perceptual,0.1,0.2,no_decoy,competitor,1,0.113
5,187,numeric,0.03,0.05,competitor,decoy,0,0.209
5,188,perceptual,0.1,0.2,competitor,competitor,0,0.623
5,189,perceptual,0.1,0.05,no_decoy,target,1,0.176
5,190,numeric,0.03,0.2,target,competitor,1,0.173
5,191,perceptual,0.03,0.05,competitor,target,0,0.15
5,192,perceptual,0.03,0.05,no_decoy,target,0,1.44
5,193,perceptual,0.03,0.2,target,competitor,1,9.186
5,194,numeric,0.03,0.05,no_decoy,competitor,1,3.599
5,195,numeric,0.1,0.2,no_decoy,competitor,0,4.393
5,196,perceptual,0.1,0.2,no_decoy,competitor,1,2.699
5,197,perceptual,0.1,0.2,competitor,decoy,1,7.162
5,198,perceptual,0.1,0.05,target,target,0,1.142
5,199,perceptual,0.03,0.2,no_decoy,target,1,0.179
5,200,numeric,0.03,0.2,target,decoy,0,0.051
5,201,perceptual,0.1,0.2,competitor,competitor,0,0.073
5,202,numeric,0.1,0.2,competitor,decoy,0,0.152
5,203,numeric,0.1,0.2,competitor,target,1,0.232
5,204,numeric,0.03,0.05,competitor,target,0,0.015
5,205,perceptual,0.03,0.2,target,decoy,0,0.104
5,206,numeric,0.1,0.05,no_decoy,target,0,0.097
5,207,numeric,0.1,0.2,no_decoy,competitor,1,0.101
5,208,perceptual,0.03,0.2,target,decoy,1,0.027
5,209,numeric,0.1,0.05,no_decoy,target,0,1.247
5,210,numeric,0.03,0.05,target,competitor,0,0.032
5,211,numeric,0.03,0.05,target,competitor,0,0.082
5,212,numeric,0.03,0.2,no_decoy,competitor,1,0.095
5,213,numeric,0.03,0.05,no_decoy,target,0,0.099
5,214,perceptual,0.1,0.05,competitor,target,1,0.135
5,215,numeric,0.1,0.2,no_decoy,target,1,0.218
5,216,numeric,0.1,0.05,target,decoy,1,0.044
5,217,perceptual,0.03,0.05,no_decoy,target,1,0.212
5,218,numeric,0.1,0.05,no_decoy,competitor,0,0.186
5,219,perceptual,0.1,0.05,target,decoy,1,0.001
5,220,numeric,0.1,0.05,competitor,decoy,0,0.07
5,221,perceptual,0.1,0.2,no_decoy,target,0,0.079
5,222,numeric,0.03,0.05,no_decoy,competitor,0,0.077
5,223,perceptual,0.1,0.05,no_decoy,target,1,0.087
5,224,perceptual,0.03,0.2,competitor,competitor,0,0.069
5,225,numeric,0.03,0.2,target,target,1,4.16
5,226,perceptual,0.03,0.2,no_decoy,target,0,5
5,227,perceptual,0.1,0.05,no_decoy,competitor,0,3.868
5,228,numeric,0.03,0.2,target,target,1,6.953
5,229,perceptual,0.1,0.2,no_decoy,target,0,1.585
5,230,numeric,0.03,0.2,competitor,competitor,0,0.514
5,231,numeric,0.1,0.2,competitor,decoy,0,0.415
5,232,numeric,0.03,0.05,competitor,competitor,1,0.534
5,233,numeric,0.03,0.05,competitor,target,0,0.731
5,234,numeric,0.03,0.2,no_decoy,competitor,1,0.665
5,235,numeric,0.03,0.2,no_decoy,target,1,1.379
5,236,perceptual,0.1,0.2,no_decoy,target,1,4.489
5,237,perceptual,0.1,0.2,competitor,target,0,1.533
5,238,perceptual,0.03,0.05,no_decoy,competitor,1,0.752
5,239,numeric,0.03,0.2,competitor,target,0,0.262
5,240,numeric,0.1,0.05,competitor,competitor,0,0.232
5,241,perceptual,0.03,0.2,competitor,target,1,3.683
5,242,perceptual,0.1,0.05,competitor,decoy,1,0.203
5,243,perceptual,0.1,0.05,target,target,0,0.126
5,244,numeric,0.03,0.2,competitor,competitor,1,0.118
5,245,perceptual,0.03,0.2,competitor,decoy,0,3.836
5,246,perceptual,0.03,0.2,no_decoy,target,0,0.304
5,247,numeric,0.1,0.2,competitor,decoy,0,0.156
5,248,perceptual,0.1,0.05,no_decoy,target,0,0.022
5,249,numeric,0.1,0.2,competitor,decoy,1,0.081
5,250,numeric,0.03,0.2,no_decoy,target,1,3.299
5,251,perceptual,0.03,0.05,target,decoy,1,7.871
5,252,perceptual,0.03,0.2,no_decoy,competitor,1,5.492
5,253,numeric,0.03,0.05,no_decoy,competitor,1,3.359
5,254,numeric,0.1,0.2,target,competitor,1,1.853
5,255,numeric,0.1,0.05,no_decoy,target,1,0.935
5,256,perceptual,0.1,0.05,target,decoy,0,1.238
5,257,numeric,0.1,0.05,no_decoy,competitor,1,3.935
5,258,numeric,0.03,0.05,no_decoy,target,0,3.134
5,259,perceptual,0.03,0.05,competitor,decoy,1,2.816
5,260,numeric,0.1,0.2,target,competitor,1,3.965
5,261,numeric,0.03,0.2,competitor,decoy,0,1.566
5,262,numeric,0.1,0.05,target,target,0,1.139
5,263,numeric,0.03,0.05,competitor,competitor,1,0.431
5,264,numeric,0.1,0.2,no_decoy,target,1,0.816
5,265,numeric,0.03,0.05,no_decoy,competitor,0,0.256
5,266,perceptual,0.03,0.05,no_decoy,target,0,1.248
5,267,numeric,0.03,0.2,target,competitor,0,0.274
5,268,numeric,0.1,0.05,competitor,competitor,0,0.273
5,269,numeric,0.03,0.05,no_decoy,competitor,1,0.556
5,270,perceptual,0.03,0.05,target,target,0,0.232
5,271,numeric,0.03,0.2,competitor,competitor,1,0.148
5,272,numeric,0.1,0.05,competitor,competitor,0,0.199
5,273,perceptual,0.03,0.05,competitor,competitor,0,9.313
5,274,numeric,0.03,0.2,competitor,decoy,0,6.658
5,275,numeric,0.03,0.2,no_decoy,target,0,3.397
5,276,perceptual,0.03,0.05,target,target,0,5.135
5,277,perceptual,0.03,0.2,competitor,competitor,0,4.886
5,278,perceptual,0.1,0.2,target,competitor,1,7.472
5,279,perceptual,0.1,0.05,target,decoy,0,5.299
5,280,perceptual,0.1,0.2,target,target,0,4.041
5,281,perceptual,0.03,0.2,target,competitor,0,2.752
5,282,numeric,0.03,0.05,no_decoy,target,1,3.998
5,283,perceptual,0.03,0.05,target,decoy,1,5.795
5,284,numeric,0.03,0.05,no_decoy,competitor,0,5.53
5,285,perceptual,0.03,0.05,target,decoy,1,6.029
5,286,numeric,0.1,0.2,target,competitor,1,2.946
5,287,numeric,0.1,0.05,competitor,target,1,3.966
5,288,perceptual,0.1,0.05,target,target,0,2.778
6,1,perceptual,0.1,0.2,no_decoy,target,1,11.436
6,2,perceptual,0.1,0.2,competitor,target,1,4.514
6,3,perceptual,0.1,0.2,competitor,competitor,0,3.826
6,4,perceptual,0.1,0.2,competitor,competitor,1,3.396
6,5,perceptual,0.03,0.05,competitor,target,0,6.288
6,6,perceptual,0.1,0.05,no_decoy,competitor,1,3.598
6,7,numeric,0.03,0.05,competitor,competitor,1,8.432
6,8,perceptual,0.03,0.05,no_decoy,competitor,1,3.219
6,9,perceptual,0.1,0.2,competitor,target,1,3.007
6,10,perceptual,0.1,0.05,competitor,competitor,1,2.53
6,11,perceptual,0.03,0.2,target,decoy,0,2.709
6,12,perceptual,0.03,0.2,target,decoy,0,3.928
6,13,perceptual,0.03,0.05,competitor,target,1,2.719
6,14,perceptual,0.03,0.05,no_decoy,target,0,2.333
6,15,perceptual,0.03,0.2,target,decoy,1,2.953
6,16,perceptual,0.1,0.05,no_decoy,target,0,2.189
6,17,numeric,0.03,0.05,target,competitor,0,3.985
6,18,numeric,0.03,0.05,competitor,competitor,0,4.338
6,19,numeric,0.1,0.05,competitor,target,1,2.914
6,20,numeric,0.1,0.05,no_decoy,competitor,0,2.539
6,21,perceptual,0.1,0.05,competitor,target,0,2.511
6,22,numeric,0.1,0.2,competitor,target,0,2.89
6,23,perceptual,0.03,0.05,competitor,target,0,2.013
6,24,numeric,0.03,0.2,no_decoy,competitor,1,2.593
6,25,numeric,0.03,0.2,no_decoy,competitor,1,2.62
6,26,perceptual,0.1,0.2,no_decoy,target,1,1.923
6,27,perceptual,0.1,0.05,target,competitor,1,2.107
6,28,perceptual,0.03,0.05,target,decoy,0,3.877
6,29,numeric,0.03,0.05,no_decoy,target,1,2.419
6,30,perceptual,0.03,0.05,no_decoy,target,1,2.119
6,31,numeric,0.1,0.05,no_decoy,target,0,2.457
6,32,numeric,0.03,0.2,competitor,decoy,1,2.742
6,33,perceptual,0.1,0.05,competitor,competitor,1,2.621
6,34,numeric,0.1,0.2,competitor,decoy,0,3.677
6,35,numeric,0.1,0.2,target,target,0,6.188
6,36,numeric,0.1,0.2,target,decoy,0,3.464
6,37,numeric,0.1,0.2,target,decoy,0,3.795
6,38,perceptual,0.1,0.2,target,decoy,0,2.584
6,39,perceptual,0.1,0.05,target,target,1,2.245
6,40,perceptual,0.1,0.05,no_decoy,target,1,1.807
6,41,perceptual,0.1,0.05,target,competitor,0,2.127
6,42,numeric,0.03,0.2,competitor,competitor,0,3.12
6,44,numeric,0.1,0.2,target,competitor,1,8.713
6,46,perceptual,0.03,0.2,no_decoy,competitor,0,10.366
6,47,perceptual,0.03,0.05,competitor,competitor,0,4.568
6,48,perceptual,0.1,0.05,target,target,0,2.253
6,49,perceptual,0.1,0.05,no_decoy,target,1,2.04
6,50,numeric,0.03,0.05,no_decoy,competitor,1,2.335
6,51,numeric,0.03,0.05,target,decoy,0,2.82
6,52,perceptual,0.03,0.2,no_decoy,target,0,4.595
6,53,perceptual,0.1,0.05,no_decoy,competitor,1,2.156
6,54,perceptual,0.03,0.2,target,target,0,2.279
6,55,numeric,0.1,0.2,target,decoy,0,3.715
6,56,perceptual,0.1,0.2,competitor,competitor,1,2.485
6,57,perceptual,0.1,0.2,target,target,0,2.059
6,58,perceptual,0.1,0.05,competitor,target,1,2.512
6,59,perceptual,0.1,0.2,competitor,decoy,0,2.388
6,60,numeric,0.1,0.05,competitor,competitor,0,3.561
6,61,numeric,0.1,0.05,competitor,competitor,0,5.512
6,62,perceptual,0.1,0.05,competitor,competitor,1,2.343
6,63,numeric,0.1,0.2,competitor,target,0,3.519
6,64,perceptual,0.03,0.2,competitor,decoy,0,2.421
6,65,numeric,0.03,0.05,no_decoy,target,0,2.487
6,66,numeric,0.03,0.05,no_decoy,competitor,1,2.353
6,67,perceptual,0.1,0.2,target,decoy,1,1.917
6,68,perceptual,0.1,0.05,target,decoy,0,1.855
6,69,numeric,0.03,0.2,competitor,decoy,0,1.323
6,70,perceptual,0.1,0.2,target,decoy,1,1.063
6,71,perceptual,0.1,0.05,no_decoy,competitor,1,0.865
6,72,numeric,0.03,0.2,no_decoy,target,1,2.615
6,73,numeric,0.1,0.05,competitor,decoy,1,3.074
6,74,numeric,0.03,0.2,no_decoy,competitor,0,2.241
6,75,numeric,0.1,0.2,no_decoy,competitor,0,2.463
6,76,numeric,0.03,0.05,target,target,1,6.261
6,77,numeric,0.03,0.05,target,decoy,1,3.327
6,78,numeric,0.03,0.05,competitor,target,0,0.022
6,79,perceptual,0.03,0.05,target,decoy,0,1.904
6,80,numeric,0.03,0.05,no_decoy,target,0,3.67
6,81,numeric,0.03,0.05,no_decoy,target,0,2.575
6,82,numeric,0.1,0.05,no_decoy,competitor,0,4.43
6,83,perceptual,0.1,0.2,no_decoy,competitor,0,5.632
6,84,perceptual,0.03,0.2,competitor,competitor,1,8.145
6,85,perceptual,0.03,0.05,competitor,target,1,2.775
6,86,numeric,0.1,0.2,no_decoy,competitor,0,3.513
6,87,perceptual,0.03,0.05,competitor,target,0,4.478
6,89,perceptual,0.1,0.2,competitor,competitor,1,2.399
6,90,perceptual,0.03,0.2,target,competitor,1,2.414
6,91,numeric,0.1,0.2,no_decoy,target,1,2.387
6,92,perceptual,0.1,0.2,competitor,target,0,2.001
6,93,numeric,0.1,0.05,no_decoy,competitor,1,2.307
6,94,numeric,0.03,0.2,target,competitor,1,2.967
6,95,numeric,0.1,0.05,target,competitor,0,3.461
6,96,numeric,0.03,0.2,target,competitor,0,4.456
6,97,perceptual,0.03,0.2,no_decoy,target,1,2.188
6,98,perceptual,0.1,0.2,target,target,0,2.054
6,99,perceptual,0.1,0.05,no_decoy,target,1,2.167
6,100,perceptual,0.03,0.2,no_decoy,target,1,2.617
6,101,perceptual,0.03,0.2,competitor,target,1,2.41
6,102,perceptual,0.03,0.05,target,decoy,1,1.943
6,103,perceptual,0.1,0.05,no_decoy,competitor,1,1.766
6,104,perceptual,0.1,0.05,competitor,decoy,0,2.213
6,105,numeric,0.03,0.05,competitor,competitor,0,3.34
6,106,numeric,0.03,0.2,no_decoy,target,0,2.531
6,107,numeric,0.03,0.2,target,target,0,2.995
6,108,numeric,0.03,0.2,no_decoy,target,0,3.42
6,109,numeric,0.03,0.05,competitor,competitor,1,3.027
6,110,numeric,0.03,0.2,competitor,competitor,0,3.348
6,111,numeric,0.1,0.2,no_decoy,target,1,2.519
6,112,perceptual,0.03,0.05,no_decoy,competitor,1,2.118
6,113,perceptual,0.03,0.05,competitor,target,0,2.18
6,114,numeric,0.03,0.05,target,decoy,1,3.315
6,115,numeric,0.1,0.05,target,decoy,1,3.51
6,116,numeric,0.1,0.05,competitor,target,1,4.891
6,117,numeric,0.1,0.2,target,target,0,2.024
6,118,numeric,0.1,0.05,competitor,competitor,1,3.339
6,119,perceptual,0.1,0.2,no_decoy,target,1,1.907
6,120,numeric,0.1,0.05,competitor,target,0,2.794
6,121,perceptual,0.1,0.05,no_decoy,competitor,1,1.983
6,122,perceptual,0.03,0.05,target,decoy,0,3.265
6,123,perceptual,0.1,0.05,competitor,competitor,1,3.8
6,124,perceptual,0.1,0.2,competitor,target,1,3.245
6,125,numeric,0.1,0.2,no_decoy,target,1,3.525
6,126,perceptual,0.03,0.2,competitor,target,1,2.711
6,127,numeric,0.1,0.05,no_decoy,competitor,1,2.18
6,128,numeric,0.03,0.05,competitor,target,0,2.146
6,129,perceptual,0.1,0.2,target,competitor,1,2.061
6,130,numeric,0.1,0.2,no_decoy,competitor,1,3.396
6,131,perceptual,0.1,0.05,target,decoy,1,1.865
6,132,perceptual,0.1,0.2,target,target,0,2.772
6,133,perceptual,0.1,0.05,competitor,target,1,2.609
6,134,perceptual,0.03,0.05,no_decoy,competitor,0,1.931
6,135,numeric,0.1,0.2,competitor,decoy,1,3.671
6,136,numeric,0.1,0.05,no_decoy,target,0,2.494
6,137,perceptual,0.1,0.05,no_decoy,target,0,2.035
6,138,numeric,0.1,0.05,no_decoy,competitor,1,2.811
6,139,perceptual,0.1,0.2,no_decoy,competitor,1,2.728
6,140,numeric,0.1,0.2,target,competitor,1,4.615
6,141,perceptual,0.03,0.2,target,competitor,1,2.116
6,142,perceptual,0.1,0.2,no_decoy,target,1,1.914
6,143,numeric,0.1,0.05,no_decoy,target,1,3.023
6,144,perceptual,0.1,0.05,target,target,1,1.754
6,145,numeric,0.1,0.05,target,target,0,2.676
6,146,perceptual,0.1,0.2,target,target,1,2.456
6,147,perceptual,0.1,0.2,competitor,target,1,3.237
6,148,perceptual,0.1,0.05,target,competitor,0,3.912
6,149,numeric,0.1,0.2,competitor,competitor,0,3.197
6,150,numeric,0.03,0.2,target,target,1,2.468
6,151,perceptual,0.03,0.05,target,target,1,2.387
6,152,numeric,0.1,0.05,target,target,0,3.314
6,153,numeric,0.03,0.05,competitor,decoy,0,2.821
6,154,perceptual,0.03,0.2,no_decoy,target,0,2.018
6,155,numeric,0.1,0.05,no_decoy,target,0,2.681
6,156,perceptual,0.1,0.2,target,decoy,1,3.639
6,157,numeric,0.1,0.2,competitor,competitor,0,3.136
6,158,perceptual,0.1,0.05,target,target,1,2.608
6,159,perceptual,0.03,0.05,target,decoy,1,2.866
6,160,perceptual,0.1,0.05,target,target,0,4.457
6,161,numeric,0.1,0.2,competitor,competitor,1,3.723
6,162,numeric,0.03,0.2,competitor,decoy,0,4.342
6,163,numeric,0.1,0.05,no_decoy,competitor,1,2.355
6,164,numeric,0.1,0.05,competitor,competitor,1,3.547
6,165,numeric,0.03,0.2,no_decoy,competitor,0,2.656
6,166,perceptual,0.03,0.05,competitor,target,1,2.417
6,167,perceptual,0.03,0.2,target,competitor,0,2.226
6,168,numeric,0.03,0.2,target,competitor,0,2.503
6,169,numeric,0.1,0.2,no_decoy,competitor,0,2.78
6,170,numeric,0.03,0.2,competitor,competitor,0,3.139
6,171,numeric,0.1,0.2,target,competitor,1,3.123
6,172,numeric,0.03,0.05,target,target,0,2.477
6,173,perceptual,0.03,0.2,no_decoy,competitor,0,1.901
6,174,perceptual,0.1,0.2,no_decoy,target,1,1.886
6,175,perceptual,0.1,0.05,no_decoy,target,1,1.888
6,176,numeric,0.03,0.2,no_decoy,target,0,1.702
6,177,numeric,0.03,0.2,target,decoy,1,2.848
6,178,perceptual,0.03,0.2,no_decoy,competitor,0,1.823
6,179,numeric,0.1,0.05,no_decoy,target,1,1.769
6,180,perceptual,0.03,0.2,competitor,decoy,1,2.186
6,181,numeric,0.03,0.2,competitor,target,1,2.21
6,182,perceptual,0.1,0.2,target,target,1,2.238
6,183,numeric,0.1,0.2,no_decoy,competitor,1,6.456
6,184,numeric,0.1,0.2,competitor,competitor,1,1.652
6,185,perceptual,0.03,0.2,competitor,competitor,1,1.56
6,186,numeric,0.1,0.2,no_decoy,target,1,0.001
6,187,perceptual,0.03,0.05,no_decoy,competitor,1,1.679
6,188,numeric,0.03,0.05,no_decoy,competitor,0,12.189
6,189,perceptual,0.03,0.05,competitor,decoy,0,1.971
6,190,numeric,0.1,0.2,competitor,decoy,1,2.393
6,191,numeric,0.03,0.05,competitor,competitor,0,1.643
6,192,perceptual,0.03,0.2,no_decoy,target,0,1.601
6,193,numeric,0.03,0.05,target,target,1,2.017
6,194,perceptual,0.1,0.2,no_decoy,target,0,0.91
6,195,numeric,0.03,0.2,competitor,decoy,1,0.788
6,196,perceptual,0.03,0.2,competitor,target,0,1.345
6,197,perceptual,0.1,0.05,target,decoy,0,1.366
6,198,perceptual,0.1,0.05,target,decoy,0,1.558
6,199,numeric,0.03,0.2,no_decoy,competitor,0,1.274
6,200,perceptual,0.03,0.05,no_decoy,target,1,2.219
6,201,perceptual,0.1,0.05,competitor,target,1,2.691
6,202,perceptual,0.03,0.05,target,decoy,0,5.994
6,203,numeric,0.1,0.05,target,competitor,0,4.553
6,204,perceptual,0.03,0.2,target,target,1,3.016
6,205,numeric,0.1,0.2,no_decoy,competitor,0,2.46
6,206,perceptual,0.03,0.05,no_decoy,competitor,0,2.033
6,207,numeric,0.03,0.2,no_decoy,target,1,2.952
6,208,perceptual,0.1,0.2,no_decoy,target,1,2.131
6,209,perceptual,0.03,0.2,competitor,target,1,1.652
6,210,numeric,0.03,0.05,no_decoy,target,0,6.725
6,211,perceptual,0.1,0.2,target,decoy,0,2.162
6,212,numeric,0.03,0.05,no_decoy,target,0,2.314
6,213,numeric,0.03,0.05,competitor,target,0,1.995
6,214,perceptual,0.03,0.2,target,decoy,0,2.437
6,215,perceptual,0.03,0.2,no_decoy,competitor,0,1.718
6,216,numeric,0.1,0.05,competitor,decoy,0,2.193
6,217,perceptual,0.1,0.2,competitor,decoy,1,1.87
6,218,numeric,0.03,0.05,target,competitor,0,1.701
6,219,numeric,0.1,0.2,competitor,decoy,1,1.949
6,220,numeric,0.03,0.2,target,competitor,1,1.44
6,221,numeric,0.1,0.05,target,decoy,0,3.065
6,222,numeric,0.03,0.2,target,competitor,0,4.447
6,223,numeric,0.1,0.05,target,target,0,6.172
6,224,numeric,0.03,0.2,target,target,1,2.451
6,225,numeric,0.03,0.2,target,decoy,0,2.396
6,226,numeric,0.1,0.2,competitor,decoy,0,1.87
6,227,numeric,0.1,0.05,target,target,1,1.835
6,228,numeric,0.03,0.2,target,target,0,1.756
6,229,perceptual,0.03,0.2,no_decoy,competitor,0,2.706
6,230,perceptual,0.1,0.05,no_decoy,target,1,3.604
6,231,numeric,0.03,0.2,target,decoy,1,0.037
6,232,numeric,0.1,0.05,competitor,decoy,1,2.771
6,233,numeric,0.1,0.05,target,target,1,2.046
6,234,perceptual,0.03,0.05,target,target,1,2.177
6,235,numeric,0.1,0.05,competitor,target,1,4.426
6,236,numeric,0.1,0.05,target,target,0,2.008
6,237,perceptual,0.03,0.2,target,decoy,1,1.929
6,238,perceptual,0.1,0.05,competitor,target,0,1.778
6,239,perceptual,0.1,0.05,competitor,competitor,0,2.42
6,240,perceptual,0.03,0.05,competitor,competitor,0,1.345
6,241,numeric,0.03,0.05,competitor,decoy,1,0.949
6,242,numeric,0.1,0.05,competitor,target,1,1.474
6,243,perceptual,0.03,0.2,target,decoy,1,3.412
6,244,perceptual,0.03,0.05,no_decoy,competitor,0,4.498
6,245,numeric,0.03,0.05,target,competitor,1,3.981
6,246,perceptual,0.03,0.05,no_decoy,target,1,14.953
6,247,perceptual,0.03,0.05,competitor,decoy,1,1.545
6,248,perceptual,0.03,0.2,no_decoy,target,0,2.898
6,249,perceptual,0.03,0.05,target,competitor,1,1.346
6,250,numeric,0.03,0.2,no_decoy,target,0,1.941
6,251,perceptual,0.03,0.05,competitor,competitor,0,1.294
6,252,perceptual,0.03,0.05,no_decoy,competitor,1,1.951
6,253,perceptual,0.03,0.2,no_decoy,target,1,1.643
6,254,numeric,0.03,0.05,competitor,decoy,0,2.283
6,255,numeric,0.1,0.05,no_decoy,competitor,1,4.021
6,256,perceptual,0.1,0.2,competitor,competitor,0,2.113
6,257,perceptual,0.03,0.05,target,target,1,2.743
6,258,numeric,0.03,0.2,competitor,decoy,0,1.591
6,259,numeric,0.1,0.05,target,competitor,0,1.384
6,260,numeric,0.03,0.2,no_decoy,competitor,1,1.769
6,261,numeric,0.1,0.2,target,target,0,1.496
6,262,perceptual,0.1,0.2,no_decoy,competitor,1,1.151
6,263,numeric,0.1,0.2,no_decoy,competitor,0,1.267
6,264,numeric,0.1,0.2,target,target,0,1.418
6,265,perceptual,0.03,0.05,no_decoy,target,0,1.971
6,266,perceptual,0.03,0.2,competitor,decoy,1,1.326
6,267,numeric,0.03,0.05,no_decoy,competitor,0,2.996
6,268,numeric,0.1,0.05,target,target,0,2.127
6,269,perceptual,0.03,0.2,target,target,0,2.29
6,270,numeric,0.03,0.05,no_decoy,target,0,1.65
6,271,numeric,0.03,0.2,competitor,target,1,1.61
6,272,numeric,0.03,0.05,target,competitor,0,3.195
6,273,perceptual,0.03,0.2,competitor,competitor,0,2.065
6,274,numeric,0.1,0.2,competitor,target,0,1.262
6,275,perceptual,0.03,0.05,target,target,0,1.228
6,276,numeric,0.03,0.05,no_decoy,target,0,1.13
6,277,numeric,0.1,0.2,target,target,0,1.134
6,278,numeric,0.03,0.05,target,competitor,1,1.118
6,279,numeric,0.1,0.2,no_decoy,competitor,0,1.081
6,280,numeric,0.03,0.05,competitor,competitor,0,1.11
6,281,perceptual,0.03,0.2,competitor,target,0,1.147
6,282,perceptual,0.03,0.2,competitor,decoy,0,1.261
6,283,perceptual,0.03,0.05,target,target,0,1.212
6,284,perceptual,0.1,0.05,competitor,competitor,1,1.254
6,285,perceptual,0.1,0.2,no_decoy,target,0,1.117
6,286,perceptual,0.1,0.2,no_decoy,competitor,0,1.434
6,287,perceptual,0.1,0.2,target,target,0,1.045
6,288,numeric,0.03,0.2,competitor,competitor,0,1.517
7,1,numeric,0.1,0.05,competitor,target,0,11.034
7,2,numeric,0.03,0.2,target,decoy,1,12.382
7,3,perceptual,0.03,0.05,no_decoy,competitor,0,8.459
7,4,numeric,0.03,0.05,no_decoy,competitor,1,10.894
7,5,numeric,0.03,0.2,competitor,decoy,0,12.267
7,6,perceptual,0.1,0.05,no_decoy,target,1,5.683
7,7,perceptual,0.1,0.2,target,target,1,7.035
7,8,numeric,0.03,0.05,competitor,decoy,1,10.703
7,9,perceptual,0.03,0.2,competitor,competitor,0,14.555
7,10,numeric,0.03,0.2,no_decoy,target,1,6.947
7,11,numeric,0.1,0.05,no_decoy,target,0,19.675
7,12,numeric,0.1,0.2,competitor,competitor,1,16.501
7,13,perceptual,0.03,0.05,competitor,decoy,1,9.871
7,14,perceptual,0.03,0.05,no_decoy,competitor,0,6.439
7,15,perceptual,0.1,0.05,target,target,1,13.249
7,16,perceptual,0.03,0.2,target,decoy,1,11.471
7,17,perceptual,0.1,0.2,competitor,decoy,0,7.557
7,18,perceptual,0.1,0.2,competitor,competitor,1,9.685
7,19,perceptual,0.03,0.05,competitor,target,0,15.651
7,20,numeric,0.03,0.2,no_decoy,target,1,8.435
7,21,numeric,0.1,0.05,no_decoy,target,1,11.405
7,22,perceptual,0.03,0.2,no_decoy,target,1,4.907
7,23,numeric,0.1,0.2,target,target,0,6.721
7,24,numeric,0.1,0.2,target,decoy,1,6.891
7,25,numeric,0.03,0.2,target,competitor,0,6.625
7,26,perceptual,0.03,0.05,competitor,decoy,1,11.689
7,27,numeric,0.1,0.2,competitor,competitor,1,11.854
7,28,numeric,0.03,0.05,no_decoy,competitor,1,9.218
7,29,numeric,0.03,0.2,target,target,1,6.868
7,30,numeric,0.03,0.2,competitor,decoy,0,10.784
7,31,perceptual,0.03,0.2,target,target,1,6.709
7,32,perceptual,0.03,0.2,no_decoy,competitor,1,9.383
7,33,numeric,0.03,0.2,competitor,competitor,0,15.41
7,34,perceptual,0.03,0.2,competitor,competitor,0,9.034
7,35,perceptual,0.1,0.2,competitor,target,1,9.508
7,36,perceptual,0.1,0.05,target,competitor,1,9.714
7,37,numeric,0.03,0.2,target,competitor,0,7.657
7,38,numeric,0.03,0.05,target,decoy,0,15.731
7,39,perceptual,0.03,0.05,no_decoy,target,1,10.743
7,40,perceptual,0.03,0.05,no_decoy,target,1,9.239
7,41,numeric,0.1,0.2,no_decoy,target,1,8.072
7,42,numeric,0.1,0.05,competitor,target,1,19.986
7,43,perceptual,0.03,0.05,target,decoy,1,10.423
7,44,numeric,0.03,0.05,target,competitor,1,14.299
7,45,numeric,0.1,0.05,target,decoy,1,12.817
7,46,perceptual,0.1,0.05,no_decoy,competitor,1,6.071
7,47,numeric,0.1,0.2,no_decoy,competitor,1,7.213
7,48,perceptual,0.1,0.2,no_decoy,target,1,6.618
7,49,numeric,0.03,0.2,no_decoy,target,0,11.132
7,51,numeric,0.03,0.05,competitor,target,0,8.76
7,52,numeric,0.1,0.2,target,decoy,1,9.649
7,53,numeric,0.03,0.05,no_decoy,competitor,1,7.746
7,54,numeric,0.1,0.05,no_decoy,target,1,8.849
7,55,perceptual,0.1,0.05,competitor,decoy,0,10.066
7,56,numeric,0.1,0.05,target,target,1,11.316
7,57,perceptual,0.03,0.2,competitor,target,0,5.115
7,58,numeric,0.1,0.05,competitor,target,1,8.133
7,59,numeric,0.1,0.2,competitor,decoy,0,5.121
7,60,numeric,0.03,0.2,competitor,target,1,17.886
7,61,perceptual,0.03,0.2,competitor,target,0,9.233
7,62,perceptual,0.1,0.05,no_decoy,target,1,5.817
7,63,perceptual,0.1,0.2,target,target,1,6.684
7,64,perceptual,0.1,0.2,target,target,0,11.703
7,65,numeric,0.1,0.2,no_decoy,competitor,0,5.92
7,66,perceptual,0.03,0.05,target,decoy,1,4.733
7,67,perceptual,0.1,0.2,no_decoy,competitor,0,6.265
7,68,numeric,0.1,0.2,target,competitor,1,4.518
7,69,numeric,0.1,0.2,target,target,0,4.739
7,70,numeric,0.1,0.05,competitor,target,1,9.053
7,71,perceptual,0.03,0.05,competitor,target,0,7.8
7,72,numeric,0.1,0.05,no_decoy,target,1,5.866
7,73,perceptual,0.03,0.2,competitor,competitor,0,4.766
7,74,perceptual,0.1,0.05,target,competitor,1,5.382
7,75,perceptual,0.1,0.05,competitor,competitor,0,7.713
7,76,numeric,0.1,0.05,target,competitor,1,11.117
7,77,numeric,0.1,0.2,no_decoy,competitor,0,3.749
7,78,numeric,0.03,0.05,target,decoy,0,8.638
7,79,numeric,0.1,0.2,no_decoy,target,0,3.377
7,80,numeric,0.03,0.05,no_decoy,competitor,1,5.868
7,81,numeric,0.03,0.05,target,target,1,8.018
7,82,numeric,0.03,0.2,competitor,decoy,0,9.986
7,83,perceptual,0.03,0.2,competitor,target,1,6.016
7,84,numeric,0.03,0.2,no_decoy,competitor,0,17.35
7,85,numeric,0.03,0.05,no_decoy,competitor,0,2.964
7,86,perceptual,0.1,0.05,competitor,decoy,1,6.38
7,87,perceptual,0.03,0.05,target,target,1,6.783
7,88,numeric,0.1,0.05,competitor,decoy,0,16.003
7,89,numeric,0.03,0.2,target,competitor,1,4.266
7,90,numeric,0.03,0.2,target,competitor,1,8.151
7,91,numeric,0.03,0.05,target,target,1,10.501
7,92,perceptual,0.1,0.05,competitor,decoy,1,7.58
7,93,perceptual,0.1,0.2,target,target,1,7.565
7,94,numeric,0.03,0.2,competitor,decoy,0,13.055
7,95,perceptual,0.1,0.2,no_decoy,competitor,0,4.5
7,96,perceptual,0.1,0.05,target,competitor,1,6.901
7,97,numeric,0.03,0.2,no_decoy,competitor,1,4.329
7,98,numeric,0.1,0.2,competitor,target,0,5.755
7,99,perceptual,0.03,0.2,no_decoy,target,0,5.55
7,100,perceptual,0.1,0.2,target,decoy,0,4.916
7,101,numeric,0.1,0.05,no_decoy,competitor,1,4.78
7,102,perceptual,0.1,0.05,competitor,competitor,0,5.875
7,103,perceptual,0.1,0.05,competitor,target,1,6.467
7,104,perceptual,0.03,0.2,target,target,0,7.854
7,105,perceptual,0.03,0.05,competitor,target,0,7.915
7,106,perceptual,0.03,0.2,target,competitor,1,6.426
7,107,numeric,0.03,0.2,target,competitor,1,7.621
7,108,numeric,0.03,0.05,target,competitor,0,13.022
7,109,perceptual,0.1,0.2,competitor,decoy,0,12.742
7,110,numeric,0.03,0.05,competitor,decoy,1,9.848
7,111,perceptual,0.03,0.2,no_decoy,competitor,0,7.067
7,112,numeric,0.1,0.2,no_decoy,competitor,1,10.596
7,113,numeric,0.1,0.2,target,target,1,6.363
7,114,perceptual,0.03,0.2,target,target,1,7.15
7,115,numeric,0.03,0.05,no_decoy,competitor,0,5.816
7,116,numeric,0.03,0.05,no_decoy,target,1,3.566
7,117,perceptual,0.03,0.05,target,target,0,3.274
7,118,perceptual,0.1,0.2,no_decoy,competitor,1,3.5
7,119,perceptual,0.1,0.05,target,decoy,1,4.107
7,120,numeric,0.03,0.05,no_decoy,target,0,4.896
7,121,numeric,0.03,0.05,no_decoy,competitor,0,5.233
7,122,numeric,0.1,0.05,no_decoy,competitor,1,3.365
7,123,perceptual,0.03,0.2,target,competitor,1,6.796
7,124,numeric,0.03,0.2,target,target,0,5.604
7,125,numeric,0.1,0.2,competitor,competitor,1,11.205
7,126,perceptual,0.03,0.05,target,decoy,0,5.415
7,127,numeric,0.1,0.05,target,target,1,6.266
7,128,perceptual,0.03,0.05,no_decoy,competitor,0,3.021
7,129,perceptual,0.1,0.05,competitor,target,0,9.541
7,130,perceptual,0.03,0.2,no_decoy,competitor,0,5.949
7,131,perceptual,0.1,0.2,competitor,competitor,1,9.708
7,132,perceptual,0.1,0.2,target,target,1,8.4
7,133,perceptual,0.1,0.05,no_decoy,target,1,4.466
7,134,numeric,0.1,0.05,no_decoy,target,1,7.135
7,135,perceptual,0.03,0.2,no_decoy,target,0,6.589
7,136,perceptual,0.1,0.05,no_decoy,competitor,1,9.437
7,137,numeric,0.03,0.05,competitor,target,0,4.749
7,138,perceptual,0.03,0.05,target,competitor,0,5.169
7,139,numeric,0.1,0.05,competitor,competitor,1,5.584
7,140,numeric,0.1,0.05,target,decoy,1,7.856
7,141,numeric,0.03,0.05,competitor,target,1,9.256
7,142,numeric,0.03,0.05,target,decoy,0,15.249
7,143,perceptual,0.03,0.05,target,target,1,3.951
7,144,perceptual,0.03,0.2,no_decoy,target,1,3.016
7,145,perceptual,0.1,0.2,target,decoy,0,4.544
7,146,numeric,0.1,0.2,target,decoy,1,4.895
7,147,perceptual,0.1,0.2,competitor,decoy,0,4.325
7,148,numeric,0.03,0.2,no_decoy,competitor,0,4.7
7,149,numeric,0.03,0.05,competitor,competitor,1,7.249
7,150,perceptual,0.03,0.2,target,decoy,1,5.317
7,151,numeric,0.03,0.2,target,decoy,1,8.485
7,152,numeric,0.03,0.2,competitor,target,0,9.45
7,153,numeric,0.03,0.05,competitor,decoy,0,4.605
7,154,perceptual,0.1,0.2,target,target,1,3.792
7,155,numeric,0.1,0.2,competitor,target,1,2.987
7,156,perceptual,0.03,0.2,no_decoy,target,1,3.605
7,157,perceptual,0.03,0.05,target,competitor,1,8.702
7,158,perceptual,0.03,0.05,no_decoy,competitor,1,4.152
7,159,perceptual,0.1,0.05,no_decoy,competitor,1,4.001
7,160,perceptual,0.03,0.05,competitor,competitor,0,15.559
7,161,perceptual,0.03,0.2,competitor,decoy,1,4.691
7,162,perceptual,0.03,0.05,target,competitor,0,8.3
7,163,perceptual,0.1,0.2,competitor,decoy,1,5.63
7,164,numeric,0.1,0.05,target,competitor,1,3.828
7,165,numeric,0.03,0.05,target,decoy,0,4.35
7,166,perceptual,0.03,0.05,no_decoy,competitor,0,2.571
7,167,numeric,0.03,0.05,target,competitor,0,3.965
7,168,perceptual,0.1,0.2,target,target,1,7.671
7,169,perceptual,0.1,0.05,competitor,competitor,1,3.841
7,170,numeric,0.1,0.05,competitor,decoy,0,4.322
7,171,numeric,0.03,0.2,no_decoy,target,1,3.398
7,172,perceptual,0.1,0.05,competitor,competitor,0,5.321
7,173,numeric,0.03,0.2,no_decoy,target,0,2.833
7,174,perceptual,0.03,0.2,target,competitor,0,2.979
7,175,perceptual,0.03,0.05,no_decoy,competitor,1,2.781
7,176,numeric,0.03,0.05,target,decoy,0,3.349
7,177,perceptual,0.03,0.05,no_decoy,target,1,6.967
7,178,perceptual,0.03,0.2,no_decoy,competitor,0,5.45
7,179,numeric,0.03,0.2,competitor,target,0,6.638
7,180,perceptual,0.1,0.05,target,competitor,0,4.324
7,181,numeric,0.03,0.2,competitor,target,0,6.526
7,182,numeric,0.1,0.05,target,competitor,1,6.117
7,183,perceptual,0.03,0.05,no_decoy,target,1,3.614
7,184,perceptual,0.1,0.05,target,decoy,1,3.698
7,185,perceptual,0.1,0.05,no_decoy,target,1,3.949
7,186,numeric,0.1,0.2,target,competitor,0,7.95
7,187,perceptual,0.1,0.05,target,decoy,1,6.35
7,188,numeric,0.03,0.05,no_decoy,target,1,4.749
7,189,perceptual,0.1,0.2,no_decoy,target,1,3.726
7,190,perceptual,0.03,0.05,no_decoy,competitor,0,3.933
7,191,numeric,0.1,0.05,target,target,1,3.966
7,192,numeric,0.03,0.2,target,decoy,0,4.031
7,193,perceptual,0.03,0.2,target,decoy,0,6.303
7,194,numeric,0.03,0.05,competitor,competitor,0,12.985
7,195,perceptual,0.03,0.05,target,decoy,0,8.702
7,196,numeric,0.03,0.05,competitor,competitor,0,8.311
7,197,perceptual,0.1,0.2,target,target,1,7.439
7,198,numeric,0.1,0.05,target,competitor,1,6.74
7,199,numeric,0.1,0.2,no_decoy,target,1,3.607
7,200,perceptual,0.1,0.05,target,competitor,0,2.735
7,201,perceptual,0.1,0.2,competitor,competitor,0,2.663
7,202,perceptual,0.03,0.2,competitor,target,1,2.731
7,203,perceptual,0.1,0.2,competitor,target,1,6.846
7,204,numeric,0.1,0.05,no_decoy,target,0,3.611
7,205,perceptual,0.03,0.2,target,competitor,0,5.947
7,206,perceptual,0.03,0.05,no_decoy,competitor,0,3.238
7,207,numeric,0.1,0.05,no_decoy,target,1,6.544
7,208,numeric,0.03,0.2,competitor,decoy,1,5.249
7,209,numeric,0.03,0.05,competitor,decoy,1,6.442
7,210,numeric,0.1,0.2,competitor,competitor,0,5.399
7,211,numeric,0.1,0.05,target,decoy,1,4.371
7,212,perceptual,0.1,0.2,competitor,competitor,0,2.637
7,213,numeric,0.03,0.05,target,competitor,1,4.219
7,214,numeric,0.1,0.05,competitor,target,0,5.07
7,215,perceptual,0.1,0.2,no_decoy,competitor,0,4.953
7,216,perceptual,0.03,0.05,competitor,competitor,1,2.948
7,217,perceptual,0.03,0.05,competitor,competitor,0,4.702
7,218,perceptual,0.1,0.05,target,competitor,0,4.013
7,219,perceptual,0.1,0.2,no_decoy,target,1,7.485
7,220,perceptual,0.1,0.05,no_decoy,competitor,1,3.905
7,221,numeric,0.1,0.2,no_decoy,target,1,8.29
7,222,numeric,0.1,0.05,no_decoy,target,1,10.183
7,223,perceptual,0.1,0.05,competitor,competitor,1,7.067
7,224,numeric,0.03,0.05,no_decoy,target,0,9.382
7,225,numeric,0.1,0.05,competitor,decoy,1,4.124
7,226,numeric,0.03,0.2,no_decoy,competitor,1,3.534
7,227,perceptual,0.1,0.05,target,target,0,4.149
7,228,numeric,0.1,0.2,target,target,0,3.585
7,229,numeric,0.03,0.2,target,competitor,0,2.847
7,230,perceptual,0.1,0.05,no_decoy,target,0,3.431
7,231,numeric,0.1,0.2,competitor,competitor,0,5.271
7,232,numeric,0.1,0.2,no_decoy,target,0,5.214
7,233,perceptual,0.1,0.2,no_decoy,competitor,1,4.146
7,234,perceptual,0.1,0.05,no_decoy,target,1,3.082
7,235,numeric,0.1,0.2,competitor,target,1,3.982
7,236,perceptual,0.1,0.05,competitor,competitor,0,4.38
7,237,numeric,0.1,0.2,target,target,0,5.845
7,238,perceptual,0.1,0.2,competitor,decoy,0,7.977
7,239,numeric,0.03,0.05,competitor,decoy,0,4.808
7,240,numeric,0.03,0.2,no_decoy,competitor,0,5.164
7,241,perceptual,0.1,0.2,target,decoy,0,7.718
7,242,perceptual,0.1,0.05,target,target,0,3.887
7,243,numeric,0.1,0.2,competitor,competitor,1,4.583
7,244,perceptual,0.1,0.2,target,competitor,1,2.799
7,245,perceptual,0.1,0.2,no_decoy,target,1,3.301
7,246,perceptual,0.03,0.05,competitor,competitor,0,4.359
7,247,numeric,0.1,0.2,no_decoy,competitor,1,7.583
7,248,numeric,0.03,0.2,no_decoy,target,0,5.405
7,249,numeric,0.1,0.2,no_decoy,competitor,1,4.139
7,250,perceptual,0.03,0.2,competitor,competitor,0,4.467
7,251,perceptual,0.03,0.05,target,decoy,0,4.116
7,252,numeric,0.03,0.05,competitor,competitor,0,4.269
7,253,numeric,0.03,0.2,target,competitor,1,2.908
7,254,numeric,0.03,0.2,competitor,competitor,1,8.815
7,255,numeric,0.1,0.05,target,target,1,6.635
7,256,perceptual,0.03,0.2,target,decoy,0,4.596
7,257,numeric,0.1,0.2,no_decoy,competitor,0,3.638
7,258,perceptual,0.03,0.05,competitor,competitor,0,4.58
7,259,perceptual,0.03,0.05,competitor,decoy,0,8.735
7,260,numeric,0.1,0.2,target,target,0,5.353
7,261,perceptual,0.03,0.05,competitor,target,0,7.616
7,262,numeric,0.03,0.05,target,target,0,5.718
7,263,perceptual,0.1,0.05,no_decoy,target,1,4.932
7,264,numeric,0.1,0.2,competitor,target,0,5.38
7,265,perceptual,0.1,0.2,no_decoy,competitor,1,3.835
7,266,numeric,0.1,0.05,competitor,target,1,6.359
7,267,perceptual,0.1,0.05,no_decoy,target,1,3.604
7,268,numeric,0.1,0.05,competitor,decoy,0,5.774
7,269,perceptual,0.03,0.2,competitor,decoy,0,3.784
7,270,numeric,0.1,0.05,no_decoy,target,1,2.899
7,271,numeric,0.03,0.05,no_decoy,target,0,12.873
7,272,perceptual,0.1,0.2,competitor,competitor,1,5.708
7,273,perceptual,0.1,0.2,no_decoy,competitor,1,2.809
7,274,numeric,0.03,0.2,competitor,target,0,2.7
7,275,numeric,0.1,0.2,target,target,0,4.753
7,276,perceptual,0.03,0.2,no_decoy,competitor,0,4.524
7,277,numeric,0.1,0.05,competitor,competitor,0,7.9
7,278,numeric,0.1,0.2,competitor,competitor,1,7.831
7,279,perceptual,0.1,0.05,competitor,decoy,1,4.145
7,280,perceptual,0.03,0.2,competitor,competitor,0,6.599
7,281,perceptual,0.03,0.2,no_decoy,competitor,1,6.676
7,282,perceptual,0.03,0.2,no_decoy,target,0,6.35
7,283,numeric,0.03,0.2,no_decoy,competitor,0,4.702
7,284,perceptual,0.03,0.2,competitor,decoy,1,7.205
7,285,numeric,0.1,0.05,target,decoy,0,6.116
7,286,perceptual,0.03,0.05,target,competitor,1,3.59
7,287,perceptual,0.1,0.2,no_decoy,competitor,1,3.314
7,288,numeric,0.1,0.05,no_decoy,target,1,2.763
8,1,perceptual,0.03,0.05,competitor,decoy,0,16.565
8,2,perceptual,0.03,0.05,no_decoy,target,0,4.99
8,3,perceptual,0.1,0.2,competitor,target,0,7.288
8,4,numeric,0.1,0.05,competitor,competitor,1,9.436
8,5,perceptual,0.03,0.05,competitor,target,0,5.181
8,6,perceptual,0.1,0.05,competitor,target,1,5.267
8,7,perceptual,0.03,0.2,no_decoy,competitor,0,3.522
8,8,numeric,0.1,0.05,no_decoy,target,0,2.604
8,9,numeric,0.03,0.05,no_decoy,competitor,0,2.618
8,10,perceptual,0.03,0.05,target,decoy,0,2.994
