participant,trial_counter,condition,target_to_competitor,decoy_reduction,decoy_on,chosen_item,correct,rt
1,1,perceptual,0.03,0.2,target,target,1,3.601
1,2,numeric,0.1,0.05,target,decoy,0,14.749
1,3,numeric,0.1,0.2,target,competitor,0,6.027
1,4,perceptual,0.03,0.2,target,target,1,4.945
1,5,perceptual,0.1,0.2,target,target,1,5.418
1,6,perceptual,0.1,0.05,target,target,1,5.119
1,7,perceptual,0.1,0.05,competitor,competitor,0,6.029
1,8,perceptual,0.1,0.2,competitor,target,1,4.903
1,9,numeric,0.1,0.2,target,decoy,0,6.43
1,10,numeric,0.03,0.05,target,target,1,9.668
1,11,numeric,0.03,0.2,target,target,1,7.695
1,12,numeric,0.03,0.05,target,target,1,5.837
1,13,perceptual,0.1,0.05,target,target,1,7.73
1,14,numeric,0.03,0.05,target,competitor,0,9.717
1,15,numeric,0.03,0.05,target,competitor,0,13.439
1,16,perceptual,0.03,0.2,target,target,1,6.658
1,17,perceptual,0.1,0.05,competitor,target,1,5.079
1,18,numeric,0.1,0.2,competitor,competitor,0,6.681
1,19,perceptual,0.1,0.05,target,target,1,6.008
1,20,perceptual,0.03,0.05,competitor,target,1,3.162
1,21,perceptual,0.03,0.05,target,competitor,0,5.458
1,22,numeric,0.03,0.05,competitor,target,1,6.417
1,23,numeric,0.1,0.05,competitor,target,1,10.182
1,24,numeric,0.1,0.2,target,target,1,7.763
1,25,perceptual,0.1,0.05,competitor,target,1,5.042
1,26,perceptual,0.1,0.2,competitor,target,1,4.201
1,27,perceptual,0.1,0.2,competitor,target,1,5.999
1,28,perceptual,0.03,0.2,competitor,target,1,3.862
1,29,perceptual,0.03,0.2,target,target,1,8.148
1,30,numeric,0.03,0.05,target,target,1,9.244
1,31,numeric,0.03,0.2,competitor,competitor,0,8.523
1,32,perceptual,0.03,0.2,target,competitor,0,4.909
1,33,numeric,0.03,0.2,competitor,competitor,0,8.225
1,34,numeric,0.1,0.05,target,target,1,7.108
1,35,numeric,0.03,0.05,target,competitor,0,7.73
1,36,numeric,0.03,0.2,competitor,target,1,7.632
1,37,numeric,0.03,0.05,competitor,competitor,0,11.605
1,38,numeric,0.03,0.05,target,target,1,8.465
1,39,perceptual,0.1,0.05,competitor,target,1,10.234
1,40,numeric,0.03,0.2,target,target,1,7.921
1,41,perceptual,0.1,0.2,target,decoy,0,8.066
1,42,perceptual,0.03,0.05,competitor,competitor,0,6.888
1,43,numeric,0.03,0.2,competitor,target,1,11.356
1,44,numeric,0.03,0.05,target,target,1,7.839
1,45,numeric,0.03,0.2,target,competitor,0,10.517
1,46,numeric,0.1,0.2,competitor,target,1,9.925
1,47,numeric,0.1,0.2,target,target,1,10.087
1,48,numeric,0.1,0.05,competitor,competitor,0,11.851
1,49,perceptual,0.03,0.2,target,target,1,5.261
1,50,perceptual,0.03,0.05,competitor,competitor,0,7.781
1,51,numeric,0.1,0.05,competitor,competitor,0,7.206
1,52,numeric,0.03,0.05,competitor,competitor,0,5.96
1,53,perceptual,0.1,0.05,competitor,target,1,5.008
1,54,perceptual,0.03,0.05,competitor,decoy,0,2.985
1,55,numeric,0.03,0.2,target,target,1,8.051
1,56,perceptual,0.1,0.05,target,target,1,4.358
1,57,perceptual,0.1,0.05,target,decoy,0,6.214
1,58,perceptual,0.1,0.2,competitor,target,1,3.877
1,59,perceptual,0.1,0.2,target,target,1,4.604
1,60,perceptual,0.03,0.2,competitor,target,1,3.451
1,61,numeric,0.03,0.2,target,target,1,4.147
1,62,numeric,0.1,0.2,competitor,competitor,0,7.899
1,63,numeric,0.03,0.2,competitor,competitor,0,9.418
1,64,perceptual,0.1,0.05,target,target,1,7.018
1,65,numeric,0.1,0.05,competitor,target,1,5.768
1,66,perceptual,0.03,0.05,target,competitor,0,5.749
1,67,perceptual,0.03,0.05,competitor,decoy,0,7.183
1,68,perceptual,0.03,0.05,competitor,target,1,5.116
1,69,perceptual,0.03,0.2,competitor,competitor,0,5.394
1,70,perceptual,0.1,0.2,target,target,1,3.408
1,71,numeric,0.1,0.05,competitor,target,1,7.435
1,72,numeric,0.1,0.2,target,target,1,5.801
1,73,perceptual,0.03,0.05,target,target,1,4.966
1,74,numeric,0.1,0.05,target,competitor,0,7.422
1,75,numeric,0.1,0.2,competitor,target,1,7.292
1,76,perceptual,0.1,0.2,target,target,1,5.02
1,77,perceptual,0.03,0.05,competitor,target,1,5.81
1,78,perceptual,0.1,0.2,target,target,1,4.233
1,79,perceptual,0.03,0.2,target,target,1,4.908
1,80,perceptual,0.03,0.2,competitor,target,1,4.362
1,81,perceptual,0.03,0.2,competitor,target,1,3.425
1,82,perceptual,0.03,0.05,target,competitor,0,9.686
1,83,perceptual,0.03,0.2,target,decoy,0,5.679
1,84,numeric,0.03,0.05,competitor,target,1,9.455
1,85,perceptual,0.03,0.05,target,competitor,0,7.096
1,86,perceptual,0.1,0.2,competitor,target,1,4.842
1,87,numeric,0.1,0.05,competitor,competitor,0,12.306
1,88,perceptual,0.1,0.2,competitor,target,1,5.382
1,89,perceptual,0.03,0.2,competitor,competitor,0,5.207
1,90,numeric,0.1,0.05,competitor,competitor,0,7.935
1,91,numeric,0.1,0.05,target,target,1,8.712
1,92,perceptual,0.1,0.2,competitor,target,1,3.356
1,93,numeric,0.1,0.2,competitor,competitor,0,8.715
1,94,perceptual,0.03,0.05,target,target,1,4.544
1,95,perceptual,0.03,0.05,competitor,competitor,0,7.276
1,96,numeric,0.1,0.05,competitor,target,1,6.05
1,97,numeric,0.1,0.05,target,target,1,7.794
1,98,perceptual,0.03,0.2,competitor,target,1,3.718
1,99,perceptual,0.1,0.05,target,target,1,4.246
1,100,numeric,0.03,0.05,competitor,competitor,0,9.957
1,101,numeric,0.1,0.05,target,target,1,7.63
1,102,numeric,0.1,0.2,target,target,1,1.741
1,103,perceptual,0.03,0.05,target,competitor,0,5.521
1,104,numeric,0.1,0.2,competitor,competitor,0,8.796
1,105,numeric,0.03,0.05,competitor,competitor,0,6.738
1,106,perceptual,0.1,0.05,competitor,target,1,4.855
1,107,perceptual,0.1,0.2,target,target,1,3.123
1,108,numeric,0.1,0.05,target,target,1,5.389
1,109,numeric,0.03,0.05,target,target,1,9.869
1,110,perceptual,0.03,0.2,target,target,1,3.343
1,111,perceptual,0.03,0.05,target,competitor,0,5.493
1,112,numeric,0.1,0.2,target,target,1,9.432
1,113,numeric,0.1,0.05,target,target,1,5.896
1,114,numeric,0.03,0.2,target,target,1,7.192
1,115,numeric,0.03,0.2,target,target,1,12.633
1,116,numeric,0.03,0.05,competitor,competitor,0,8.823
1,117,perceptual,0.1,0.2,competitor,target,1,3.798
1,118,numeric,0.03,0.2,competitor,competitor,0,10.98
1,119,numeric,0.1,0.05,competitor,target,1,7.361
1,120,numeric,0.03,0.05,target,target,1,11.036
1,121,perceptual,0.1,0.2,target,target,1,3.854
1,122,perceptual,0.1,0.2,target,target,1,3.881
1,123,perceptual,0.03,0.05,competitor,target,1,4.554
1,124,numeric,0.1,0.2,competitor,competitor,0,6.504
1,125,numeric,0.03,0.2,competitor,competitor,0,7.497
1,126,perceptual,0.1,0.05,target,target,1,7.459
1,127,perceptual,0.1,0.05,target,target,1,7.575
1,128,numeric,0.03,0.2,target,competitor,0,6.863
1,129,numeric,0.1,0.2,competitor,target,1,7.309
1,130,numeric,0.1,0.05,competitor,competitor,0,0.09
1,131,numeric,0.1,0.2,competitor,competitor,0,9.428
1,132,numeric,0.03,0.2,target,target,1,12.351
1,133,perceptual,0.1,0.05,target,target,1,6.106
1,134,numeric,0.03,0.2,competitor,target,1,9.352
1,135,perceptual,0.03,0.05,target,target,1,7.046
1,136,perceptual,0.03,0.2,target,target,1,5.904
1,137,numeric,0.1,0.2,competitor,target,1,7.612
1,138,numeric,0.1,0.2,competitor,competitor,0,9.149
1,139,perceptual,0.03,0.05,competitor,target,1,8.477
1,140,perceptual,0.03,0.05,competitor,decoy,0,7.691
1,141,perceptual,0.03,0.2,competitor,competitor,0,8.136
1,142,numeric,0.03,0.2,competitor,competitor,0,6.156
1,143,numeric,0.1,0.05,competitor,target,1,15.305
1,144,perceptual,0.1,0.2,competitor,target,1,4.028
1,145,numeric,0.1,0.2,target,target,1,6.472
1,146,perceptual,0.1,0.2,competitor,target,1,4.126
1,147,numeric,0.03,0.05,competitor,decoy,0,9.287
1,148,numeric,0.03,0.2,target,target,1,7.964
1,149,numeric,0.1,0.2,competitor,target,1,6.891
1,150,numeric,0.03,0.05,competitor,competitor,0,7.344
1,151,numeric,0.1,0.05,target,target,1,5.982
1,152,perceptual,0.1,0.05,target,target,1,4.531
1,153,perceptual,0.03,0.05,competitor,target,1,5.905
1,154,numeric,0.03,0.2,competitor,competitor,0,12.925
1,155,numeric,0.03,0.05,target,target,1,8.309
1,156,perceptual,0.03,0.2,target,target,1,3.646
1,157,numeric,0.1,0.2,target,target,1,7.264
1,158,perceptual,0.03,0.2,competitor,target,1,4.698
1,159,perceptual,0.1,0.05,target,target,1,5.634
1,160,numeric,0.03,0.05,competitor,competitor,0,5.099
1,161,perceptual,0.1,0.2,target,target,1,4.905
1,162,perceptual,0.03,0.2,competitor,target,1,6.464
1,163,perceptual,0.1,0.05,competitor,target,1,4.633
1,164,perceptual,0.1,0.2,target,target,1,4.193
1,165,numeric,0.1,0.05,competitor,competitor,0,8.591
1,166,numeric,0.03,0.2,competitor,target,1,8.264
1,167,numeric,0.1,0.2,target,target,1,6.719
1,168,perceptual,0.1,0.2,competitor,target,1,3.939
1,169,perceptual,0.03,0.2,competitor,target,1,5.086
1,170,perceptual,0.03,0.2,competitor,target,1,3.905
1,171,perceptual,0.03,0.05,target,target,1,5.198
1,172,numeric,0.1,0.2,target,target,1,7.061
1,173,numeric,0.1,0.05,target,decoy,0,8.38
1,174,perceptual,0.1,0.05,competitor,competitor,0,6.664
1,175,perceptual,0.1,0.05,competitor,target,1,3.743
1,176,numeric,0.1,0.2,target,target,1,6.032
1,177,perceptual,0.1,0.05,competitor,target,1,3.21
1,178,numeric,0.03,0.05,target,target,1,6.929
1,179,perceptual,0.1,0.2,competitor,target,1,5.35
1,180,numeric,0.03,0.05,competitor,target,1,10.696
1,181,perceptual,0.1,0.05,competitor,target,1,5.965
1,182,numeric,0.03,0.2,target,competitor,0,5.702
1,183,perceptual,0.03,0.05,target,target,1,7.279
1,184,numeric,0.1,0.05,target,competitor,0,12.558
1,185,numeric,0.03,0.2,target,target,1,8.352
1,186,numeric,0.1,0.05,target,decoy,0,7.635
1,187,perceptual,0.03,0.05,target,competitor,0,7.645
1,188,numeric,0.03,0.05,competitor,competitor,0,6.705
1,189,perceptual,0.03,0.2,target,target,1,3.622
1,190,perceptual,0.1,0.05,competitor,target,1,4.133
1,191,perceptual,0.1,0.2,target,competitor,0,7.975
1,192,numeric,0.03,0.2,competitor,competitor,0,7.202
2,1,numeric,0.03,0.2,target,target,1,10.965
2,2,perceptual,0.1,0.2,competitor,target,1,8.971
2,3,numeric,0.1,0.05,target,target,1,13.252
2,4,numeric,0.03,0.2,competitor,target,1,9.765
2,5,perceptual,0.03,0.2,competitor,competitor,0,10.256
2,6,numeric,0.1,0.05,competitor,competitor,0,8.271
2,7,numeric,0.1,0.05,competitor,target,1,7.454
2,8,perceptual,0.1,0.2,competitor,target,1,11.149
2,9,numeric,0.1,0.05,competitor,target,1,12.038
2,10,perceptual,0.03,0.05,target,target,1,7.186
2,11,perceptual,0.1,0.2,target,target,1,4.613
2,12,numeric,0.1,0.2,competitor,competitor,0,16.442
2,13,numeric,0.03,0.2,target,target,1,12.275
2,14,perceptual,0.03,0.05,target,competitor,0,12.111
2,15,numeric,0.1,0.2,target,target,1,12.085
2,16,numeric,0.1,0.05,target,decoy,0,6.387
2,17,perceptual,0.1,0.05,target,target,1,10.581
2,18,numeric,0.03,0.2,competitor,competitor,0,12.783
2,19,perceptual,0.03,0.2,competitor,decoy,0,12.146
2,20,numeric,0.1,0.05,competitor,target,1,7.13
2,21,numeric,0.1,0.2,competitor,target,1,10.137
2,22,numeric,0.03,0.2,competitor,competitor,0,14.783
2,23,perceptual,0.1,0.2,target,target,1,4.876
2,24,perceptual,0.03,0.05,target,competitor,0,5.776
2,25,perceptual,0.03,0.05,competitor,competitor,0,7.112
2,26,perceptual,0.03,0.2,target,target,1,8.65
2,27,numeric,0.1,0.05,competitor,competitor,0,13.785
2,28,perceptual,0.1,0.2,target,target,1,5.298
2,29,perceptual,0.03,0.05,target,decoy,0,14.091
2,30,perceptual,0.03,0.05,target,target,1,6.063
2,31,numeric,0.03,0.05,target,target,1,8.227
2,32,perceptual,0.03,0.05,target,target,1,7.758
2,33,numeric,0.1,0.2,competitor,target,1,14.233
2,34,perceptual,0.1,0.2,target,target,1,6.419
2,35,perceptual,0.1,0.2,competitor,target,1,14.23
2,36,numeric,0.03,0.05,competitor,competitor,0,12.578
2,37,numeric,0.1,0.05,competitor,target,1,14.667
2,38,perceptual,0.1,0.05,competitor,competitor,0,7.5
2,39,perceptual,0.1,0.2,target,target,1,13.504
2,40,perceptual,0.03,0.2,competitor,competitor,0,11.125
2,41,perceptual,0.1,0.2,target,target,1,13.476
2,42,perceptual,0.03,0.05,competitor,target,1,14.069
2,43,perceptual,0.03,0.2,competitor,target,1,9.42
2,44,perceptual,0.1,0.05,target,competitor,0,14.904
2,45,perceptual,0.1,0.05,target,target,1,16.282
2,46,perceptual,0.1,0.05,competitor,target,1,11.407
2,47,perceptual,0.03,0.05,competitor,target,1,14.44
2,48,perceptual,0.03,0.2,competitor,competitor,0,10.581
2,49,perceptual,0.1,0.2,target,target,1,5.73
2,50,numeric,0.1,0.05,target,target,1,8.191
2,51,numeric,0.03,0.05,competitor,competitor,0,8.854
2,52,numeric,0.03,0.05,target,target,1,11.298
2,54,perceptual,0.03,0.05,target,target,1,6.265
2,55,perceptual,0.03,0.2,competitor,target,1,7.453
2,56,numeric,0.03,0.2,target,target,1,4.544
2,57,numeric,0.03,0.05,target,target,1,8.816
2,58,numeric,0.1,0.05,target,target,1,5.316
2,59,numeric,0.03,0.05,target,target,1,6.903
2,60,perceptual,0.03,0.2,competitor,competitor,0,6.034
2,61,numeric,0.03,0.05,competitor,competitor,0,6.623
2,62,numeric,0.1,0.05,target,target,1,11.322
2,63,perceptual,0.03,0.05,target,target,1,8.424
2,64,perceptual,0.03,0.05,competitor,competitor,0,19.559
2,65,numeric,0.1,0.05,target,target,1,6.702
2,66,perceptual,0.1,0.05,target,target,1,5.319
2,67,perceptual,0.1,0.2,competitor,competitor,0,6.521
2,68,perceptual,0.1,0.05,target,target,1,9.292
2,69,numeric,0.1,0.2,competitor,target,1,10.172
2,70,perceptual,0.1,0.05,target,decoy,0,8.494
2,71,perceptual,0.1,0.05,competitor,target,1,6.805
2,72,numeric,0.03,0.2,competitor,target,1,8.375
2,73,perceptual,0.1,0.2,target,competitor,0,15.09
2,74,perceptual,0.03,0.05,competitor,target,1,9.836
2,75,perceptual,0.03,0.05,competitor,decoy,0,5.654
2,76,numeric,0.1,0.2,target,target,1,5.76
2,77,perceptual,0.1,0.2,competitor,target,1,11.818
2,78,perceptual,0.03,0.2,competitor,competitor,0,5.538
2,79,numeric,0.1,0.05,target,target,1,8.315
2,80,perceptual,0.1,0.2,competitor,target,1,5.76
2,81,numeric,0.1,0.2,target,target,1,6.779
2,82,numeric,0.1,0.2,target,target,1,8.741
2,83,perceptual,0.03,0.05,competitor,decoy,0,16.136
2,84,perceptual,0.03,0.2,target,target,1,7.807
2,85,perceptual,0.03,0.2,target,target,1,11.503
2,86,numeric,0.1,0.05,competitor,target,1,11.493
2,87,numeric,0.03,0.2,target,target,1,6.108
2,88,numeric,0.03,0.2,target,competitor,0,5.81
2,89,perceptual,0.1,0.2,competitor,competitor,0,7.293
2,90,numeric,0.1,0.05,competitor,target,1,9.624
2,91,perceptual,0.03,0.2,target,target,1,3.735
2,92,numeric,0.03,0.2,competitor,competitor,0,13.843
2,93,numeric,0.03,0.2,target,target,1,6.393
2,94,perceptual,0.03,0.2,target,target,1,5.885
2,95,perceptual,0.1,0.2,target,target,1,13.522
2,96,numeric,0.1,0.05,target,target,1,10.726
2,97,perceptual,0.1,0.2,target,competitor,0,19.08
2,98,numeric,0.03,0.2,competitor,target,1,5.141
2,99,numeric,0.1,0.2,target,target,1,18.341
2,100,numeric,0.03,0.05,competitor,target,1,5.576
2,101,numeric,0.1,0.05,competitor,target,1,7.157
2,102,perceptual,0.03,0.05,target,target,1,7.766
2,103,numeric,0.1,0.05,target,target,1,8.352
2,104,numeric,0.03,0.05,target,target,1,9.185
2,105,numeric,0.03,0.2,target,target,1,7.62
2,106,numeric,0.1,0.2,competitor,competitor,0,6.298
2,107,numeric,0.1,0.2,target,target,1,6.444
2,108,perceptual,0.1,0.2,competitor,target,1,5.32
2,109,numeric,0.03,0.05,competitor,competitor,0,6.15
2,110,numeric,0.03,0.05,competitor,target,1,10.644
2,111,numeric,0.1,0.05,competitor,competitor,0,10.143
2,112,perceptual,0.1,0.05,target,target,1,5.597
2,113,numeric,0.03,0.05,target,target,1,13.829
2,114,perceptual,0.1,0.05,competitor,competitor,0,7.154
2,115,perceptual,0.1,0.05,target,target,1,9.107
2,116,numeric,0.03,0.05,target,target,1,5.357
2,117,perceptual,0.03,0.05,competitor,competitor,0,8.552
2,118,numeric,0.03,0.2,competitor,competitor,0,3.673
2,119,numeric,0.1,0.2,competitor,competitor,0,6.59
2,120,numeric,0.1,0.2,target,target,1,9.065
2,121,perceptual,0.1,0.05,target,target,1,6.591
2,122,numeric,0.03,0.2,competitor,target,1,9.79
2,123,numeric,0.03,0.2,target,target,1,8.651
2,124,perceptual,0.1,0.05,competitor,target,1,7.938
2,125,numeric,0.03,0.05,competitor,competitor,0,10.746
2,126,perceptual,0.03,0.05,competitor,target,1,12.032
2,127,numeric,0.1,0.2,target,target,1,5.095
2,128,perceptual,0.03,0.05,target,target,1,8.736
2,129,perceptual,0.1,0.05,competitor,target,1,4.633
2,130,numeric,0.03,0.2,target,competitor,0,6.545
2,131,perceptual,0.1,0.2,competitor,competitor,0,4.492
2,132,perceptual,0.1,0.2,target,target,1,4.286
2,133,perceptual,0.1,0.05,competitor,target,1,5.863
2,134,numeric,0.03,0.2,target,target,1,5.194
2,135,perceptual,0.03,0.2,competitor,decoy,0,7.03
2,136,perceptual,0.03,0.2,target,target,1,9.023
2,137,perceptual,0.1,0.05,target,target,1,7.763
2,138,numeric,0.03,0.2,competitor,target,1,8.929
2,139,numeric,0.03,0.05,target,target,1,4.95
2,140,perceptual,0.03,0.05,target,target,1,4.696
2,141,perceptual,0.03,0.05,target,target,1,5.272
2,142,perceptual,0.1,0.05,competitor,target,1,17.729
2,143,numeric,0.1,0.2,competitor,competitor,0,5.929
2,144,numeric,0.03,0.2,target,target,1,5.741
2,145,perceptual,0.1,0.05,competitor,target,1,5.555
2,146,numeric,0.03,0.05,competitor,competitor,0,4.956
2,147,perceptual,0.03,0.2,target,competitor,0,5.904
2,148,numeric,0.1,0.2,competitor,target,1,4.013
2,149,numeric,0.1,0.2,competitor,competitor,0,6.052
2,150,numeric,0.03,0.05,target,competitor,0,5.344
2,151,perceptual,0.03,0.2,competitor,competitor,0,4.249
2,152,numeric,0.1,0.2,competitor,target,1,7.832
2,153,numeric,0.1,0.2,target,target,1,5.188
2,154,numeric,0.1,0.05,competitor,competitor,0,5.479
2,155,numeric,0.03,0.05,target,target,1,11.435
2,156,numeric,0.1,0.2,competitor,target,1,5.075
2,157,numeric,0.1,0.05,competitor,target,1,7.84
2,158,perceptual,0.1,0.05,competitor,competitor,0,6.792
2,159,perceptual,0.1,0.05,competitor,competitor,0,5.556
2,160,numeric,0.1,0.05,target,target,1,5.822
2,161,perceptual,0.03,0.2,target,target,1,5.157
2,162,numeric,0.1,0.2,target,target,1,4.947
2,163,numeric,0.03,0.05,competitor,competitor,0,3.899
2,164,perceptual,0.03,0.2,target,target,1,4.49
2,165,perceptual,0.1,0.05,target,target,1,5.257
2,166,perceptual,0.1,0.2,competitor,target,1,3.108
2,167,perceptual,0.03,0.2,target,target,1,3.209
2,168,perceptual,0.1,0.05,competitor,target,1,3.603
2,169,numeric,0.03,0.05,competitor,competitor,0,4.712
2,170,perceptual,0.03,0.05,competitor,target,1,8.226
2,171,perceptual,0.1,0.2,competitor,target,1,13.432
2,172,numeric,0.03,0.05,competitor,target,1,5.916
2,173,perceptual,0.1,0.05,target,target,1,10.833
2,174,numeric,0.03,0.2,target,target,1,4.647
2,175,numeric,0.03,0.2,competitor,competitor,0,7.476
2,176,numeric,0.03,0.05,competitor,target,1,6.479
2,177,numeric,0.1,0.2,target,target,1,4.385
2,178,numeric,0.03,0.05,target,target,1,7.531
2,179,perceptual,0.03,0.2,target,target,1,7.736
2,180,numeric,0.1,0.2,target,target,1,5.734
2,181,perceptual,0.03,0.05,competitor,target,1,4.529
2,182,numeric,0.1,0.05,target,decoy,0,5.006
2,183,numeric,0.03,0.05,target,target,1,5.954
2,184,perceptual,0.1,0.2,competitor,target,1,3.246
2,185,numeric,0.1,0.05,target,target,1,5.844
2,186,perceptual,0.03,0.2,competitor,target,1,5.335
2,187,perceptual,0.1,0.2,target,target,1,4.467
2,188,numeric,0.03,0.2,competitor,target,1,13.695
2,189,perceptual,0.03,0.2,target,target,1,5.171
2,190,perceptual,0.03,0.2,competitor,target,1,9.965
2,191,numeric,0.1,0.2,competitor,target,1,5.695
2,192,numeric,0.03,0.2,competitor,competitor,0,7.478
3,1,numeric,0.1,0.05,target,decoy,0,14.063
3,2,perceptual,0.03,0.05,competitor,competitor,0,6.315
3,3,numeric,0.1,0.05,competitor,competitor,0,7.461
3,4,numeric,0.1,0.05,competitor,target,1,5.25
3,5,perceptual,0.03,0.2,competitor,target,1,5.004
3,7,numeric,0.03,0.05,target,competitor,0,4.507
3,8,perceptual,0.1,0.05,target,target,1,6.507
3,9,numeric,0.1,0.2,competitor,competitor,0,12.048
3,10,numeric,0.03,0.2,competitor,target,1,12.008
3,11,numeric,0.1,0.05,competitor,decoy,0,12.903
3,12,numeric,0.03,0.05,competitor,target,1,4.982
3,13,perceptual,0.1,0.05,competitor,target,1,3.731
3,14,numeric,0.1,0.2,target,target,1,8.651
3,15,perceptual,0.03,0.2,competitor,target,1,9.787
3,16,perceptual,0.1,0.05,competitor,target,1,6.516
3,17,perceptual,0.03,0.05,target,target,1,10.858
3,18,numeric,0.03,0.2,target,competitor,0,11.346
3,19,perceptual,0.1,0.2,competitor,target,1,3.093
3,20,numeric,0.1,0.05,competitor,competitor,0,9.471
3,21,perceptual,0.1,0.2,target,target,1,4.933
3,22,numeric,0.1,0.05,competitor,target,1,6.606
3,23,numeric,0.03,0.2,target,competitor,0,6.326
3,24,perceptual,0.03,0.2,target,target,1,7.149
3,25,perceptual,0.03,0.05,target,competitor,0,3.988
3,26,perceptual,0.1,0.05,competitor,decoy,0,7.73
3,27,perceptual,0.03,0.05,target,target,1,5.557
3,28,perceptual,0.03,0.2,competitor,target,1,5.215
3,29,numeric,0.1,0.2,target,target,1,5.99
3,30,numeric,0.03,0.05,competitor,competitor,0,8.331
3,31,perceptual,0.03,0.05,competitor,decoy,0,6.556
3,32,perceptual,0.1,0.05,competitor,competitor,0,7.834
3,33,numeric,0.1,0.05,competitor,target,1,4.508
3,34,numeric,0.03,0.2,target,target,1,6.448
3,35,perceptual,0.1,0.05,target,target,1,5.878
3,36,perceptual,0.1,0.05,target,target,1,6.458
3,37,perceptual,0.1,0.2,target,decoy,0,5.299
3,38,perceptual,0.03,0.05,target,decoy,0,4.014
3,39,perceptual,0.03,0.2,target,decoy,0,3.766
3,40,numeric,0.03,0.2,target,target,1,9.041
3,41,numeric,0.03,0.05,competitor,competitor,0,7.563
3,42,perceptual,0.03,0.05,competitor,target,1,4.06
3,43,numeric,0.03,0.2,target,target,1,4.199
3,44,perceptual,0.1,0.2,target,target,1,6.714
3,45,perceptual,0.1,0.2,target,target,1,4.909
3,46,numeric,0.1,0.05,target,decoy,0,6.019
3,47,perceptual,0.03,0.2,competitor,target,1,5.385
3,48,numeric,0.1,0.2,competitor,target,1,6.087
3,49,perceptual,0.03,0.05,competitor,decoy,0,4.31
3,50,numeric,0.1,0.05,competitor,competitor,0,3.627
3,51,numeric,0.1,0.05,target,competitor,0,3.169
3,52,numeric,0.1,0.05,target,target,1,3.573
3,53,perceptual,0.1,0.2,target,target,1,3.014
3,54,numeric,0.03,0.2,competitor,competitor,0,6.334
3,55,perceptual,0.03,0.05,target,target,1,3.345
3,56,numeric,0.03,0.05,competitor,competitor,0,5.658
3,57,numeric,0.1,0.2,target,target,1,5.131
3,58,perceptual,0.03,0.2,target,competitor,0,5.604
3,59,numeric,0.1,0.2,competitor,competitor,0,5.588
3,60,numeric,0.1,0.05,target,target,1,8.593
3,61,perceptual,0.1,0.05,competitor,target,1,5.182
3,62,perceptual,0.1,0.05,target,competitor,0,3.689
3,63,numeric,0.1,0.05,competitor,target,1,7.188
3,64,perceptual,0.1,0.05,target,decoy,0,3.905
3,65,numeric,0.03,0.05,target,competitor,0,7.37
3,66,perceptual,0.03,0.05,competitor,target,1,3.314
3,67,perceptual,0.03,0.05,competitor,competitor,0,2.979
3,68,numeric,0.1,0.2,target,target,1,8.373
3,69,perceptual,0.1,0.05,competitor,competitor,0,3.098
3,70,numeric,0.1,0.2,competitor,target,1,6.447
3,71,perceptual,0.03,0.2,target,competitor,0,3.793
3,72,numeric,0.1,0.05,target,decoy,0,2.43
3,73,numeric,0.03,0.05,competitor,target,1,2.446
3,74,perceptual,0.03,0.05,target,competitor,0,4.216
3,75,perceptual,0.03,0.2,target,decoy,0,2.344
3,76,perceptual,0.03,0.2,competitor,decoy,0,4.452
3,77,numeric,0.03,0.2,competitor,target,1,3.688
3,78,numeric,0.03,0.05,competitor,target,1,4.002
3,79,numeric,0.03,0.2,competitor,target,1,2.662
3,80,numeric,0.03,0.2,target,competitor,0,3.135
3,81,perceptual,0.1,0.2,competitor,decoy,0,3.006
3,82,perceptual,0.03,0.2,competitor,target,1,2.628
3,83,perceptual,0.03,0.2,competitor,target,1,2.616
3,84,numeric,0.03,0.2,target,decoy,0,7.89
3,85,numeric,0.03,0.2,target,competitor,0,10.167
3,86,perceptual,0.1,0.05,competitor,target,1,3.616
3,87,numeric,0.1,0.2,target,competitor,0,3.565
3,88,perceptual,0.1,0.2,target,target,1,2.303
3,89,numeric,0.1,0.2,competitor,target,1,8.8
3,90,numeric,0.03,0.05,competitor,competitor,0,7.512
3,91,perceptual,0.03,0.05,target,competitor,0,3.347
3,92,numeric,0.1,0.05,target,target,1,10.129
3,93,numeric,0.03,0.05,competitor,competitor,0,7.212
3,94,numeric,0.03,0.05,target,target,1,5.499
3,95,numeric,0.1,0.05,target,target,1,7.162
3,96,numeric,0.1,0.2,competitor,competitor,0,7.278
3,97,perceptual,0.1,0.05,target,target,1,6.196
3,98,perceptual,0.03,0.05,target,competitor,0,6.04
3,99,numeric,0.03,0.2,competitor,competitor,0,5.049
3,100,perceptual,0.03,0.05,target,decoy,0,4.117
3,101,numeric,0.03,0.2,target,competitor,0,4.782
3,102,perceptual,0.1,0.05,competitor,competitor,0,4.187
3,103,perceptual,0.1,0.2,competitor,competitor,0,2.498
3,104,numeric,0.03,0.05,competitor,target,1,5.776
3,105,numeric,0.03,0.2,target,target,1,4.95
3,106,perceptual,0.1,0.2,target,target,1,3.362
3,107,numeric,0.03,0.05,target,target,1,6.449
3,108,numeric,0.03,0.05,target,competitor,0,4.877
3,109,perceptual,0.1,0.2,target,competitor,0,4.139
3,110,numeric,0.03,0.2,competitor,target,1,3.821
3,111,numeric,0.1,0.2,target,target,1,3.773
3,112,numeric,0.03,0.2,target,target,1,2.328
3,113,numeric,0.1,0.2,competitor,target,1,2.897
3,114,perceptual,0.03,0.2,target,decoy,0,3.594
3,115,numeric,0.03,0.2,competitor,competitor,0,3.272
3,116,numeric,0.1,0.05,target,target,1,2.961
3,117,perceptual,0.03,0.05,competitor,competitor,0,2.949
3,118,numeric,0.03,0.05,target,target,1,5.953
3,119,numeric,0.1,0.05,competitor,target,1,3.873
3,120,numeric,0.1,0.05,competitor,target,1,5.178
3,121,perceptual,0.1,0.05,competitor,decoy,0,3.112
3,122,perceptual,0.1,0.05,competitor,competitor,0,2.901
3,123,perceptual,0.03,0.05,competitor,decoy,0,2.969
3,124,numeric,0.03,0.05,target,competitor,0,2.328
3,125,perceptual,0.03,0.05,competitor,target,1,3.748
3,126,numeric,0.03,0.05,competitor,competitor,0,3.781
3,127,numeric,0.1,0.2,competitor,decoy,0,4.027
3,128,perceptual,0.1,0.05,target,competitor,0,3.293
3,129,perceptual,0.1,0.2,competitor,competitor,0,3.971
3,130,numeric,0.03,0.2,competitor,target,1,3.075
3,131,perceptual,0.03,0.2,competitor,target,1,2.559
3,132,numeric,0.03,0.2,competitor,competitor,0,4.842
3,133,numeric,0.03,0.05,competitor,target,1,6.545
3,134,numeric,0.1,0.2,competitor,competitor,0,5.714
3,135,perceptual,0.1,0.05,target,competitor,0,3.759
3,136,numeric,0.1,0.2,target,target,1,3.057
3,137,perceptual,0.1,0.2,target,decoy,0,5.089
3,138,perceptual,0.03,0.2,target,competitor,0,2.326
3,139,perceptual,0.03,0.2,competitor,target,1,5.007
3,140,perceptual,0.03,0.05,target,target,1,3.195
3,141,perceptual,0.1,0.2,competitor,target,1,2.634
3,142,numeric,0.03,0.05,target,target,1,6.315
3,143,perceptual,0.1,0.2,competitor,decoy,0,3.229
3,144,perceptual,0.03,0.2,target,competitor,0,2.17
3,145,perceptual,0.03,0.05,target,decoy,0,4.19
3,146,perceptual,0.1,0.05,competitor,decoy,0,2.34
3,147,numeric,0.1,0.2,competitor,competitor,0,2.57
3,148,perceptual,0.03,0.2,target,decoy,0,2.595
3,149,perceptual,0.03,0.2,competitor,decoy,0,2.544
3,150,numeric,0.1,0.05,target,target,1,6.743
3,151,numeric,0.03,0.2,target,target,1,6.318
3,152,numeric,0.03,0.05,target,target,1,7.317
3,153,numeric,0.1,0.2,competitor,target,1,6.017
3,154,numeric,0.1,0.2,target,competitor,0,2.848
3,155,perceptual,0.03,0.2,competitor,decoy,0,2.42
3,156,perceptual,0.03,0.05,target,decoy,0,3.288
3,157,perceptual,0.03,0.2,target,target,1,5.222
3,158,numeric,0.03,0.05,target,target,1,5.682
3,159,numeric,0.1,0.2,competitor,target,1,2.772
3,160,numeric,0.1,0.05,target,decoy,0,3.125
3,161,perceptual,0.1,0.05,target,target,1,2.365
3,162,perceptual,0.1,0.05,target,target,1,3.887
3,163,numeric,0.03,0.2,competitor,competitor,0,3.004
3,164,perceptual,0.1,0.2,competitor,competitor,0,2.985
3,165,numeric,0.1,0.2,target,target,1,3.821
3,166,perceptual,0.03,0.05,competitor,target,1,2.948
3,167,numeric,0.1,0.2,target,target,1,6.312
3,168,perceptual,0.1,0.2,competitor,competitor,0,4.037
3,169,numeric,0.1,0.2,target,competitor,0,4.268
3,170,numeric,0.03,0.2,competitor,competitor,0,3.292
3,171,perceptual,0.03,0.05,competitor,target,1,5.916
3,172,numeric,0.03,0.05,target,competitor,0,6.874
3,173,perceptual,0.1,0.2,competitor,competitor,0,3.443
3,174,perceptual,0.03,0.2,target,competitor,0,3.987
3,175,numeric,0.1,0.05,competitor,target,1,4.018
3,176,perceptual,0.1,0.2,target,competitor,0,3.025
3,177,perceptual,0.1,0.2,target,decoy,0,2.947
3,178,perceptual,0.03,0.05,competitor,decoy,0,2.763
3,179,perceptual,0.03,0.2,target,target,1,2.488
3,180,numeric,0.1,0.2,target,competitor,0,7.237
3,181,numeric,0.1,0.05,competitor,competitor,0,5.466
3,182,perceptual,0.1,0.05,target,competitor,0,2.51
3,183,perceptual,0.03,0.2,competitor,competitor,0,3.26
3,184,perceptual,0.1,0.2,competitor,target,1,3.388
3,185,numeric,0.03,0.05,competitor,target,1,6.826
3,186,perceptual,0.1,0.2,target,competitor,0,3.351
3,187,numeric,0.03,0.2,competitor,target,1,6.927
3,188,perceptual,0.1,0.2,competitor,target,1,2.618
3,189,numeric,0.1,0.05,target,decoy,0,2.82
3,190,perceptual,0.1,0.05,competitor,target,1,2.793
3,191,perceptual,0.1,0.05,target,decoy,0,3.564
3,192,perceptual,0.1,0.2,competitor,competitor,0,4.195
4,1,perceptual,0.03,0.2,competitor,target,1,17.728
4,2,perceptual,0.1,0.2,target,target,1,3.961
4,3,numeric,0.03,0.2,target,target,1,5.274
4,4,numeric,0.1,0.05,target,target,1,8.485
4,5,perceptual,0.1,0.05,target,decoy,0,4.29
4,6,perceptual,0.03,0.2,target,target,1,4.299
4,7,perceptual,0.03,0.05,competitor,target,1,5.362
4,8,numeric,0.03,0.05,target,competitor,0,12.849
4,9,numeric,0.1,0.2,target,competitor,0,6.655
4,10,perceptual,0.03,0.05,target,target,1,6.202
4,11,perceptual,0.1,0.05,target,decoy,0,7.08
4,12,perceptual,0.03,0.05,target,target,1,6.301
4,13,numeric,0.03,0.05,target,competitor,0,9.566
4,14,perceptual,0.03,0.2,competitor,target,1,12.461
4,15,numeric,0.1,0.05,competitor,target,1,9.969
4,16,numeric,0.1,0.2,competitor,competitor,0,9.597
4,17,perceptual,0.03,0.05,target,competitor,0,7.187
4,18,numeric,0.1,0.05,competitor,target,1,8.749
4,19,perceptual,0.1,0.2,target,target,1,7.39
4,20,numeric,0.03,0.05,target,decoy,0,4.537
4,21,numeric,0.03,0.2,target,target,1,6.561
4,22,numeric,0.03,0.05,target,target,1,10.946
4,23,perceptual,0.1,0.2,competitor,target,1,4.183
4,24,perceptual,0.1,0.05,competitor,target,1,5.076
4,25,perceptual,0.1,0.2,target,target,1,6.639
4,26,perceptual,0.03,0.2,competitor,competitor,0,9.976
4,27,perceptual,0.03,0.05,competitor,competitor,0,5.95
4,28,numeric,0.03,0.05,competitor,target,1,9.478
4,29,numeric,0.1,0.05,target,decoy,0,8.875
4,30,perceptual,0.1,0.05,competitor,target,1,10.877
4,31,numeric,0.03,0.05,target,target,1,10.277
4,32,perceptual,0.1,0.2,target,target,1,8.718
4,33,perceptual,0.1,0.2,competitor,target,1,6.572
4,34,numeric,0.03,0.2,competitor,competitor,0,7.599
4,35,numeric,0.03,0.05,competitor,competitor,0,17.759
4,36,perceptual,0.03,0.05,competitor,competitor,0,0.019
4,37,numeric,0.03,0.2,target,competitor,0,11.49
4,38,perceptual,0.03,0.2,target,target,1,8.618
4,39,numeric,0.1,0.2,target,target,1,9.109
4,40,numeric,0.03,0.2,target,target,1,13.356
4,41,numeric,0.03,0.05,target,competitor,0,10.326
4,42,perceptual,0.03,0.2,target,target,1,10.005
4,43,numeric,0.1,0.2,target,target,1,6.395
4,44,numeric,0.1,0.05,competitor,target,1,12.203
4,45,numeric,0.03,0.2,competitor,target,1,11.093
4,46,numeric,0.03,0.05,competitor,competitor,0,17.961
4,48,numeric,0.1,0.05,target,competitor,0,10.369
4,49,numeric,0.1,0.2,target,target,1,7.779
4,50,perceptual,0.03,0.05,target,target,1,7.768
4,51,perceptual,0.1,0.05,competitor,target,1,3.968
4,52,numeric,0.1,0.2,competitor,target,1,5.609
4,53,perceptual,0.03,0.05,competitor,target,1,5.483
4,54,numeric,0.1,0.2,competitor,target,1,5.96
4,55,numeric,0.03,0.2,competitor,target,1,8.315
4,56,numeric,0.03,0.2,competitor,competitor,0,8.19
4,57,perceptual,0.1,0.2,competitor,target,1,4.337
4,58,perceptual,0.03,0.2,target,competitor,0,9.161
4,59,perceptual,0.1,0.05,competitor,target,1,7.277
4,60,perceptual,0.03,0.05,competitor,target,1,9.647
4,61,perceptual,0.1,0.2,target,target,1,6.516
4,62,perceptual,0.1,0.05,target,target,1,10.413
4,63,numeric,0.03,0.05,target,decoy,0,8.433
4,64,perceptual,0.1,0.2,target,competitor,0,12.211
4,65,perceptual,0.1,0.05,target,decoy,0,5.298
4,66,numeric,0.03,0.05,competitor,target,1,7.316
4,67,perceptual,0.1,0.2,competitor,target,1,6.271
4,68,perceptual,0.03,0.05,target,target,1,8.982
4,69,perceptual,0.03,0.05,competitor,target,1,4.681
4,70,numeric,0.1,0.2,target,target,1,9.38
4,71,perceptual,0.03,0.05,competitor,target,1,6.962
4,72,numeric,0.1,0.05,target,target,1,11.168
4,73,numeric,0.03,0.05,competitor,target,1,11.505
4,74,perceptual,0.1,0.05,competitor,decoy,0,11.416
4,75,numeric,0.1,0.2,competitor,target,1,9.236
4,76,perceptual,0.1,0.05,target,target,1,5.727
4,77,perceptual,0.1,0.2,target,competitor,0,9.75
4,78,perceptual,0.1,0.05,target,target,1,6.751
4,79,numeric,0.03,0.2,competitor,target,1,13.153
4,80,numeric,0.03,0.05,competitor,target,1,11.797
4,81,perceptual,0.1,0.05,target,target,1,7.821
4,82,numeric,0.1,0.2,target,target,1,7.246
4,83,perceptual,0.03,0.05,competitor,competitor,0,8.211
4,84,numeric,0.1,0.2,competitor,target,1,8.486
4,85,perceptual,0.1,0.05,competitor,target,1,7.942
4,86,numeric,0.1,0.2,target,target,1,9.771
4,87,numeric,0.1,0.05,target,target,1,7.468
4,88,numeric,0.1,0.05,target,target,1,10.067
4,89,numeric,0.03,0.2,competitor,target,1,8.362
4,90,perceptual,0.1,0.05,competitor,target,1,5.111
4,91,numeric,0.03,0.05,competitor,competitor,0,13.126
4,92,numeric,0.1,0.05,competitor,competitor,0,10.134
4,93,perceptual,0.1,0.2,competitor,target,1,11.645
4,94,perceptual,0.1,0.05,competitor,target,1,13.214
4,95,numeric,0.03,0.05,competitor,competitor,0,9.365
4,96,perceptual,0.1,0.2,competitor,competitor,0,11.001
4,97,numeric,0.1,0.05,target,target,1,9.102
4,98,numeric,0.03,0.2,target,target,1,14.277
4,99,perceptual,0.03,0.2,competitor,competitor,0,5.476
4,100,perceptual,0.03,0.05,competitor,competitor,0,8.863
4,101,numeric,0.1,0.05,target,decoy,0,12.648
4,102,perceptual,0.03,0.05,target,target,1,4.997
4,103,perceptual,0.03,0.2,competitor,target,1,6.028
4,104,perceptual,0.1,0.2,target,target,1,4.366
4,105,perceptual,0.03,0.2,target,target,1,13.411
4,106,numeric,0.1,0.2,competitor,target,1,13.298
4,107,numeric,0.1,0.05,competitor,target,1,9.534
4,108,perceptual,0.03,0.2,target,target,1,3.919
4,109,perceptual,0.03,0.2,competitor,target,1,3.412
4,110,numeric,0.1,0.2,target,competitor,0,5.546
4,111,numeric,0.1,0.2,competitor,target,1,7.553
4,112,numeric,0.03,0.05,competitor,target,1,15.959
4,113,numeric,0.03,0.05,competitor,target,1,6.268
4,114,numeric,0.03,0.05,competitor,target,1,7.748
4,115,perceptual,0.1,0.05,target,target,1,5.287
4,116,perceptual,0.1,0.2,competitor,target,1,5.9
4,117,numeric,0.1,0.05,target,target,1,5.942
4,118,numeric,0.03,0.05,target,target,1,6.084
4,119,perceptual,0.1,0.05,competitor,target,1,8.147
4,120,perceptual,0.03,0.2,target,competitor,0,7.8
4,121,perceptual,0.03,0.05,target,target,1,4.427
4,122,numeric,0.1,0.2,competitor,target,1,6.468
4,123,numeric,0.1,0.2,competitor,target,1,5.315
4,124,numeric,0.03,0.05,target,competitor,0,9.13
4,125,perceptual,0.1,0.05,target,target,1,10.196
4,126,perceptual,0.03,0.2,competitor,competitor,0,8.624
4,127,perceptual,0.1,0.05,target,competitor,0,9.118
4,128,numeric,0.1,0.05,competitor,target,1,7.948
4,129,numeric,0.03,0.2,target,target,1,5.79
4,130,perceptual,0.1,0.2,competitor,target,1,6.518
4,131,numeric,0.1,0.05,competitor,target,1,7.372
4,132,perceptual,0.03,0.2,competitor,target,1,4.055
4,133,perceptual,0.03,0.2,competitor,target,1,5.136
4,134,numeric,0.03,0.2,target,competitor,0,15.051
4,135,numeric,0.03,0.05,target,target,1,13.064
4,136,numeric,0.03,0.2,competitor,competitor,0,8.348
4,137,perceptual,0.03,0.05,target,target,1,9.743
4,138,perceptual,0.03,0.2,target,target,1,7.451
4,139,numeric,0.1,0.05,target,target,1,11.387
4,140,perceptual,0.1,0.2,competitor,target,1,8.113
4,141,numeric,0.1,0.05,target,target,1,11.158
4,142,numeric,0.1,0.2,competitor,target,1,9.596
4,143,numeric,0.1,0.05,competitor,target,1,11.343
4,144,perceptual,0.1,0.05,target,target,1,6.27
4,145,numeric,0.1,0.2,target,target,1,13.357
4,146,numeric,0.03,0.2,target,target,1,15.335
4,147,numeric,0.1,0.2,competitor,target,1,11.178
4,148,perceptual,0.03,0.2,competitor,competitor,0,5.663
4,149,perceptual,0.1,0.2,target,target,1,4.193
4,150,numeric,0.03,0.2,target,target,1,10.155
4,151,numeric,0.1,0.05,target,target,1,5.224
4,152,numeric,0.03,0.2,competitor,target,1,8.466
4,154,numeric,0.03,0.2,competitor,competitor,0,5.974
4,155,perceptual,0.03,0.05,competitor,target,1,5.94
4,156,perceptual,0.03,0.2,target,competitor,0,6.673
4,157,perceptual,0.1,0.05,target,decoy,0,4.436
4,158,numeric,0.03,0.2,competitor,target,1,5.1
4,159,numeric,0.03,0.2,target,target,1,12.684
4,160,numeric,0.03,0.2,target,competitor,0,10.92
4,161,perceptual,0.1,0.2,target,target,1,3.23
4,162,numeric,0.03,0.05,competitor,target,1,8.37
4,163,perceptual,0.1,0.2,competitor,target,1,3.793
4,164,perceptual,0.1,0.05,competitor,target,1,3.854
4,165,numeric,0.03,0.05,target,target,1,6.598
4,166,numeric,0.1,0.2,target,target,1,11.809
4,167,numeric,0.1,0.2,competitor,target,1,12.537
4,168,perceptual,0.1,0.2,target,target,1,6.906
4,169,numeric,0.1,0.05,competitor,target,1,10.009
4,170,perceptual,0.1,0.2,target,target,1,8.429
4,171,perceptual,0.03,0.05,competitor,target,1,9.439
4,172,perceptual,0.1,0.2,competitor,target,1,6.532
4,173,perceptual,0.03,0.2,target,target,1,3.433
4,174,perceptual,0.03,0.2,competitor,target,1,4.423
4,175,perceptual,0.1,0.2,competitor,target,1,7.133
4,176,perceptual,0.03,0.2,target,target,1,6.942
4,177,perceptual,0.03,0.2,target,competitor,0,3.081
4,178,perceptual,0.1,0.05,competitor,target,1,5.521
4,179,perceptual,0.03,0.05,competitor,target,1,8.889
4,180,perceptual,0.03,0.05,target,decoy,0,2.763
4,181,numeric,0.03,0.05,target,target,1,7.683
4,182,perceptual,0.03,0.05,target,decoy,0,9.508
4,183,numeric,0.1,0.2,target,target,1,11.363
4,184,perceptual,0.03,0.05,target,decoy,0,8.548
4,185,perceptual,0.03,0.05,target,target,1,10.198
4,186,numeric,0.03,0.2,target,target,1,7.512
4,187,numeric,0.03,0.2,competitor,target,1,10.12
4,188,numeric,0.1,0.05,competitor,target,1,9.999
4,189,numeric,0.1,0.05,competitor,target,1,10.238
4,190,perceptual,0.1,0.05,competitor,target,1,5.236
4,191,numeric,0.1,0.2,target,target,1,5.898
4,192,perceptual,0.03,0.2,competitor,target,1,3.49
5,1,perceptual,0.1,0.2,target,target,1,12.143
5,2,numeric,0.1,0.05,competitor,target,1,8.881
5,3,numeric,0.1,0.2,competitor,target,1,0.244
5,4,perceptual,0.1,0.05,target,target,1,7.187
5,5,perceptual,0.03,0.05,target,target,1,10.422
5,6,numeric,0.1,0.2,target,target,1,6.476
5,7,perceptual,0.03,0.05,competitor,target,1,9.75
5,8,perceptual,0.1,0.05,target,target,1,12.026
5,9,numeric,0.1,0.2,target,target,1,10.14
5,10,perceptual,0.03,0.05,competitor,target,1,11.485
5,11,perceptual,0.03,0.05,target,target,1,15.718
5,12,numeric,0.1,0.05,target,target,1,10.507
5,13,numeric,0.1,0.2,competitor,target,1,8.083
5,14,numeric,0.1,0.05,competitor,target,1,12.734
5,15,numeric,0.03,0.05,target,target,1,7.058
5,16,numeric,0.03,0.2,competitor,target,1,8.274
5,17,numeric,0.1,0.05,competitor,competitor,0,11.845
5,18,perceptual,0.1,0.05,competitor,target,1,7.852
5,19,numeric,0.1,0.2,competitor,competitor,0,13.936
5,20,perceptual,0.1,0.05,target,decoy,0,7.876
5,21,perceptual,0.03,0.05,target,target,1,8.461
5,22,numeric,0.1,0.2,target,target,1,8.799
5,23,perceptual,0.1,0.2,target,target,1,3.488
5,24,perceptual,0.03,0.2,target,competitor,0,3.836
5,25,perceptual,0.03,0.05,competitor,decoy,0,8.185
5,26,perceptual,0.03,0.2,target,competitor,0,3.271
5,27,perceptual,0.1,0.2,competitor,target,1,5.893
5,28,numeric,0.03,0.05,competitor,target,1,9.839
5,29,numeric,0.1,0.2,target,target,1,14.286
5,30,numeric,0.03,0.05,competitor,target,1,13.332
5,31,perceptual,0.1,0.2,target,target,1,7.745
5,32,numeric,0.03,0.2,competitor,competitor,0,7.709
5,33,numeric,0.1,0.2,competitor,competitor,0,16.957
5,34,perceptual,0.03,0.2,target,competitor,0,3.979
5,35,perceptual,0.03,0.05,target,competitor,0,7.81
5,36,numeric,0.03,0.05,target,decoy,0,9.192
5,37,perceptual,0.03,0.05,target,target,1,16.839
5,38,perceptual,0.03,0.2,competitor,target,1,8.445
5,39,perceptual,0.1,0.05,target,target,1,5.211
5,40,perceptual,0.03,0.2,competitor,target,1,3.914
5,41,perceptual,0.03,0.05,competitor,target,1,8.442
5,42,numeric,0.03,0.2,target,target,1,9.175
5,43,numeric,0.03,0.2,target,target,1,6.846
5,44,perceptual,0.03,0.2,competitor,target,1,4.45
5,45,numeric,0.1,0.05,target,target,1,5.209
5,46,perceptual,0.03,0.05,competitor,target,1,2.83
5,47,numeric,0.03,0.05,target,target,1,15.521
5,48,perceptual,0.1,0.05,competitor,target,1,7.562
5,49,perceptual,0.1,0.05,target,target,1,6.757
5,50,numeric,0.03,0.2,target,target,1,4.955
5,51,numeric,0.1,0.05,target,target,1,6.464
5,52,numeric,0.1,0.05,target,target,1,6.596
5,53,numeric,0.1,0.2,competitor,target,1,8.433
5,54,numeric,0.03,0.2,target,target,1,9.131
5,55,numeric,0.1,0.2,competitor,target,1,9.647
5,56,numeric,0.1,0.05,competitor,target,1,18.545
5,57,numeric,0.03,0.05,target,target,1,6.5
5,58,numeric,0.03,0.05,competitor,competitor,0,12.649
5,59,perceptual,0.1,0.2,target,target,1,6.824
5,60,perceptual,0.03,0.2,competitor,target,1,3.234
5,61,perceptual,0.03,0.2,target,target,1,3.786
5,62,perceptual,0.03,0.2,target,target,1,4.422
5,63,perceptual,0.1,0.2,target,target,1,6.841
5,64,numeric,0.03,0.2,target,target,1,11.359
5,65,perceptual,0.1,0.2,competitor,target,1,6.258
5,66,perceptual,0.1,0.05,competitor,target,1,2.82
5,67,perceptual,0.1,0.05,target,decoy,0,3.781
5,68,perceptual,0.1,0.2,target,competitor,0,6.626
5,69,numeric,0.1,0.2,competitor,target,1,17.786
5,70,perceptual,0.03,0.2,target,target,1,5.683
5,71,perceptual,0.03,0.2,competitor,competitor,0,2.207
5,72,perceptual,0.03,0.05,competitor,target,1,3.031
5,73,numeric,0.03,0.05,competitor,competitor,0,5.904
5,74,perceptual,0.03,0.05,target,target,1,6.546
5,75,perceptual,0.03,0.2,target,target,1,3.444
5,76,perceptual,0.1,0.05,competitor,competitor,0,5.974
5,77,perceptual,0.1,0.2,competitor,target,1,8.102
5,78,numeric,0.03,0.05,target,target,1,12.131
5,79,numeric,0.1,0.2,competitor,target,1,8.494
5,80,perceptual,0.03,0.2,competitor,competitor,0,4.853
5,81,perceptual,0.03,0.05,target,target,1,5.844
5,82,perceptual,0.1,0.2,target,target,1,4.177
5,83,perceptual,0.1,0.2,competitor,competitor,0,3.639
5,84,perceptual,0.03,0.05,competitor,target,1,6.048
5,85,perceptual,0.1,0.05,competitor,target,1,3.093
5,86,numeric,0.1,0.2,target,target,1,11.754
5,87,perceptual,0.1,0.05,competitor,target,1,3.054
5,88,numeric,0.1,0.2,competitor,competitor,0,15.756
5,89,perceptual,0.1,0.05,target,target,1,4.394
5,90,numeric,0.1,0.05,competitor,target,1,11.887
5,91,perceptual,0.1,0.2,competitor,decoy,0,2.787
5,92,numeric,0.03,0.05,target,target,1,5.798
5,93,numeric,0.1,0.2,target,target,1,7.484
5,94,perceptual,0.03,0.2,competitor,target,1,2.54
5,95,numeric,0.1,0.05,target,target,1,4.915
5,97,numeric,0.03,0.05,competitor,competitor,0,6.804
5,98,numeric,0.1,0.05,competitor,target,1,10.048
5,99,perceptual,0.1,0.05,competitor,competitor,0,3.904
5,100,perceptual,0.03,0.05,target,decoy,0,2.861
5,101,perceptual,0.03,0.05,competitor,decoy,0,4.19
5,102,numeric,0.1,0.2,target,target,1,15.084
5,103,perceptual,0.03,0.05,competitor,competitor,0,6.896
5,104,numeric,0.03,0.05,target,target,1,7.849
5,105,numeric,0.1,0.05,competitor,target,1,7.761
5,106,numeric,0.03,0.2,competitor,target,1,5.833
5,107,numeric,0.1,0.05,target,target,1,4.749
5,108,perceptual,0.1,0.2,target,decoy,0,2.576
5,109,numeric,0.03,0.05,competitor,competitor,0,11.529
5,110,numeric,0.1,0.05,target,target,1,7.702
5,111,numeric,0.1,0.05,competitor,target,1,7.478
5,112,numeric,0.03,0.2,competitor,competitor,0,8.61
5,113,numeric,0.1,0.2,target,target,1,8.503
5,114,perceptual,0.03,0.2,target,competitor,0,5.042
5,115,perceptual,0.1,0.05,competitor,target,1,3.669
5,116,numeric,0.03,0.2,target,target,1,4.462
5,117,perceptual,0.03,0.2,target,competitor,0,5.45
5,118,numeric,0.1,0.05,target,target,1,4.943
5,119,numeric,0.03,0.05,competitor,competitor,0,7.631
5,120,numeric,0.03,0.2,competitor,competitor,0,8.372
5,121,numeric,0.1,0.2,target,target,1,11.084
5,122,numeric,0.1,0.2,target,target,1,6.171
5,123,numeric,0.03,0.2,target,target,1,9.631
5,124,numeric,0.1,0.2,competitor,target,1,16.086
5,125,numeric,0.1,0.2,target,target,1,7.109
5,126,perceptual,0.03,0.2,competitor,target,1,5.229
5,127,numeric,0.03,0.05,target,target,1,10.665
5,128,numeric,0.03,0.2,target,target,1,11.821
5,129,numeric,0.03,0.05,competitor,target,1,6.179
5,130,numeric,0.03,0.2,competitor,competitor,0,9.813
5,131,perceptual,0.03,0.05,competitor,competitor,0,6.691
5,132,numeric,0.1,0.2,competitor,competitor,0,16.608
5,133,perceptual,0.1,0.05,competitor,competitor,0,3.38
5,134,numeric,0.1,0.05,target,target,1,13.914
5,135,numeric,0.1,0.05,target,target,1,8.376
5,136,perceptual,0.03,0.2,target,target,1,4.585
5,137,numeric,0.03,0.05,target,target,1,5.312
5,138,numeric,0.03,0.05,target,target,1,8.647
5,139,numeric,0.03,0.2,target,target,1,7.472
5,140,perceptual,0.1,0.2,competitor,target,1,7.756
5,141,perceptual,0.1,0.2,target,target,1,5.496
5,142,perceptual,0.03,0.2,target,competitor,0,3.91
5,143,perceptual,0.1,0.05,competitor,target,1,6.129
5,144,numeric,0.03,0.05,target,target,1,9.027
5,145,perceptual,0.03,0.05,target,target,1,6.344
5,146,numeric,0.03,0.2,competitor,target,1,10.446
5,147,perceptual,0.1,0.2,competitor,competitor,0,2.529
5,148,numeric,0.03,0.2,competitor,competitor,0,16.998
5,149,perceptual,0.1,0.05,target,target,1,7.166
5,150,numeric,0.03,0.2,target,target,1,6.82
5,151,numeric,0.1,0.05,competitor,target,1,8.287
5,152,numeric,0.03,0.05,competitor,competitor,0,11.67
5,153,numeric,0.1,0.05,target,target,1,11.467
5,154,perceptual,0.1,0.2,competitor,target,1,4.332
5,155,numeric,0.1,0.05,competitor,competitor,0,10.213
5,156,numeric,0.1,0.05,competitor,competitor,0,13.783
5,157,perceptual,0.1,0.2,competitor,target,1,3.057
5,158,perceptual,0.1,0.2,competitor,target,1,2.079
5,159,numeric,0.03,0.05,competitor,competitor,0,8.892
5,160,perceptual,0.1,0.05,competitor,target,1,4.477
5,161,perceptual,0.1,0.2,competitor,target,1,6.128
5,162,numeric,0.03,0.05,competitor,competitor,0,9.487
5,163,perceptual,0.1,0.2,competitor,target,1,3.694
5,164,perceptual,0.03,0.05,target,competitor,0,6.273
5,165,numeric,0.1,0.2,target,target,1,7.62
5,166,perceptual,0.03,0.2,competitor,competitor,0,7.075
5,167,numeric,0.03,0.2,target,target,1,12.224
5,168,perceptual,0.03,0.2,competitor,competitor,0,3.91
5,169,numeric,0.1,0.05,target,target,1,5.766
5,170,perceptual,0.1,0.2,target,target,1,3.619
5,171,perceptual,0.1,0.05,target,target,1,3.604
5,172,numeric,0.1,0.05,competitor,target,1,6.692
5,173,perceptual,0.03,0.05,competitor,target,1,9.395
5,174,perceptual,0.1,0.05,target,target,1,8.45
5,175,perceptual,0.03,0.2,competitor,competitor,0,6.488
5,176,perceptual,0.1,0.05,target,target,1,7.568
5,177,perceptual,0.1,0.2,target,target,1,7.153
5,178,perceptual,0.1,0.2,target,target,1,7.473
5,179,numeric,0.03,0.05,target,target,1,7.434
5,180,perceptual,0.03,0.05,target,target,1,10.313
5,181,numeric,0.03,0.2,competitor,target,1,5.948
5,182,numeric,0.03,0.2,competitor,competitor,0,12.79
5,183,numeric,0.03,0.05,competitor,target,1,14.299
5,184,numeric,0.03,0.2,target,target,1,11.607
5,185,perceptual,0.03,0.2,target,target,1,3.302
5,186,perceptual,0.03,0.05,competitor,competitor,0,7.935
5,187,perceptual,0.03,0.05,target,target,1,2.238
5,188,perceptual,0.1,0.05,target,target,1,5.305
5,189,numeric,0.03,0.2,competitor,competitor,0,11.276
5,190,perceptual,0.03,0.2,competitor,decoy,0,12.549
5,191,numeric,0.03,0.2,competitor,competitor,0,7.833
5,192,perceptual,0.1,0.05,competitor,competitor,0,9.483
6,1,perceptual,0.03,0.2,target,competitor,0,5.158
6,2,perceptual,0.1,0.2,target,target,1,3.739
6,3,perceptual,0.1,0.05,target,target,1,6.486
6,4,numeric,0.1,0.2,competitor,target,1,10.978
6,5,numeric,0.1,0.2,competitor,target,1,7.43
6,6,numeric,0.1,0.2,competitor,target,1,5.768
6,7,perceptual,0.03,0.2,target,competitor,0,6.35
6,8,numeric,0.1,0.05,target,target,1,7.49
6,9,numeric,0.03,0.05,competitor,competitor,0,8.353
6,10,numeric,0.03,0.2,competitor,competitor,0,5.777
6,11,perceptual,0.03,0.05,target,target,1,6.159
6,12,perceptual,0.03,0.05,competitor,target,1,7.628
6,13,numeric,0.1,0.2,competitor,competitor,0,8.518
6,14,numeric,0.03,0.2,target,target,1,8
6,15,numeric,0.1,0.05,competitor,target,1,8.076
6,16,perceptual,0.1,0.05,competitor,target,1,4.919
6,17,perceptual,0.03,0.2,competitor,target,1,7.939
6,18,perceptual,0.1,0.05,competitor,competitor,0,6.81
6,19,numeric,0.03,0.05,target,target,1,6.208
6,20,numeric,0.1,0.05,target,target,1,7.993
6,21,perceptual,0.1,0.2,competitor,target,1,5.539
6,22,perceptual,0.1,0.2,target,target,1,6.398
6,23,numeric,0.03,0.2,competitor,target,1,15.624
6,24,numeric,0.1,0.05,target,target,1,8.003
6,25,numeric,0.03,0.05,competitor,target,1,12.208
6,26,numeric,0.03,0.05,competitor,competitor,0,10.904
6,27,perceptual,0.1,0.2,target,target,1,8.111
6,28,perceptual,0.03,0.05,target,target,1,7.76
6,29,numeric,0.1,0.2,competitor,target,1,8.128
6,30,numeric,0.1,0.2,competitor,target,1,5.639
6,31,numeric,0.03,0.05,target,target,1,9.257
6,32,numeric,0.03,0.2,target,target,1,10.635
6,33,numeric,0.1,0.05,competitor,target,1,15.963
6,34,perceptual,0.03,0.05,target,target,1,9
6,35,perceptual,0.03,0.05,target,target,1,5.57
6,36,numeric,0.03,0.05,competitor,target,1,10.646
6,37,numeric,0.03,0.2,target,target,1,14.62
6,38,perceptual,0.03,0.2,competitor,target,1,8.777
6,39,numeric,0.1,0.05,competitor,target,1,4.971
6,40,perceptual,0.03,0.2,competitor,target,1,7.038
6,41,perceptual,0.03,0.2,competitor,target,1,5.481
6,42,numeric,0.03,0.05,target,target,1,13.094
6,43,numeric,0.03,0.05,competitor,competitor,0,16.031
6,44,perceptual,0.03,0.2,target,target,1,6.552
6,45,perceptual,0.1,0.2,competitor,competitor,0,11.951
6,46,numeric,0.1,0.2,competitor,target,1,9.789
6,47,numeric,0.03,0.05,competitor,target,1,13.171
6,48,perceptual,0.03,0.05,competitor,target,1,16.596
6,49,numeric,0.1,0.05,competitor,target,1,8.444
6,50,perceptual,0.1,0.2,target,target,1,8.757
6,51,perceptual,0.1,0.05,target,target,1,9.544
6,52,numeric,0.1,0.05,target,target,1,12.577
6,53,perceptual,0.03,0.05,competitor,competitor,0,10.148
6,54,perceptual,0.1,0.2,competitor,target,1,4.218
6,55,perceptual,0.1,0.2,competitor,target,1,5.528
6,56,perceptual,0.03,0.05,competitor,competitor,0,4.771
6,57,perceptual,0.1,0.05,target,target,1,5.026
6,58,perceptual,0.1,0.2,competitor,target,1,7.31
6,59,perceptual,0.03,0.2,target,target,1,6.576
6,60,perceptual,0.1,0.05,competitor,target,1,10.096
6,61,numeric,0.03,0.2,target,competitor,0,11.905
6,62,numeric,0.03,0.05,competitor,target,1,9.625
6,63,perceptual,0.1,0.05,competitor,target,1,10.419
6,64,numeric,0.03,0.2,competitor,target,1,15.343
6,65,perceptual,0.1,0.2,competitor,target,1,8.556
6,66,numeric,0.1,0.2,target,target,1,9.753
6,67,perceptual,0.03,0.05,competitor,competitor,0,16.547
6,68,perceptual,0.03,0.2,competitor,competitor,0,7.977
6,69,perceptual,0.03,0.05,competitor,target,1,13.3
6,70,numeric,0.1,0.05,competitor,target,1,10.795
6,71,numeric,0.03,0.2,target,competitor,0,17.819
6,72,numeric,0.1,0.05,competitor,target,1,8.475
6,73,numeric,0.03,0.05,competitor,target,1,13.065
6,74,numeric,0.1,0.05,competitor,target,1,14.088
6,75,perceptual,0.1,0.2,target,target,1,9.501
6,76,numeric,0.03,0.2,target,target,1,7.275
6,77,numeric,0.1,0.2,target,target,1,9.496
6,78,numeric,0.1,0.05,competitor,target,1,7.29
6,79,perceptual,0.1,0.05,target,target,1,12.075
6,80,perceptual,0.03,0.05,target,target,1,5.439
6,81,numeric,0.03,0.05,target,competitor,0,19.594
6,82,perceptual,0.1,0.2,target,target,1,4.861
6,83,numeric,0.1,0.05,target,target,1,11.302
6,84,numeric,0.1,0.05,target,target,1,12.193
6,85,perceptual,0.03,0.05,competitor,target,1,13.251
6,86,numeric,0.03,0.05,target,competitor,0,14.594
6,87,perceptual,0.1,0.2,target,target,1,12.924
6,88,perceptual,0.03,0.05,competitor,target,1,8.77
6,89,numeric,0.1,0.05,competitor,target,1,11.306
6,90,perceptual,0.03,0.2,competitor,target,1,7.897
6,91,perceptual,0.1,0.05,target,target,1,5.806
6,92,numeric,0.03,0.05,competitor,target,1,10.224
6,93,perceptual,0.1,0.2,target,target,1,6.284
6,94,numeric,0.1,0.2,target,competitor,0,16.764
6,95,perceptual,0.1,0.05,competitor,target,1,7.908
6,96,numeric,0.1,0.2,target,target,1,10.623
6,97,perceptual,0.03,0.05,target,target,1,8.796
6,98,perceptual,0.03,0.05,target,target,1,6.276
6,99,perceptual,0.03,0.2,target,target,1,12.812
6,100,perceptual,0.03,0.05,target,target,1,11.156
6,101,numeric,0.1,0.2,competitor,competitor,0,16.764
6,102,perceptual,0.1,0.2,competitor,target,1,8.504
6,103,perceptual,0.1,0.2,competitor,target,1,7.834
6,104,numeric,0.1,0.05,target,target,1,8.179
6,105,perceptual,0.03,0.2,competitor,target,1,7.304
6,106,perceptual,0.03,0.2,competitor,target,1,6.626
6,107,numeric,0.03,0.2,competitor,target,1,11.968
6,108,numeric,0.1,0.2,competitor,target,1,12.364
6,109,numeric,0.03,0.05,target,target,1,10.89
6,110,numeric,0.03,0.2,competitor,competitor,0,9.963
6,111,numeric,0.1,0.05,competitor,target,1,8.869
6,112,numeric,0.1,0.2,target,target,1,10.046
6,113,perceptual,0.1,0.05,target,target,1,7.533
6,114,numeric,0.03,0.2,competitor,competitor,0,10.029
6,115,numeric,0.1,0.2,target,target,1,15.274
6,116,numeric,0.1,0.05,target,target,1,13.723
6,117,numeric,0.03,0.2,target,competitor,0,12.826
6,118,numeric,0.03,0.2,target,target,1,13.333
6,119,perceptual,0.1,0.2,competitor,target,1,9.976
6,120,numeric,0.1,0.2,target,target,1,7.421
6,121,numeric,0.03,0.05,target,competitor,0,10.964
6,122,perceptual,0.1,0.05,competitor,competitor,0,5.636
6,123,perceptual,0.1,0.2,target,target,1,9.257
6,124,numeric,0.1,0.2,competitor,target,1,12.388
6,125,perceptual,0.1,0.05,competitor,target,1,9.643
6,126,numeric,0.03,0.2,competitor,target,1,8.58
6,127,perceptual,0.03,0.2,competitor,target,1,7.153
6,128,perceptual,0.03,0.05,target,target,1,5.7
6,129,numeric,0.03,0.2,target,target,1,13.239
6,130,perceptual,0.03,0.05,competitor,target,1,8.406
6,131,numeric,0.03,0.05,competitor,target,1,9.831
6,132,perceptual,0.1,0.05,competitor,target,1,7.26
6,133,perceptual,0.03,0.2,target,target,1,9.379
6,134,numeric,0.03,0.05,target,target,1,11.465
6,135,perceptual,0.03,0.05,competitor,target,1,5.467
6,136,perceptual,0.1,0.05,target,target,1,8.621
6,137,perceptual,0.03,0.2,competitor,target,1,7.373
6,138,perceptual,0.03,0.2,target,competitor,0,7.849
6,139,numeric,0.1,0.05,target,decoy,0,8.921
6,140,numeric,0.03,0.05,target,target,1,12.894
6,141,perceptual,0.03,0.05,competitor,target,1,11.384
6,142,numeric,0.1,0.05,competitor,target,1,11.875
6,143,numeric,0.03,0.2,target,target,1,15.178
6,144,numeric,0.1,0.2,competitor,target,1,8.712
6,145,numeric,0.1,0.2,target,target,1,7.706
6,146,numeric,0.1,0.2,competitor,target,1,9.192
6,147,numeric,0.03,0.05,competitor,target,1,9.54
6,148,perceptual,0.1,0.05,target,target,1,6.902
6,149,numeric,0.1,0.05,target,target,1,9.369
6,150,numeric,0.03,0.2,competitor,target,1,13.587
6,151,perceptual,0.03,0.2,target,target,1,6.691
6,152,perceptual,0.1,0.05,competitor,target,1,6.248
6,153,perceptual,0.1,0.05,competitor,target,1,5.921
6,154,numeric,0.03,0.2,competitor,competitor,0,6.155
6,155,perceptual,0.1,0.05,competitor,target,1,5.027
6,156,numeric,0.1,0.2,target,target,1,6.395
6,157,perceptual,0.1,0.2,competitor,competitor,0,6.621
6,158,numeric,0.1,0.2,target,competitor,0,8.489
6,159,perceptual,0.03,0.2,competitor,target,1,4.914
6,160,perceptual,0.1,0.05,competitor,decoy,0,4.752
6,161,perceptual,0.1,0.2,target,target,1,6.508
6,162,numeric,0.1,0.2,target,target,1,9.447
6,163,perceptual,0.1,0.2,competitor,target,1,5.883
6,164,numeric,0.03,0.2,competitor,target,1,6.013
6,165,perceptual,0.1,0.2,target,target,1,5.461
6,166,numeric,0.03,0.05,competitor,target,1,9.231
6,167,perceptual,0.1,0.05,target,target,1,4.622
6,168,perceptual,0.03,0.2,competitor,competitor,0,5.928
6,169,numeric,0.03,0.2,target,competitor,0,8.541
6,170,numeric,0.03,0.05,target,target,1,9.932
6,171,perceptual,0.03,0.2,target,target,1,4.473
6,172,perceptual,0.1,0.2,target,target,1,8.849
6,173,numeric,0.03,0.2,target,competitor,0,14.012
6,174,perceptual,0.03,0.05,target,decoy,0,13.08
6,175,perceptual,0.03,0.2,target,target,1,6.827
6,176,numeric,0.1,0.05,competitor,target,1,8.748
6,177,numeric,0.03,0.2,competitor,target,1,10.478
6,178,perceptual,0.03,0.05,target,competitor,0,9.62
6,179,numeric,0.1,0.05,target,target,1,13.257
6,180,perceptual,0.03,0.05,competitor,target,1,8.471
6,181,numeric,0.03,0.05,target,competitor,0,10.844
6,182,perceptual,0.1,0.05,target,target,1,8.882
6,183,perceptual,0.1,0.05,target,target,1,7.043
6,184,perceptual,0.03,0.2,target,competitor,0,8.857
6,185,numeric,0.1,0.05,target,decoy,0,12.846
6,186,numeric,0.1,0.2,target,target,1,14.124
6,187,perceptual,0.03,0.05,target,competitor,0,10.093
6,188,perceptual,0.03,0.2,target,competitor,0,6.063
6,189,perceptual,0.1,0.05,target,target,1,5.726
6,190,numeric,0.03,0.2,competitor,competitor,0,11.864
6,192,perceptual,0.1,0.2,competitor,target,1,6.297
