participant,trial_counter,condition,target_to_competitor,decoy_reduction,decoy_on,chosen_item,correct,rt
1,1,perceptual,0.1,0.05,no_decoy,target,1,4.722
1,2,numeric,0.1,0.2,target,decoy,1,3.894
1,3,perceptual,0.03,0.2,no_decoy,competitor,1,4.59
1,4,numeric,0.03,0.2,target,target,1,5.124
1,5,numeric,0.03,0.05,competitor,decoy,0,6.385
1,6,numeric,0.03,0.05,competitor,competitor,1,4.261
1,7,perceptual,0.03,0.2,target,decoy,0,5.729
1,8,numeric,0.1,0.05,no_decoy,competitor,0,6.779
1,9,perceptual,0.03,0.05,competitor,target,0,6.442
1,10,perceptual,0.03,0.2,no_decoy,target,1,4.204
1,11,perceptual,0.03,0.2,competitor,target,1,3.436
1,12,perceptual,0.03,0.2,competitor,competitor,1,4.887
1,13,numeric,0.1,0.05,no_decoy,target,1,5.572
1,14,perceptual,0.03,0.2,competitor,decoy,1,5.054
1,15,numeric,0.03,0.2,target,competitor,0,6.535
1,16,perceptual,0.03,0.05,target,target,1,4.234
1,17,perceptual,0.1,0.05,no_decoy,target,1,5.536
1,18,numeric,0.03,0.2,competitor,decoy,1,6.815
1,19,numeric,0.03,0.2,no_decoy,target,1,7.035
1,20,perceptual,0.1,0.2,competitor,decoy,1,5.361
1,21,perceptual,0.1,0.05,competitor,target,1,4.964
1,22,perceptual,0.1,0.05,no_decoy,competitor,1,5.418
1,23,numeric,0.03,0.2,no_decoy,target,1,6.041
1,24,perceptual,0.03,0.05,competitor,target,0,9.234
1,25,numeric,0.1,0.2,competitor,target,1,7.197
1,26,numeric,0.03,0.05,competitor,competitor,0,8.115
1,27,perceptual,0.1,0.2,competitor,target,1,5.664
1,28,numeric,0.03,0.2,no_decoy,competitor,0,6.44
1,29,perceptual,0.1,0.05,no_decoy,target,1,4.052
1,30,numeric,0.03,0.05,competitor,target,1,9.4
1,31,numeric,0.1,0.05,competitor,target,0,6.495
1,32,numeric,0.1,0.2,competitor,competitor,1,6.902
1,33,numeric,0.03,0.2,competitor,decoy,1,7.334
1,34,numeric,0.03,0.05,competitor,competitor,1,6.958
1,35,numeric,0.1,0.2,competitor,competitor,1,7.259
1,36,perceptual,0.03,0.05,target,decoy,1,5.81
1,37,perceptual,0.1,0.05,target,target,0,5.565
1,38,numeric,0.03,0.05,no_decoy,target,1,5.972
1,39,numeric,0.03,0.05,target,competitor,1,8.902
1,40,numeric,0.1,0.2,target,target,1,6.683
1,41,perceptual,0.1,0.2,no_decoy,target,1,4.154
1,42,numeric,0.1,0.05,target,decoy,1,6.371
1,43,numeric,0.03,0.2,target,target,1,6.484
1,44,numeric,0.03,0.05,target,target,1,6.551
1,45,numeric,0.1,0.2,no_decoy,target,1,6.64
1,46,perceptual,0.1,0.2,no_decoy,competitor,1,4.596
1,47,numeric,0.1,0.2,no_decoy,competitor,1,5.882
1,48,numeric,0.1,0.2,no_decoy,target,1,4.648
1,49,numeric,0.1,0.05,target,decoy,1,5.525
1,50,perceptual,0.1,0.2,competitor,competitor,1,3.913
1,51,perceptual,0.1,0.2,target,competitor,0,4.118
1,52,perceptual,0.1,0.2,target,target,1,6.117
1,53,perceptual,0.03,0.2,target,competitor,0,4.696
1,54,numeric,0.1,0.05,target,competitor,0,6.867
1,55,perceptual,0.03,0.05,no_decoy,target,1,4.836
1,56,numeric,0.03,0.05,target,target,0,5.784
1,57,perceptual,0.03,0.2,target,decoy,0,6.634
1,58,perceptual,0.1,0.2,target,decoy,1,6.011
1,59,numeric,0.03,0.2,competitor,decoy,1,6.006
1,60,perceptual,0.03,0.05,no_decoy,competitor,1,7.254
1,61,numeric,0.03,0.05,target,target,1,6.771
1,62,perceptual,0.1,0.2,no_decoy,competitor,1,6.767
1,63,perceptual,0.1,0.05,competitor,target,0,4.702
1,64,perceptual,0.03,0.2,no_decoy,target,0,4.621
1,65,numeric,0.03,0.05,target,target,1,6.094
1,66,numeric,0.1,0.05,no_decoy,competitor,1,4.762
1,67,numeric,0.1,0.05,target,decoy,1,7.569
1,68,perceptual,0.03,0.2,target,decoy,1,4.786
1,69,perceptual,0.1,0.2,no_decoy,competitor,1,4.218
1,70,perceptual,0.1,0.05,no_decoy,competitor,1,5.087
1,71,perceptual,0.03,0.2,no_decoy,target,1,5.562
1,72,perceptual,0.03,0.05,no_decoy,target,0,5.834
1,73,perceptual,0.03,0.05,no_decoy,competitor,1,5.736
1,74,perceptual,0.03,0.05,competitor,competitor,1,5.601
1,75,numeric,0.03,0.2,target,competitor,1,6.735
1,76,numeric,0.03,0.05,target,competitor,1,7.052
1,77,numeric,0.03,0.05,competitor,competitor,1,6.219
1,78,numeric,0.03,0.05,no_decoy,competitor,0,5.684
1,79,perceptual,0.1,0.05,no_decoy,competitor,1,4.735
1,80,perceptual,0.1,0.2,no_decoy,competitor,1,6.035
1,81,perceptual,0.1,0.05,competitor,target,1,6.476
1,82,numeric,0.1,0.05,target,target,1,4.872
1,83,perceptual,0.1,0.05,no_decoy,competitor,1,4.074
1,84,numeric,0.03,0.2,target,competitor,1,9.829
1,85,perceptual,0.03,0.2,competitor,decoy,1,7.181
1,86,perceptual,0.03,0.2,no_decoy,target,1,6.27
1,87,numeric,0.1,0.2,competitor,target,1,8.252
1,88,perceptual,0.03,0.05,competitor,competitor,0,6.335
1,89,numeric,0.1,0.2,target,decoy,1,8.259
1,90,numeric,0.03,0.05,competitor,target,0,9.671
1,91,numeric,0.1,0.05,competitor,target,0,9.133
1,92,numeric,0.1,0.05,no_decoy,competitor,1,7.953
1,93,numeric,0.1,0.05,no_decoy,target,1,5.667
1,94,perceptual,0.03,0.05,target,competitor,1,7.937
1,95,numeric,0.03,0.05,competitor,target,0,7.161
1,96,perceptual,0.1,0.2,no_decoy,competitor,1,8.653
1,97,numeric,0.03,0.2,competitor,decoy,0,9.991
1,98,perceptual,0.1,0.05,target,decoy,1,5.229
1,99,numeric,0.1,0.05,competitor,target,1,7.062
1,100,numeric,0.1,0.2,target,competitor,1,6.796
1,101,perceptual,0.1,0.2,no_decoy,target,1,7.046
1,102,numeric,0.03,0.05,no_decoy,target,0,7.988
1,103,numeric,0.1,0.05,no_decoy,target,1,9.036
1,104,numeric,0.03,0.2,no_decoy,target,1,10.218
1,105,numeric,0.1,0.05,competitor,competitor,1,6.595
1,106,perceptual,0.03,0.2,competitor,competitor,0,6.23
1,107,perceptual,0.1,0.2,competitor,competitor,0,4.361
1,108,numeric,0.1,0.05,target,target,1,7.579
1,109,perceptual,0.1,0.2,competitor,competitor,1,4.017
1,110,numeric,0.1,0.05,target,competitor,1,8.621
1,111,perceptual,0.03,0.05,target,competitor,0,12.342
1,112,numeric,0.03,0.2,competitor,target,0,12.518
1,113,numeric,0.03,0.2,no_decoy,competitor,1,10.209
1,114,perceptual,0.03,0.05,competitor,decoy,1,5.63
1,115,numeric,0.1,0.2,no_decoy,target,1,7.898
1,116,perceptual,0.03,0.2,no_decoy,target,1,5.634
1,117,numeric,0.1,0.2,no_decoy,competitor,0,9.613
1,118,perceptual,0.03,0.2,target,competitor,1,9.644
1,119,perceptual,0.03,0.2,no_decoy,competitor,1,5.101
1,120,perceptual,0.03,0.2,competitor,competitor,0,6.157
1,121,numeric,0.1,0.2,target,competitor,0,8.497
1,122,numeric,0.1,0.2,no_decoy,target,1,6.35
1,123,perceptual,0.1,0.05,target,decoy,1,6.504
1,124,numeric,0.03,0.2,competitor,decoy,1,6.387
1,125,numeric,0.03,0.2,target,decoy,1,6.918
1,126,perceptual,0.03,0.05,target,target,0,9.38
1,127,numeric,0.03,0.05,target,target,1,9.861
1,128,numeric,0.03,0.2,competitor,decoy,1,8.851
1,129,numeric,0.03,0.2,competitor,decoy,1,5.096
1,130,numeric,0.03,0.05,target,decoy,1,8.647
1,131,numeric,0.03,0.05,no_decoy,target,1,5.545
1,132,numeric,0.03,0.2,no_decoy,competitor,1,6.178
1,133,perceptual,0.1,0.2,competitor,competitor,1,4.321
1,134,numeric,0.03,0.2,competitor,target,1,6.519
1,135,perceptual,0.03,0.2,no_decoy,competitor,0,4.635
1,136,perceptual,0.03,0.2,no_decoy,competitor,1,4.795
1,137,perceptual,0.1,0.2,target,target,1,5.213
1,138,perceptual,0.03,0.05,no_decoy,competitor,1,4.616
1,139,perceptual,0.1,0.05,target,competitor,1,5.474
1,140,numeric,0.03,0.2,target,competitor,1,8.07
1,141,numeric,0.1,0.05,target,target,1,9.598
1,142,perceptual,0.1,0.2,competitor,competitor,1,8.27
1,143,perceptual,0.03,0.05,no_decoy,competitor,1,4.451
1,144,perceptual,0.03,0.2,target,competitor,0,5.583
1,145,perceptual,0.03,0.05,competitor,target,0,7.418
1,146,numeric,0.1,0.05,competitor,target,1,5.385
1,147,numeric,0.03,0.05,no_decoy,target,0,4.753
1,148,perceptual,0.1,0.05,competitor,decoy,1,7.016
1,149,numeric,0.03,0.05,target,competitor,1,10.062
1,150,perceptual,0.03,0.05,competitor,decoy,1,6.538
1,151,numeric,0.1,0.05,no_decoy,competitor,1,11.002
1,152,perceptual,0.03,0.05,competitor,target,0,6.599
1,153,perceptual,0.03,0.2,no_decoy,competitor,1,5.23
1,154,perceptual,0.1,0.2,no_decoy,target,1,3.827
1,155,numeric,0.03,0.2,no_decoy,competitor,1,9.684
1,156,numeric,0.03,0.05,competitor,target,1,7.363
1,157,perceptual,0.1,0.05,competitor,competitor,0,10.534
1,158,perceptual,0.03,0.2,competitor,competitor,1,4.957
1,159,numeric,0.1,0.2,no_decoy,competitor,1,5.555
1,160,numeric,0.1,0.05,competitor,decoy,1,10.396
1,161,perceptual,0.1,0.2,no_decoy,target,0,5.154
1,162,perceptual,0.1,0.2,competitor,target,1,5.477
1,163,perceptual,0.1,0.05,competitor,competitor,1,4.163
1,164,numeric,0.1,0.05,competitor,decoy,1,6.967
1,165,numeric,0.03,0.05,no_decoy,target,0,5.286
1,166,perceptual,0.03,0.2,competitor,competitor,1,8.08
1,167,numeric,0.1,0.05,no_decoy,competitor,0,4.028
1,168,perceptual,0.1,0.05,competitor,competitor,1,5.506
1,169,numeric,0.03,0.05,competitor,target,0,7.513
1,170,numeric,0.1,0.05,competitor,competitor,1,6.714
1,171,perceptual,0.03,0.2,competitor,competitor,1,7.2
1,172,numeric,0.1,0.2,competitor,decoy,1,6.05
1,173,numeric,0.1,0.05,target,decoy,1,5.833
1,174,perceptual,0.03,0.2,competitor,decoy,1,6.595
1,175,numeric,0.1,0.05,no_decoy,competitor,1,5.047
1,176,numeric,0.03,0.05,target,target,1,3.76
1,177,numeric,0.1,0.05,competitor,competitor,1,6.912
1,178,perceptual,0.03,0.05,no_decoy,competitor,0,7.597
1,179,numeric,0.1,0.05,target,competitor,1,6.35
1,180,numeric,0.03,0.05,no_decoy,competitor,1,6.222
1,181,numeric,0.1,0.05,competitor,decoy,1,5.929
1,182,perceptual,0.03,0.05,target,competitor,0,4.707
1,183,numeric,0.03,0.05,no_decoy,competitor,1,4.531
1,184,perceptual,0.1,0.05,target,target,1,7.33
1,185,perceptual,0.1,0.2,competitor,decoy,1,4.425
1,186,numeric,0.1,0.2,target,target,1,6.313
1,187,numeric,0.03,0.2,target,decoy,0,6.415
1,188,perceptual,0.1,0.05,competitor,decoy,1,6.106
1,189,perceptual,0.03,0.2,target,target,1,5.614
1,190,perceptual,0.03,0.05,no_decoy,target,1,5.922
1,191,numeric,0.03,0.2,competitor,target,1,7.892
1,192,numeric,0.03,0.2,target,decoy,1,7.147
1,193,numeric,0.1,0.2,competitor,target,1,5.171
1,194,perceptual,0.1,0.05,target,target,1,4.369
1,195,numeric,0.1,0.05,competitor,target,1,4.54
1,196,perceptual,0.1,0.2,target,decoy,1,4.453
1,197,perceptual,0.1,0.05,no_decoy,target,1,6.913
1,198,perceptual,0.03,0.05,competitor,decoy,1,6.739
1,199,numeric,0.03,0.2,target,competitor,1,8.199
1,200,numeric,0.1,0.2,competitor,target,0,6.616
1,201,numeric,0.03,0.2,no_decoy,competitor,1,8.241
1,202,numeric,0.1,0.2,target,target,0,7.758
1,203,perceptual,0.1,0.05,competitor,target,1,9.215
1,204,perceptual,0.03,0.05,competitor,decoy,1,4.014
1,205,perceptual,0.03,0.2,competitor,competitor,0,4.517
1,206,numeric,0.03,0.05,no_decoy,target,1,9.515
1,207,numeric,0.1,0.05,target,target,1,9.246
1,208,perceptual,0.1,0.2,competitor,competitor,1,3.577
1,209,perceptual,0.03,0.2,target,decoy,1,3.837
1,210,perceptual,0.03,0.05,target,target,1,6.214
1,211,numeric,0.1,0.2,no_decoy,competitor,1,5.896
1,212,numeric,0.03,0.2,no_decoy,competitor,1,7.276
1,213,perceptual,0.1,0.05,target,competitor,0,8.747
1,214,numeric,0.1,0.2,target,competitor,1,7.098
1,215,perceptual,0.03,0.05,no_decoy,competitor,1,3.493
1,216,perceptual,0.03,0.2,no_decoy,competitor,1,5.409
1,217,numeric,0.03,0.05,target,target,0,6.969
1,218,perceptual,0.1,0.2,target,competitor,1,5.696
1,219,perceptual,0.1,0.05,target,competitor,1,5.887
1,220,perceptual,0.03,0.2,no_decoy,target,1,5.186
1,221,numeric,0.1,0.2,target,competitor,1,7.53
1,222,perceptual,0.03,0.05,target,competitor,0,6.513
1,223,perceptual,0.03,0.05,target,competitor,1,7.578
1,224,perceptual,0.1,0.05,no_decoy,target,1,5.681
1,225,numeric,0.03,0.2,target,target,1,6.744
1,226,perceptual,0.03,0.2,target,competitor,0,3.504
1,227,perceptual,0.1,0.05,target,decoy,0,5.779
1,228,perceptual,0.1,0.05,competitor,competitor,1,4.486
1,229,perceptual,0.1,0.2,competitor,target,1,4.711
1,230,perceptual,0.03,0.2,target,decoy,0,7.517
1,231,numeric,0.1,0.2,no_decoy,target,1,8.04
1,232,numeric,0.1,0.2,competitor,competitor,1,9.486
1,233,perceptual,0.1,0.2,no_decoy,target,1,5.497
1,234,numeric,0.1,0.2,competitor,decoy,1,5.578
1,235,perceptual,0.1,0.05,competitor,competitor,0,3.979
1,236,numeric,0.1,0.2,competitor,target,0,5.474
1,237,numeric,0.03,0.2,no_decoy,target,1,6.034
1,238,perceptual,0.1,0.05,no_decoy,competitor,1,2.885
1,239,perceptual,0.03,0.05,competitor,target,1,4.999
1,240,perceptual,0.1,0.2,target,target,1,8.044
1,241,perceptual,0.03,0.05,no_decoy,competitor,0,3.157
1,242,perceptual,0.1,0.05,target,competitor,1,5.462
1,243,perceptual,0.1,0.2,target,competitor,1,4.679
1,244,perceptual,0.1,0.05,no_decoy,target,1,4.587
1,245,perceptual,0.03,0.2,target,target,1,7.472
1,246,numeric,0.03,0.2,no_decoy,target,0,9.395
1,247,numeric,0.03,0.2,competitor,decoy,1,7.664
1,248,perceptual,0.1,0.2,competitor,decoy,0,3.648
1,249,perceptual,0.03,0.05,no_decoy,competitor,1,3.593
1,250,numeric,0.1,0.2,no_decoy,competitor,1,8.98
1,251,numeric,0.1,0.2,target,decoy,1,7.393
1,252,numeric,0.1,0.05,no_decoy,competitor,0,8.284
1,253,numeric,0.1,0.05,no_decoy,target,1,4.262
1,254,numeric,0.03,0.05,competitor,target,1,8.688
1,255,numeric,0.1,0.05,competitor,competitor,1,8.95
1,256,perceptual,0.03,0.2,competitor,target,1,7.888
1,257,numeric,0.1,0.2,target,competitor,1,5.003
1,258,numeric,0.03,0.2,no_decoy,target,1,7.73
1,259,numeric,0.03,0.05,no_decoy,competitor,1,7.249
1,260,perceptual,0.1,0.2,no_decoy,target,1,5.883
1,261,numeric,0.03,0.05,no_decoy,competitor,1,6.208
1,262,perceptual,0.1,0.2,target,competitor,1,3.721
1,263,perceptual,0.1,0.2,target,competitor,0,7.521
1,264,perceptual,0.1,0.05,target,target,0,5.407
1,265,perceptual,0.03,0.05,target,decoy,1,4.976
1,266,numeric,0.03,0.2,target,target,0,11.833
1,267,numeric,0.03,0.2,competitor,target,1,7.514
1,268,numeric,0.1,0.2,competitor,decoy,1,8.421
1,269,numeric,0.03,0.05,competitor,competitor,0,9.518
1,270,perceptual,0.1,0.2,no_decoy,target,1,4.738
1,271,numeric,0.1,0.2,no_decoy,competitor,1,5.843
1,272,perceptual,0.03,0.05,target,target,1,6.543
1,273,numeric,0.03,0.05,no_decoy,target,1,5.562
1,274,numeric,0.1,0.05,no_decoy,target,1,8.064
1,275,perceptual,0.1,0.2,target,target,0,6.303
1,276,numeric,0.1,0.05,target,target,1,7.305
1,277,perceptual,0.03,0.2,target,target,1,4.52
1,278,perceptual,0.1,0.05,competitor,target,1,4.763
1,279,numeric,0.1,0.2,no_decoy,competitor,1,7.412
1,280,perceptual,0.03,0.05,target,competitor,1,6.374
1,281,numeric,0.03,0.05,target,decoy,1,8.752
1,282,numeric,0.1,0.2,target,target,1,5.889
1,283,numeric,0.1,0.2,competitor,target,1,5.713
1,284,perceptual,0.1,0.05,no_decoy,competitor,1,3.337
1,285,perceptual,0.03,0.05,competitor,decoy,1,5.549
1,286,perceptual,0.03,0.05,no_decoy,target,0,4.186
1,287,perceptual,0.1,0.2,target,decoy,0,3.063
1,288,perceptual,0.1,0.05,target,target,1,3.323
2,1,perceptual,0.03,0.05,target,competitor,0,6.733
2,2,perceptual,0.03,0.2,competitor,target,0,6.971
2,3,numeric,0.03,0.05,no_decoy,target,1,5.102
2,4,numeric,0.1,0.05,target,competitor,1,6.035
2,5,numeric,0.1,0.2,competitor,decoy,0,10.879
2,6,perceptual,0.03,0.05,target,competitor,0,7.692
2,7,numeric,0.03,0.2,no_decoy,target,0,17.012
2,8,numeric,0.03,0.2,no_decoy,target,1,8.903
2,9,numeric,0.03,0.2,target,decoy,0,11.393
2,10,numeric,0.03,0.2,target,competitor,0,6.704
2,11,numeric,0.1,0.05,no_decoy,target,1,7.904
2,12,perceptual,0.1,0.05,competitor,decoy,0,8.389
2,13,numeric,0.03,0.2,competitor,decoy,1,6.244
2,14,numeric,0.03,0.05,competitor,target,0,11.803
2,15,perceptual,0.03,0.05,competitor,decoy,1,7.779
2,16,perceptual,0.1,0.05,competitor,decoy,1,5.25
2,17,numeric,0.03,0.05,target,competitor,0,13.3
2,18,numeric,0.03,0.2,target,decoy,1,3.629
2,19,perceptual,0.1,0.2,no_decoy,competitor,1,6.069
2,20,numeric,0.1,0.2,target,competitor,1,9.299
2,21,perceptual,0.1,0.05,no_decoy,target,0,11.848
2,22,perceptual,0.1,0.2,no_decoy,competitor,1,7.75
2,23,numeric,0.03,0.05,target,decoy,1,8.732
2,24,numeric,0.1,0.2,no_decoy,target,1,7.385
2,25,perceptual,0.1,0.05,target,competitor,0,5.546
2,26,numeric,0.03,0.05,no_decoy,competitor,0,6.673
2,27,numeric,0.1,0.2,target,target,1,4.579
2,28,perceptual,0.1,0.2,no_decoy,target,1,5.434
2,29,numeric,0.03,0.2,competitor,target,0,6.308
2,30,numeric,0.03,0.2,target,decoy,1,13.558
2,31,numeric,0.1,0.05,target,target,1,5.089
2,32,numeric,0.03,0.05,no_decoy,competitor,1,3.982
2,33,perceptual,0.03,0.2,no_decoy,target,1,3.899
2,34,perceptual,0.1,0.05,competitor,competitor,0,5.928
2,35,perceptual,0.03,0.2,no_decoy,target,1,3.832
2,36,numeric,0.03,0.05,no_decoy,competitor,1,6.359
2,37,perceptual,0.1,0.05,no_decoy,competitor,0,4.652
2,38,perceptual,0.03,0.2,target,competitor,1,5.714
2,39,perceptual,0.03,0.2,no_decoy,competitor,0,3.511
2,40,numeric,0.03,0.2,no_decoy,competitor,0,12.183
2,41,perceptual,0.1,0.2,no_decoy,target,1,3.866
2,42,numeric,0.03,0.2,target,target,0,6.87
2,43,numeric,0.03,0.05,no_decoy,target,1,6.223
2,44,numeric,0.1,0.2,target,decoy,1,9.385
2,45,perceptual,0.03,0.2,competitor,decoy,1,5.441
2,46,numeric,0.1,0.05,no_decoy,target,0,14.592
2,47,perceptual,0.1,0.2,competitor,decoy,1,9.101
2,48,perceptual,0.03,0.05,target,decoy,0,7.053
2,49,perceptual,0.03,0.05,competitor,competitor,1,10.423
2,50,numeric,0.03,0.05,competitor,decoy,1,7.013
2,51,perceptual,0.03,0.2,competitor,competitor,1,8.014
2,52,numeric,0.1,0.05,competitor,target,0,7.753
2,53,perceptual,0.03,0.05,target,decoy,0,9.936
2,54,numeric,0.1,0.2,no_decoy,competitor,1,10.149
2,55,numeric,0.1,0.05,competitor,decoy,1,7.309
2,56,perceptual,0.1,0.05,target,decoy,0,4.784
2,57,perceptual,0.1,0.2,competitor,decoy,1,4.804
2,58,numeric,0.1,0.2,target,competitor,1,7.727
2,59,perceptual,0.03,0.2,no_decoy,target,0,6.196
2,60,perceptual,0.1,0.05,competitor,decoy,1,7.814
2,61,numeric,0.03,0.2,target,decoy,0,16.71
2,62,numeric,0.03,0.05,target,decoy,1,8.772
2,63,perceptual,0.1,0.2,no_decoy,target,1,7.657
2,64,perceptual,0.1,0.05,no_decoy,competitor,1,3.995
2,65,perceptual,0.1,0.05,competitor,decoy,1,9.409
2,66,numeric,0.1,0.05,competitor,competitor,1,4.785
2,67,perceptual,0.03,0.05,competitor,target,1,3.153
2,68,numeric,0.03,0.05,competitor,target,1,8.917
2,69,numeric,0.03,0.05,target,target,0,6.563
2,70,perceptual,0.03,0.05,target,competitor,0,5.411
2,71,numeric,0.03,0.2,no_decoy,competitor,1,8.654
2,72,perceptual,0.03,0.2,target,decoy,1,7.993
2,73,numeric,0.1,0.2,no_decoy,competitor,1,5.871
2,74,perceptual,0.1,0.05,target,decoy,0,7.292
2,75,numeric,0.03,0.05,competitor,competitor,1,7.851
2,76,numeric,0.1,0.05,competitor,target,1,8.931
2,77,numeric,0.1,0.05,competitor,competitor,0,8.548
2,78,numeric,0.1,0.05,no_decoy,target,0,6.036
2,79,perceptual,0.1,0.2,no_decoy,target,1,2.88
2,80,perceptual,0.03,0.05,competitor,competitor,1,7.539
2,81,perceptual,0.1,0.05,target,decoy,1,7.409
2,82,numeric,0.03,0.05,competitor,competitor,1,12.133
2,83,numeric,0.1,0.2,no_decoy,target,1,5.32
2,84,numeric,0.1,0.05,target,target,1,5.733
2,85,numeric,0.1,0.2,target,target,1,11.374
2,86,perceptual,0.1,0.2,competitor,competitor,1,6.683
2,87,numeric,0.1,0.05,no_decoy,competitor,0,5.691
2,88,perceptual,0.1,0.2,competitor,decoy,0,9.895
2,89,numeric,0.1,0.2,competitor,competitor,1,5.562
2,90,numeric,0.1,0.2,target,decoy,1,4.945
2,91,numeric,0.03,0.05,no_decoy,competitor,1,5.122
2,92,perceptual,0.03,0.2,target,target,0,10.721
2,93,numeric,0.03,0.2,competitor,competitor,0,9.395
2,94,numeric,0.1,0.05,no_decoy,competitor,1,5.587
2,95,perceptual,0.03,0.05,no_decoy,target,1,8.742
2,96,numeric,0.1,0.2,competitor,competitor,1,4.701
2,97,perceptual,0.1,0.05,target,target,1,13.533
2,98,perceptual,0.1,0.2,target,competitor,1,7.43
2,99,numeric,0.1,0.05,target,competitor,1,10.156
2,100,numeric,0.03,0.2,target,target,0,7.542
2,101,numeric,0.03,0.05,competitor,decoy,0,11.581
2,102,perceptual,0.03,0.05,target,target,1,8.408
2,103,perceptual,0.03,0.2,competitor,decoy,0,7.648
2,104,numeric,0.1,0.2,competitor,competitor,1,15.229
2,105,perceptual,0.1,0.2,no_decoy,competitor,1,8.524
2,106,perceptual,0.1,0.2,target,competitor,1,10.641
2,107,perceptual,0.1,0.05,no_decoy,competitor,1,3.732
2,108,numeric,0.03,0.2,no_decoy,target,1,6.923
2,109,numeric,0.03,0.2,competitor,decoy,1,11.104
2,110,numeric,0.1,0.05,competitor,target,1,5.207
2,111,perceptual,0.03,0.2,competitor,competitor,1,10.399
2,112,perceptual,0.03,0.05,competitor,decoy,0,6.426
2,113,numeric,0.03,0.05,no_decoy,target,1,9.721
2,114,perceptual,0.03,0.05,competitor,competitor,1,8.131
2,115,numeric,0.03,0.2,competitor,decoy,1,14.088
2,116,perceptual,0.1,0.2,no_decoy,target,1,5.968
2,117,perceptual,0.1,0.05,target,decoy,1,7.321
2,118,perceptual,0.03,0.2,target,competitor,1,5.379
2,119,perceptual,0.03,0.2,no_decoy,competitor,1,5.398
2,120,perceptual,0.1,0.2,target,competitor,0,14.151
2,121,perceptual,0.03,0.2,no_decoy,competitor,1,4.528
2,122,perceptual,0.1,0.2,competitor,target,1,8.287
2,123,numeric,0.03,0.05,no_decoy,competitor,1,6.655
2,124,numeric,0.03,0.2,target,competitor,1,5.83
2,125,perceptual,0.03,0.2,competitor,decoy,1,5.059
2,126,numeric,0.03,0.05,no_decoy,competitor,1,3.73
2,127,numeric,0.1,0.05,competitor,decoy,1,4.006
2,128,numeric,0.1,0.2,no_decoy,target,1,4.888
2,129,perceptual,0.1,0.2,target,target,1,7.1
2,130,perceptual,0.03,0.05,no_decoy,target,1,4.353
2,131,perceptual,0.03,0.05,no_decoy,target,1,5.536
2,132,perceptual,0.03,0.05,no_decoy,target,0,8.767
2,133,perceptual,0.03,0.2,no_decoy,target,0,4.477
2,134,numeric,0.1,0.2,no_decoy,target,1,7.617
2,135,numeric,0.03,0.05,competitor,competitor,1,8.2
2,136,numeric,0.1,0.05,target,decoy,1,7.683
2,137,perceptual,0.1,0.05,competitor,target,1,4.284
2,138,numeric,0.03,0.05,no_decoy,competitor,1,3.869
2,139,numeric,0.1,0.2,target,target,1,5.177
2,140,perceptual,0.1,0.2,competitor,target,1,5.453
2,141,perceptual,0.1,0.2,target,competitor,0,4.39
2,142,numeric,0.1,0.05,competitor,target,1,6.569
2,143,numeric,0.03,0.2,no_decoy,competitor,0,9.308
2,144,numeric,0.1,0.05,target,decoy,1,11.054
2,145,perceptual,0.1,0.05,competitor,target,1,6.405
2,146,numeric,0.1,0.2,target,decoy,1,4.732
2,147,perceptual,0.1,0.2,no_decoy,target,1,3.988
2,148,perceptual,0.03,0.05,no_decoy,competitor,1,6.613
2,149,numeric,0.03,0.2,no_decoy,target,1,9.671
2,150,numeric,0.1,0.05,competitor,target,1,9.339
2,151,numeric,0.03,0.05,target,competitor,1,6.454
2,152,perceptual,0.03,0.05,target,target,1,8.099
2,153,numeric,0.1,0.05,target,target,1,7.071
2,154,numeric,0.1,0.05,target,decoy,1,8.516
2,155,perceptual,0.03,0.2,competitor,decoy,0,7.773
2,156,perceptual,0.03,0.2,target,competitor,1,4.388
2,157,perceptual,0.1,0.2,competitor,competitor,1,6.917
2,158,perceptual,0.03,0.2,no_decoy,target,0,7.237
2,159,perceptual,0.03,0.05,target,target,0,14.116
2,160,perceptual,0.1,0.05,no_decoy,competitor,0,7.496
2,161,numeric,0.1,0.2,competitor,competitor,1,15.184
2,162,perceptual,0.03,0.05,no_decoy,competitor,1,7.267
2,163,perceptual,0.03,0.05,target,competitor,0,9.372
2,164,perceptual,0.03,0.05,no_decoy,target,0,6.147
2,165,perceptual,0.1,0.05,no_decoy,target,1,4.77
2,166,perceptual,0.1,0.2,competitor,decoy,0,9.366
2,168,numeric,0.1,0.2,competitor,decoy,1,3.697
2,169,perceptual,0.1,0.2,no_decoy,competitor,1,3.91
2,170,numeric,0.03,0.05,no_decoy,target,1,4.422
2,171,perceptual,0.03,0.2,competitor,competitor,1,4.608
2,172,numeric,0.03,0.2,target,competitor,1,3.894
2,173,perceptual,0.03,0.2,target,target,0,8.284
2,174,numeric,0.03,0.2,competitor,competitor,0,5.03
2,175,perceptual,0.1,0.05,competitor,competitor,1,6.329
2,176,numeric,0.03,0.2,no_decoy,target,1,2.988
2,177,numeric,0.03,0.05,target,decoy,1,13.209
2,178,numeric,0.1,0.05,competitor,decoy,1,10.883
2,179,numeric,0.1,0.05,no_decoy,target,1,3.399
2,180,numeric,0.03,0.2,no_decoy,competitor,0,9.895
2,181,perceptual,0.1,0.2,target,decoy,1,8.262
2,182,perceptual,0.03,0.05,competitor,decoy,0,12.196
2,183,perceptual,0.03,0.2,target,target,1,9.489
2,184,numeric,0.1,0.05,target,decoy,1,6.118
2,185,numeric,0.1,0.05,no_decoy,target,1,6.854
2,186,numeric,0.1,0.2,competitor,decoy,1,7.751
2,187,perceptual,0.1,0.2,competitor,target,1,6.942
2,188,numeric,0.1,0.2,no_decoy,competitor,1,3.616
2,189,perceptual,0.03,0.2,competitor,competitor,0,6.009
2,190,numeric,0.03,0.2,no_decoy,competitor,1,7.787
2,191,numeric,0.1,0.2,no_decoy,target,1,4.691
2,192,numeric,0.03,0.2,no_decoy,target,1,5.987
2,193,numeric,0.1,0.2,no_decoy,competitor,1,7.085
2,194,perceptual,0.1,0.05,no_decoy,competitor,1,3.901
2,195,numeric,0.1,0.05,competitor,competitor,0,5.733
2,196,numeric,0.03,0.2,target,competitor,1,5.013
2,197,perceptual,0.1,0.2,target,decoy,0,6.148
2,198,numeric,0.1,0.05,target,target,0,7.249
2,199,perceptual,0.1,0.05,target,competitor,0,6.703
2,200,perceptual,0.03,0.05,target,decoy,1,7.807
2,201,numeric,0.1,0.2,no_decoy,competitor,1,8.232
2,202,numeric,0.1,0.2,no_decoy,competitor,1,7.642
2,203,numeric,0.03,0.05,competitor,decoy,0,9.093
2,204,perceptual,0.1,0.2,competitor,target,1,6.362
2,205,numeric,0.1,0.2,target,decoy,1,4.679
2,206,numeric,0.1,0.05,no_decoy,target,1,4.693
2,207,numeric,0.1,0.2,target,target,1,8.281
2,208,perceptual,0.03,0.2,no_decoy,target,1,4.1
2,209,numeric,0.1,0.05,no_decoy,target,1,4.054
2,210,perceptual,0.03,0.2,competitor,competitor,0,4.973
2,211,perceptual,0.1,0.05,target,decoy,1,13.189
2,212,numeric,0.1,0.05,no_decoy,competitor,1,4.459
2,213,perceptual,0.1,0.05,no_decoy,competitor,1,4.584
2,214,perceptual,0.03,0.2,target,target,0,4.986
2,215,perceptual,0.03,0.2,no_decoy,target,1,4.382
2,216,perceptual,0.03,0.2,no_decoy,competitor,1,8.816
2,217,perceptual,0.03,0.05,competitor,target,0,11.722
2,218,numeric,0.1,0.05,target,competitor,1,8.626
2,219,numeric,0.1,0.2,competitor,competitor,0,7.39
2,220,perceptual,0.1,0.05,competitor,target,1,4.326
2,221,numeric,0.1,0.05,competitor,decoy,1,5.47
2,222,perceptual,0.1,0.2,target,target,1,5.176
2,223,numeric,0.03,0.2,competitor,competitor,0,11.758
2,224,perceptual,0.03,0.2,target,decoy,1,6.573
2,225,numeric,0.03,0.05,competitor,decoy,1,11.923
2,226,perceptual,0.1,0.05,no_decoy,competitor,0,4.627
2,227,numeric,0.03,0.2,competitor,target,0,4.888
2,228,numeric,0.03,0.2,no_decoy,target,0,4.849
2,229,numeric,0.03,0.2,target,decoy,1,6.279
2,230,perceptual,0.03,0.2,no_decoy,competitor,1,5.26
2,231,perceptual,0.1,0.2,target,competitor,1,6.95
2,232,numeric,0.1,0.2,competitor,decoy,1,4.486
2,233,perceptual,0.03,0.05,competitor,competitor,0,6.686
2,234,numeric,0.03,0.05,target,decoy,1,7.117
2,235,perceptual,0.03,0.05,no_decoy,competitor,1,5.016
2,236,perceptual,0.03,0.05,target,decoy,0,3.604
2,237,numeric,0.03,0.05,target,competitor,1,8.075
2,238,perceptual,0.03,0.2,target,decoy,0,3.303
2,239,numeric,0.1,0.2,no_decoy,target,1,3.317
2,240,numeric,0.03,0.05,target,target,1,7.06
2,241,perceptual,0.03,0.05,competitor,competitor,0,7.573
2,242,numeric,0.1,0.05,target,target,0,6.154
2,243,perceptual,0.03,0.05,no_decoy,target,0,3.112
2,244,numeric,0.1,0.2,target,competitor,1,3.967
2,245,numeric,0.1,0.2,competitor,target,1,5.365
2,246,numeric,0.03,0.05,competitor,target,0,10.502
2,247,perceptual,0.1,0.05,competitor,decoy,1,3.755
2,248,perceptual,0.1,0.05,target,decoy,0,6.599
2,249,perceptual,0.1,0.2,target,target,1,7.004
2,250,perceptual,0.03,0.05,no_decoy,target,1,5.807
2,251,perceptual,0.1,0.05,no_decoy,target,1,5.579
2,252,numeric,0.1,0.2,target,target,1,4.502
2,253,perceptual,0.03,0.2,target,decoy,1,3.895
2,254,perceptual,0.03,0.05,no_decoy,competitor,1,6.651
2,255,perceptual,0.1,0.05,competitor,decoy,1,6.166
2,256,perceptual,0.1,0.05,no_decoy,target,1,3.392
2,257,perceptual,0.1,0.05,competitor,decoy,1,5.861
2,258,perceptual,0.03,0.05,competitor,competitor,1,4.188
2,259,numeric,0.1,0.2,competitor,target,1,6.078
2,260,perceptual,0.03,0.2,target,competitor,0,6.259
2,261,numeric,0.03,0.05,target,decoy,0,10.881
2,262,numeric,0.03,0.2,competitor,decoy,0,12.893
2,263,numeric,0.03,0.2,competitor,competitor,0,5.795
2,264,perceptual,0.1,0.2,no_decoy,target,1,6.635
2,265,perceptual,0.1,0.2,target,competitor,1,6.704
2,266,numeric,0.03,0.2,target,target,1,5.051
2,267,perceptual,0.03,0.2,competitor,decoy,0,3.919
2,268,numeric,0.03,0.2,competitor,competitor,1,7.865
2,269,numeric,0.1,0.05,no_decoy,competitor,0,4.364
2,270,perceptual,0.03,0.2,competitor,competitor,0,5.326
2,271,perceptual,0.1,0.2,competitor,decoy,1,6.112
2,272,numeric,0.1,0.05,no_decoy,target,1,4.786
2,273,perceptual,0.03,0.05,target,decoy,1,4.516
2,274,numeric,0.03,0.05,competitor,competitor,1,5.284
2,275,numeric,0.03,0.05,competitor,target,0,4.417
2,276,numeric,0.03,0.05,no_decoy,target,1,5.257
2,277,perceptual,0.1,0.05,target,target,1,4.21
2,278,perceptual,0.1,0.2,competitor,target,1,6.648
2,279,numeric,0.03,0.05,target,competitor,0,4.483
2,280,perceptual,0.1,0.2,target,target,1,4.504
2,281,numeric,0.03,0.05,target,target,0,5.187
2,282,perceptual,0.1,0.05,target,decoy,0,6.523
2,283,perceptual,0.1,0.05,target,decoy,1,5.795
2,284,perceptual,0.03,0.05,no_decoy,competitor,1,4.066
2,285,perceptual,0.1,0.2,no_decoy,competitor,0,4.216
2,286,perceptual,0.03,0.05,competitor,target,1,5.199
2,287,perceptual,0.1,0.05,no_decoy,competitor,1,6.051
2,288,numeric,0.1,0.2,competitor,competitor,0,7.877
3,1,perceptual,0.1,0.2,competitor,target,1,8.61
3,2,numeric,0.03,0.05,competitor,target,1,9.448
3,3,perceptual,0.03,0.2,target,target,1,4.771
3,4,numeric,0.03,0.05,competitor,decoy,1,8.534
3,5,perceptual,0.03,0.05,competitor,target,0,8.153
3,6,perceptual,0.1,0.05,target,competitor,1,9.148
3,7,numeric,0.1,0.2,target,competitor,1,11.688
3,8,numeric,0.03,0.2,no_decoy,target,1,8.015
3,9,perceptual,0.1,0.05,target,target,0,9.994
3,10,perceptual,0.1,0.2,competitor,competitor,1,7.302
3,11,perceptual,0.1,0.2,target,decoy,1,5.873
3,12,numeric,0.03,0.2,target,target,1,12.356
3,13,numeric,0.03,0.05,competitor,competitor,0,11.864
3,14,perceptual,0.1,0.05,target,decoy,1,7.756
3,15,perceptual,0.1,0.2,target,target,1,5.141
3,16,perceptual,0.03,0.05,target,competitor,1,4.253
3,17,perceptual,0.03,0.2,competitor,decoy,1,7.403
3,18,numeric,0.03,0.05,competitor,target,1,10.384
3,19,numeric,0.03,0.2,target,competitor,1,9.523
3,20,numeric,0.03,0.05,no_decoy,target,0,10.069
3,21,perceptual,0.1,0.2,no_decoy,competitor,0,4.917
3,22,numeric,0.03,0.2,competitor,competitor,0,6.858
3,23,numeric,0.1,0.2,competitor,competitor,0,8.013
3,24,perceptual,0.03,0.2,competitor,decoy,1,6.979
3,25,perceptual,0.03,0.05,no_decoy,competitor,1,6.428
3,26,numeric,0.03,0.2,competitor,target,0,7.891
3,27,numeric,0.03,0.2,target,decoy,1,9.513
3,28,perceptual,0.03,0.2,competitor,decoy,1,11.165
3,29,numeric,0.1,0.05,no_decoy,competitor,1,4.51
3,30,perceptual,0.1,0.2,target,decoy,1,5.929
3,31,perceptual,0.03,0.05,no_decoy,target,1,4.383
3,32,numeric,0.03,0.2,competitor,competitor,0,11.711
3,33,perceptual,0.03,0.05,competitor,competitor,1,13.678
3,34,perceptual,0.03,0.2,no_decoy,competitor,1,6.656
3,35,numeric,0.1,0.05,no_decoy,target,1,7.034
3,36,perceptual,0.03,0.2,no_decoy,target,0,11.862
3,37,numeric,0.1,0.05,competitor,competitor,1,15.036
3,38,perceptual,0.03,0.05,competitor,target,0,8.586
3,39,perceptual,0.03,0.2,no_decoy,target,1,9.978
3,40,numeric,0.03,0.2,competitor,target,1,10.069
3,41,perceptual,0.03,0.2,no_decoy,competitor,1,9.24
3,42,numeric,0.1,0.2,competitor,target,1,9.634
3,43,numeric,0.03,0.05,no_decoy,competitor,0,8.219
3,44,perceptual,0.03,0.05,competitor,competitor,0,9.385
3,45,numeric,0.1,0.2,competitor,decoy,1,8.727
3,46,perceptual,0.03,0.2,competitor,target,0,10.286
3,47,perceptual,0.1,0.05,target,competitor,1,10.656
3,48,perceptual,0.03,0.2,no_decoy,competitor,1,6.749
3,49,numeric,0.1,0.2,no_decoy,target,1,10.177
3,50,numeric,0.03,0.05,target,competitor,1,8.678
3,51,numeric,0.03,0.05,target,target,1,13.02
3,52,numeric,0.1,0.05,no_decoy,target,0,9.808
3,53,numeric,0.03,0.05,competitor,decoy,1,12.921
3,54,perceptual,0.03,0.2,no_decoy,competitor,0,13.563
3,55,perceptual,0.03,0.2,target,target,1,11.79
3,56,numeric,0.1,0.05,competitor,decoy,1,14.515
3,57,perceptual,0.1,0.05,target,decoy,1,8.643
3,58,perceptual,0.1,0.2,target,competitor,1,6.774
3,59,numeric,0.03,0.05,target,competitor,0,8.546
3,60,numeric,0.1,0.2,competitor,target,1,8.313
3,61,perceptual,0.03,0.2,competitor,decoy,0,11.812
3,62,perceptual,0.03,0.2,target,competitor,1,6.664
3,63,numeric,0.1,0.2,target,target,1,7.788
3,64,perceptual,0.03,0.05,competitor,decoy,0,7.148
3,65,perceptual,0.03,0.05,no_decoy,target,0,7.64
3,66,numeric,0.1,0.05,target,competitor,1,17.397
3,67,perceptual,0.1,0.2,target,decoy,1,6.726
3,68,perceptual,0.03,0.05,no_decoy,target,1,10.329
3,69,numeric,0.1,0.05,competitor,competitor,1,10.142
3,70,perceptual,0.1,0.2,competitor,competitor,1,5.879
3,71,perceptual,0.03,0.05,target,competitor,1,5.318
3,72,numeric,0.1,0.2,competitor,decoy,1,7.965
3,73,numeric,0.03,0.05,no_decoy,target,1,8.704
3,74,numeric,0.03,0.05,no_decoy,target,1,7.512
3,75,perceptual,0.03,0.05,target,competitor,0,10.606
3,76,numeric,0.03,0.2,no_decoy,competitor,1,14.631
3,77,perceptual,0.03,0.2,target,competitor,1,10.806
3,78,perceptual,0.1,0.2,competitor,decoy,1,9.646
3,79,perceptual,0.03,0.2,target,decoy,1,10.519
3,80,numeric,0.1,0.05,no_decoy,target,1,10.978
3,81,perceptual,0.1,0.2,competitor,competitor,1,7.769
3,82,numeric,0.1,0.2,target,competitor,1,11.278
3,83,perceptual,0.1,0.2,no_decoy,target,1,7.271
3,84,perceptual,0.1,0.05,competitor,target,1,6.751
3,85,numeric,0.1,0.2,no_decoy,competitor,1,8.8
3,86,numeric,0.03,0.2,target,competitor,1,13.249
3,87,perceptual,0.1,0.05,competitor,target,1,8.227
3,88,perceptual,0.1,0.05,competitor,target,1,9.187
3,89,numeric,0.1,0.05,target,decoy,1,9.664
3,90,numeric,0.1,0.2,target,decoy,1,11.432
3,91,numeric,0.1,0.2,competitor,target,1,10.08
3,92,perceptual,0.03,0.05,competitor,target,0,10.951
3,93,perceptual,0.1,0.05,target,decoy,1,8.896
3,94,perceptual,0.03,0.2,no_decoy,competitor,1,9.254
3,95,perceptual,0.03,0.05,target,competitor,1,5.315
3,96,numeric,0.1,0.05,target,decoy,1,14.286
3,97,numeric,0.1,0.2,target,decoy,1,7.18
3,98,numeric,0.1,0.05,no_decoy,target,1,7.012
3,99,perceptual,0.1,0.05,no_decoy,target,1,5.133
3,100,perceptual,0.1,0.05,target,target,1,6.95
3,101,perceptual,0.03,0.2,competitor,target,1,15.394
3,103,perceptual,0.03,0.05,no_decoy,competitor,1,9.232
3,104,numeric,0.03,0.05,competitor,competitor,1,11.352
3,105,perceptual,0.03,0.05,target,competitor,1,9.587
3,106,numeric,0.03,0.2,no_decoy,target,1,10.782
3,107,numeric,0.03,0.2,competitor,target,1,10.517
3,108,perceptual,0.03,0.05,competitor,competitor,0,7.971
3,109,numeric,0.03,0.05,target,competitor,0,14.554
3,110,numeric,0.03,0.05,no_decoy,competitor,1,11.308
3,111,numeric,0.1,0.2,no_decoy,target,1,8.711
3,112,perceptual,0.03,0.05,no_decoy,competitor,1,9.301
3,113,perceptual,0.1,0.05,target,competitor,1,5.172
3,114,perceptual,0.03,0.2,no_decoy,target,1,3.802
3,115,perceptual,0.1,0.05,target,target,0,4.08
3,116,numeric,0.03,0.2,no_decoy,competitor,1,5.366
3,117,numeric,0.1,0.2,no_decoy,target,1,4.557
3,118,perceptual,0.03,0.05,no_decoy,competitor,1,6.698
3,119,numeric,0.1,0.2,target,decoy,0,7.23
3,120,perceptual,0.1,0.2,competitor,target,1,5.553
3,121,perceptual,0.1,0.05,competitor,target,1,6.945
3,122,numeric,0.1,0.05,competitor,decoy,1,7.586
3,123,numeric,0.03,0.2,no_decoy,target,1,9.614
3,124,perceptual,0.1,0.05,no_decoy,competitor,1,2.918
3,125,numeric,0.1,0.05,target,decoy,1,9.844
3,126,numeric,0.03,0.05,competitor,competitor,0,9.05
3,127,perceptual,0.03,0.2,competitor,competitor,1,5.528
3,128,perceptual,0.1,0.2,no_decoy,competitor,1,5.091
3,129,perceptual,0.03,0.2,competitor,target,1,3.095
3,130,numeric,0.03,0.2,no_decoy,competitor,1,3.145
3,131,perceptual,0.1,0.2,no_decoy,target,0,3.599
3,132,perceptual,0.1,0.05,no_decoy,competitor,1,3.266
3,133,numeric,0.1,0.2,competitor,target,0,4.527
3,134,numeric,0.03,0.05,target,competitor,1,8.902
3,135,perceptual,0.03,0.2,no_decoy,competitor,0,3.984
3,136,perceptual,0.1,0.05,target,competitor,1,4.928
3,137,numeric,0.1,0.05,competitor,competitor,1,3.44
3,138,perceptual,0.1,0.2,competitor,competitor,0,3.852
3,139,numeric,0.1,0.2,competitor,target,1,3.562
3,140,numeric,0.1,0.05,target,decoy,0,5.74
3,141,numeric,0.1,0.2,no_decoy,target,1,8.538
3,142,perceptual,0.1,0.05,competitor,competitor,0,3.769
3,143,numeric,0.1,0.2,target,decoy,1,4.456
3,144,numeric,0.03,0.2,target,target,0,4.264
3,145,numeric,0.1,0.2,competitor,target,0,4.901
3,146,numeric,0.03,0.05,target,competitor,0,5.171
3,147,numeric,0.03,0.05,no_decoy,competitor,1,3.245
3,148,numeric,0.1,0.2,target,target,1,4.177
3,149,perceptual,0.1,0.2,competitor,decoy,1,3.816
3,150,numeric,0.03,0.2,competitor,target,1,3.27
3,151,numeric,0.03,0.2,no_decoy,target,1,6.321
3,152,numeric,0.03,0.05,no_decoy,competitor,1,3.724
3,153,perceptual,0.1,0.05,competitor,decoy,1,3.278
3,154,perceptual,0.1,0.2,competitor,decoy,0,3.212
3,155,perceptual,0.03,0.05,no_decoy,target,1,3.129
3,156,numeric,0.03,0.2,target,decoy,1,3.536
3,157,perceptual,0.1,0.2,no_decoy,target,1,2.961
3,158,perceptual,0.03,0.05,no_decoy,target,1,2.705
3,159,numeric,0.1,0.05,no_decoy,competitor,0,2.921
3,160,numeric,0.1,0.05,target,target,1,5.366
3,161,numeric,0.03,0.05,no_decoy,competitor,0,3.827
3,162,numeric,0.03,0.2,competitor,target,0,4.536
3,163,perceptual,0.03,0.05,competitor,target,1,4.337
3,164,numeric,0.1,0.05,target,target,1,4.735
3,165,perceptual,0.03,0.05,target,target,1,4.315
3,166,numeric,0.1,0.05,target,target,1,7.043
3,167,perceptual,0.03,0.05,target,target,1,9.789
3,168,numeric,0.1,0.05,competitor,target,0,3.432
3,169,perceptual,0.1,0.2,target,decoy,0,5.056
3,170,perceptual,0.03,0.05,competitor,competitor,1,8.855
3,171,perceptual,0.03,0.2,target,target,0,3.347
3,172,numeric,0.1,0.2,target,competitor,1,4.2
3,173,perceptual,0.03,0.05,target,decoy,0,11.339
3,174,perceptual,0.1,0.2,competitor,decoy,1,4.903
3,175,numeric,0.03,0.2,competitor,competitor,1,5.135
3,176,numeric,0.1,0.05,no_decoy,target,1,2.814
3,177,numeric,0.1,0.2,competitor,target,1,4.58
3,178,perceptual,0.1,0.05,target,decoy,0,5.087
3,179,numeric,0.03,0.05,target,competitor,1,8.011
3,180,perceptual,0.1,0.2,no_decoy,competitor,0,3.507
3,181,perceptual,0.03,0.05,competitor,decoy,0,3.746
3,182,numeric,0.03,0.2,target,decoy,0,11.642
3,183,perceptual,0.1,0.2,target,target,0,5.953
3,184,perceptual,0.1,0.05,no_decoy,competitor,1,4.114
3,185,numeric,0.1,0.05,no_decoy,competitor,0,3.077
3,186,numeric,0.03,0.2,target,target,1,6.653
3,187,perceptual,0.03,0.05,no_decoy,competitor,0,2.449
3,188,perceptual,0.1,0.05,competitor,competitor,1,3.772
3,189,numeric,0.03,0.2,target,decoy,1,4.654
3,190,perceptual,0.1,0.2,no_decoy,target,1,3.238
3,191,perceptual,0.03,0.2,no_decoy,target,1,2.33
3,192,perceptual,0.03,0.2,target,competitor,0,2.727
3,193,perceptual,0.1,0.05,competitor,decoy,1,6.026
3,194,numeric,0.03,0.2,no_decoy,target,0,4.467
3,195,perceptual,0.03,0.05,target,competitor,0,3.755
3,196,perceptual,0.03,0.2,target,competitor,1,5.312
3,197,numeric,0.1,0.05,competitor,decoy,0,0.043
3,198,perceptual,0.1,0.2,target,target,0,3.954
3,199,perceptual,0.03,0.2,target,competitor,0,2.928
3,200,perceptual,0.1,0.2,no_decoy,competitor,1,2.181
3,201,numeric,0.03,0.2,target,competitor,1,5.119
3,202,numeric,0.1,0.05,target,target,0,7.628
3,203,numeric,0.03,0.2,competitor,competitor,0,3.869
3,204,numeric,0.03,0.05,target,target,1,7.12
3,205,perceptual,0.1,0.2,no_decoy,competitor,1,2.23
3,206,numeric,0.03,0.05,competitor,competitor,1,6.994
3,207,perceptual,0.03,0.2,competitor,target,1,4.881
3,208,numeric,0.1,0.2,competitor,target,0,6.421
3,209,numeric,0.1,0.2,competitor,target,1,5.329
3,210,perceptual,0.1,0.2,target,target,1,5.595
3,211,numeric,0.1,0.05,target,competitor,0,7.137
3,212,numeric,0.1,0.05,no_decoy,target,1,5.24
3,213,numeric,0.1,0.05,competitor,competitor,0,7.887
3,214,perceptual,0.03,0.2,target,target,0,7.858
3,215,perceptual,0.1,0.05,no_decoy,competitor,1,0.011
3,216,numeric,0.1,0.2,no_decoy,competitor,1,4.473
3,217,perceptual,0.1,0.05,target,competitor,1,4.935
3,218,numeric,0.1,0.05,target,decoy,0,8.395
3,219,perceptual,0.03,0.05,no_decoy,competitor,0,2.935
3,220,perceptual,0.03,0.2,no_decoy,target,0,2.913
3,221,numeric,0.1,0.2,target,competitor,1,3.777
3,222,numeric,0.1,0.2,no_decoy,competitor,0,3.979
3,223,numeric,0.03,0.05,competitor,competitor,0,6.297
3,224,numeric,0.1,0.2,target,decoy,1,4.428
3,225,perceptual,0.1,0.05,no_decoy,target,0,3.163
3,226,numeric,0.03,0.05,no_decoy,competitor,1,3.871
3,227,numeric,0.03,0.2,no_decoy,competitor,1,3.695
3,228,numeric,0.1,0.2,no_decoy,target,1,3.849
3,229,perceptual,0.1,0.2,competitor,target,1,2.681
3,230,perceptual,0.03,0.05,target,competitor,0,4.695
3,231,numeric,0.03,0.2,competitor,decoy,1,3.329
3,232,perceptual,0.1,0.05,no_decoy,target,1,3.983
3,233,numeric,0.03,0.2,no_decoy,target,0,3.568
3,234,numeric,0.1,0.2,no_decoy,competitor,1,5.902
3,235,perceptual,0.1,0.2,target,decoy,1,4.874
3,236,numeric,0.1,0.05,competitor,target,1,3.433
3,237,numeric,0.03,0.05,competitor,competitor,0,4.505
3,238,numeric,0.03,0.05,no_decoy,target,0,2.6
3,239,numeric,0.03,0.2,target,target,1,6.4
3,240,perceptual,0.1,0.05,no_decoy,target,0,2.566
3,241,perceptual,0.03,0.05,no_decoy,target,1,3.813
3,242,numeric,0.03,0.2,competitor,target,1,8.532
3,243,perceptual,0.1,0.05,competitor,decoy,1,7.333
3,244,numeric,0.03,0.05,no_decoy,target,1,5.516
3,245,numeric,0.03,0.05,target,target,1,10.395
3,246,perceptual,0.1,0.2,no_decoy,target,1,3.689
3,247,perceptual,0.1,0.2,no_decoy,competitor,1,3.351
3,248,perceptual,0.03,0.2,competitor,competitor,0,4.662
3,249,numeric,0.03,0.2,no_decoy,competitor,0,3.166
3,250,numeric,0.03,0.05,target,competitor,0,4.815
3,251,numeric,0.1,0.05,no_decoy,competitor,0,0.763
3,252,numeric,0.1,0.05,no_decoy,competitor,0,3.352
3,253,numeric,0.1,0.05,competitor,decoy,1,3.83
3,254,perceptual,0.03,0.05,competitor,target,1,3.572
3,255,numeric,0.03,0.2,target,decoy,1,4.534
3,256,perceptual,0.1,0.05,no_decoy,competitor,1,3.162
3,257,numeric,0.03,0.2,no_decoy,target,0,3.255
3,258,numeric,0.03,0.05,no_decoy,target,1,2.558
3,259,perceptual,0.03,0.2,competitor,competitor,1,4.73
3,260,perceptual,0.1,0.2,competitor,decoy,1,5.844
3,261,numeric,0.1,0.2,no_decoy,competitor,1,2.758
3,262,perceptual,0.1,0.2,target,target,1,4.064
3,263,numeric,0.1,0.2,target,target,1,4.294
3,264,perceptual,0.1,0.05,no_decoy,competitor,1,5.008
3,265,perceptual,0.03,0.2,target,decoy,1,5.49
3,266,perceptual,0.03,0.2,no_decoy,competitor,0,5.19
3,267,numeric,0.03,0.2,competitor,competitor,0,4.945
3,268,perceptual,0.1,0.05,competitor,competitor,1,6.739
3,269,perceptual,0.03,0.05,target,target,0,7.002
3,270,perceptual,0.03,0.2,competitor,decoy,1,4.261
3,271,perceptual,0.03,0.2,target,target,1,6.5
3,272,numeric,0.1,0.2,no_decoy,competitor,0,5.048
3,273,numeric,0.1,0.05,competitor,competitor,0,5.196
3,274,numeric,0.1,0.2,no_decoy,competitor,1,3.85
3,275,perceptual,0.1,0.2,target,decoy,1,3.462
3,276,numeric,0.1,0.05,target,competitor,1,9.514
3,277,numeric,0.03,0.05,competitor,target,0,7.711
3,278,perceptual,0.1,0.05,competitor,target,1,2.836
3,279,numeric,0.03,0.05,competitor,target,0,3.562
3,280,perceptual,0.1,0.2,no_decoy,target,1,3.472
3,281,numeric,0.1,0.05,competitor,decoy,1,5.937
3,282,numeric,0.1,0.05,no_decoy,competitor,1,3.896
3,283,perceptual,0.1,0.05,competitor,target,1,3.279
3,284,perceptual,0.03,0.05,competitor,competitor,1,3.672
3,285,perceptual,0.03,0.05,target,competitor,1,8.873
3,286,perceptual,0.1,0.05,no_decoy,competitor,1,3.756
3,287,perceptual,0.1,0.05,no_decoy,target,1,2.597
3,288,numeric,0.03,0.05,target,target,0,5.945
4,1,perceptual,0.1,0.05,no_decoy,competitor,1,12.395
4,2,perceptual,0.03,0.2,competitor,target,0,18.118
4,3,perceptual,0.1,0.2,target,target,0,9.796
4,4,perceptual,0.03,0.05,no_decoy,target,1,8.313
4,5,numeric,0.1,0.05,target,target,1,11.071
4,6,perceptual,0.03,0.2,target,decoy,1,10.743
4,7,perceptual,0.03,0.2,no_decoy,competitor,1,11.601
4,8,perceptual,0.03,0.2,competitor,competitor,0,19.34
4,9,perceptual,0.03,0.05,no_decoy,target,0,6.294
4,10,numeric,0.03,0.05,competitor,decoy,1,18.292
4,11,perceptual,0.03,0.05,no_decoy,competitor,0,10.967
4,12,numeric,0.03,0.2,competitor,target,1,14.136
4,14,numeric,0.1,0.05,no_decoy,target,1,6.771
4,15,numeric,0.03,0.2,target,decoy,0,14.15
4,16,numeric,0.03,0.05,no_decoy,target,1,5.292
4,17,numeric,0.1,0.2,competitor,target,0,11.536
4,18,perceptual,0.1,0.2,target,target,1,9.118
4,19,perceptual,0.1,0.2,target,target,1,10.302
4,20,numeric,0.1,0.2,target,target,1,10.181
4,21,numeric,0.03,0.05,competitor,competitor,1,8.836
4,22,perceptual,0.1,0.2,target,target,1,7.124
4,23,numeric,0.1,0.2,target,target,1,9.189
4,24,perceptual,0.03,0.05,competitor,decoy,1,8.368
4,25,perceptual,0.03,0.05,competitor,target,1,10.942
4,26,numeric,0.1,0.05,target,competitor,1,14.118
4,27,perceptual,0.1,0.2,no_decoy,target,1,4.933
4,28,perceptual,0.1,0.05,target,decoy,0,11.163
4,29,numeric,0.03,0.2,no_decoy,competitor,1,10.628
4,30,perceptual,0.03,0.2,competitor,competitor,0,8.959
4,31,perceptual,0.1,0.2,target,target,1,11.988
4,32,numeric,0.03,0.2,target,competitor,1,6.536
4,33,perceptual,0.1,0.2,target,competitor,1,8.558
4,34,perceptual,0.1,0.05,competitor,target,1,7.901
4,35,numeric,0.1,0.2,competitor,competitor,1,12.006
4,36,perceptual,0.03,0.05,target,decoy,1,15.034
4,37,perceptual,0.1,0.2,no_decoy,competitor,1,6.013
4,38,numeric,0.1,0.2,no_decoy,target,1,4.28
4,39,perceptual,0.1,0.2,target,target,1,11.092
4,40,numeric,0.1,0.05,no_decoy,target,1,9.19
4,41,numeric,0.03,0.05,no_decoy,competitor,1,6.016
4,42,numeric,0.1,0.05,competitor,competitor,1,10.516
4,43,perceptual,0.1,0.2,no_decoy,target,1,3.992
4,44,perceptual,0.03,0.05,target,competitor,0,10.66
4,45,numeric,0.03,0.2,competitor,competitor,1,15.637
4,46,perceptual,0.03,0.05,competitor,decoy,1,12.055
4,47,numeric,0.1,0.2,target,target,1,13.36
4,48,numeric,0.03,0.05,competitor,decoy,0,18.95
4,49,numeric,0.03,0.05,competitor,competitor,1,9.853
4,50,numeric,0.03,0.05,target,decoy,1,15.8
4,51,numeric,0.03,0.2,target,competitor,0,15.515
4,52,numeric,0.1,0.05,target,target,0,0.241
4,53,perceptual,0.1,0.05,competitor,target,0,12.655
4,54,perceptual,0.1,0.05,target,target,0,7.626
4,55,perceptual,0.03,0.05,target,target,0,6.121
4,56,numeric,0.1,0.2,competitor,target,1,14.472
4,57,numeric,0.1,0.2,competitor,competitor,1,9.965
4,58,perceptual,0.03,0.05,no_decoy,competitor,0,7.267
4,59,perceptual,0.03,0.2,competitor,target,0,6.744
4,60,perceptual,0.03,0.2,target,competitor,0,8.665
4,61,perceptual,0.1,0.05,no_decoy,competitor,1,4.743
4,62,numeric,0.03,0.05,target,competitor,1,13.092
4,63,numeric,0.1,0.2,no_decoy,target,0,7.78
4,64,perceptual,0.03,0.2,competitor,competitor,1,7.214
4,65,perceptual,0.1,0.05,competitor,competitor,1,7.888
4,66,numeric,0.1,0.2,no_decoy,target,1,6.502
4,67,numeric,0.1,0.05,competitor,target,1,15.698
4,68,perceptual,0.03,0.2,no_decoy,target,0,7.48
4,69,perceptual,0.03,0.05,competitor,decoy,1,8.856
4,70,perceptual,0.1,0.2,no_decoy,target,1,4.912
4,71,numeric,0.03,0.05,no_decoy,competitor,1,6.439
4,72,perceptual,0.03,0.2,target,decoy,1,6.45
4,73,perceptual,0.03,0.2,competitor,decoy,0,4.591
4,74,perceptual,0.1,0.2,no_decoy,target,0,4.304
4,75,perceptual,0.03,0.05,target,target,1,5.909
4,76,numeric,0.1,0.2,target,target,1,10.397
4,77,numeric,0.03,0.2,no_decoy,target,1,3.958
4,78,perceptual,0.03,0.05,no_decoy,target,1,6.156
4,79,numeric,0.03,0.2,no_decoy,target,0,8.015
4,80,numeric,0.03,0.05,target,target,0,14.956
4,81,perceptual,0.03,0.2,competitor,target,0,4.602
4,82,perceptual,0.03,0.05,competitor,decoy,0,4.533
4,83,perceptual,0.03,0.05,target,target,0,6.259
4,84,perceptual,0.1,0.2,no_decoy,competitor,1,3.269
4,85,numeric,0.03,0.2,competitor,target,1,4.87
4,86,perceptual,0.1,0.05,competitor,decoy,1,6.332
4,87,perceptual,0.03,0.2,target,target,1,8.016
4,88,perceptual,0.03,0.2,target,competitor,1,6.944
4,89,numeric,0.03,0.2,target,target,0,5.985
4,90,numeric,0.1,0.05,competitor,competitor,1,9.194
4,91,numeric,0.03,0.05,target,decoy,0,10.586
4,92,numeric,0.03,0.2,target,target,0,10.686
4,93,numeric,0.03,0.05,no_decoy,competitor,1,4.929
4,94,numeric,0.1,0.05,competitor,competitor,1,15.233
4,95,perceptual,0.03,0.05,no_decoy,competitor,1,5.005
4,96,numeric,0.03,0.2,competitor,target,1,9.055
4,97,numeric,0.03,0.05,target,target,1,11.003
4,98,perceptual,0.1,0.2,competitor,competitor,1,7.925
4,99,numeric,0.1,0.2,competitor,decoy,1,6.422
4,100,numeric,0.1,0.05,competitor,competitor,1,12.301
4,101,perceptual,0.1,0.2,competitor,competitor,1,5.337
4,102,perceptual,0.03,0.2,no_decoy,competitor,0,3.253
4,103,numeric,0.1,0.05,no_decoy,competitor,1,5.651
4,104,numeric,0.03,0.2,target,decoy,0,17.445
4,105,perceptual,0.03,0.05,target,competitor,0,7.316
4,106,numeric,0.1,0.05,target,decoy,1,8.567
4,107,numeric,0.1,0.2,no_decoy,competitor,1,3.49
4,108,perceptual,0.03,0.05,no_decoy,competitor,1,4.444
4,109,numeric,0.1,0.2,no_decoy,competitor,1,5.538
4,110,numeric,0.03,0.05,no_decoy,competitor,1,4.692
4,111,numeric,0.1,0.05,target,competitor,1,15.153
4,112,perceptual,0.1,0.05,target,target,1,4.083
4,113,numeric,0.03,0.2,no_decoy,competitor,1,3.613
4,114,numeric,0.1,0.2,target,competitor,1,6.607
4,115,perceptual,0.1,0.2,competitor,target,1,6.421
4,116,numeric,0.03,0.2,target,target,0,8.752
4,117,numeric,0.1,0.2,competitor,decoy,0,12.838
4,118,numeric,0.03,0.05,target,competitor,1,12.574
4,119,perceptual,0.1,0.2,target,decoy,1,9.416
4,120,numeric,0.1,0.05,no_decoy,competitor,1,9.279
4,121,perceptual,0.1,0.05,no_decoy,competitor,1,8.345
4,122,perceptual,0.1,0.05,no_decoy,competitor,1,5.459
4,123,numeric,0.03,0.2,no_decoy,competitor,0,6.661
4,124,perceptual,0.1,0.2,competitor,competitor,1,11.12
4,125,perceptual,0.03,0.2,no_decoy,target,1,3.61
4,126,numeric,0.1,0.05,target,decoy,1,11.074
4,127,numeric,0.1,0.2,competitor,target,1,7.992
4,128,numeric,0.03,0.05,no_decoy,target,0,6.467
4,129,perceptual,0.03,0.2,no_decoy,target,1,3.879
4,130,perceptual,0.1,0.05,no_decoy,target,1,8.854
4,131,numeric,0.1,0.05,competitor,competitor,1,8.427
4,132,numeric,0.1,0.2,no_decoy,target,1,7.078
4,133,numeric,0.03,0.05,competitor,target,0,11.645
4,134,numeric,0.1,0.05,no_decoy,target,1,6.36
4,135,numeric,0.1,0.2,competitor,target,1,10.053
4,136,perceptual,0.1,0.2,target,target,1,8.758
4,137,numeric,0.03,0.2,no_decoy,target,1,5.799
4,138,numeric,0.03,0.05,target,target,0,9.832
4,139,numeric,0.03,0.2,target,target,0,12.7
4,140,perceptual,0.03,0.2,target,decoy,1,15.045
4,141,perceptual,0.03,0.2,target,decoy,0,8.734
4,142,perceptual,0.1,0.2,competitor,target,1,11.954
4,143,numeric,0.03,0.05,no_decoy,target,0,8.953
4,144,numeric,0.1,0.05,no_decoy,competitor,1,10.335
4,145,numeric,0.1,0.05,no_decoy,target,1,5.784
4,146,perceptual,0.1,0.05,target,decoy,1,12.478
4,147,numeric,0.1,0.2,target,competitor,1,9.248
4,148,numeric,0.1,0.2,no_decoy,target,1,5.972
4,149,numeric,0.03,0.2,no_decoy,competitor,1,8.817
4,150,numeric,0.1,0.2,competitor,competitor,1,9.466
4,151,numeric,0.1,0.05,competitor,target,1,8.836
4,152,perceptual,0.1,0.05,no_decoy,competitor,0,6.891
4,153,numeric,0.03,0.05,competitor,decoy,1,8.963
4,154,perceptual,0.1,0.05,competitor,target,1,8.504
4,155,numeric,0.1,0.05,competitor,target,1,15.988
4,156,perceptual,0.03,0.2,target,decoy,1,7.641
4,157,numeric,0.1,0.05,competitor,competitor,1,10.952
4,158,numeric,0.03,0.2,target,decoy,1,16.186
4,159,numeric,0.03,0.05,target,target,0,13.536
4,160,numeric,0.1,0.2,target,competitor,1,14.442
4,161,numeric,0.1,0.2,competitor,decoy,1,6.257
4,162,perceptual,0.03,0.2,no_decoy,competitor,0,4.444
4,163,perceptual,0.1,0.05,target,decoy,0,10.8
4,164,numeric,0.03,0.2,target,decoy,1,7.007
4,165,perceptual,0.03,0.05,no_decoy,competitor,1,5.779
4,166,perceptual,0.03,0.2,competitor,target,1,8.331
4,167,perceptual,0.1,0.05,competitor,decoy,0,13.817
4,168,perceptual,0.1,0.2,target,competitor,1,6.589
4,169,perceptual,0.03,0.05,target,competitor,1,11.599
4,170,perceptual,0.1,0.05,no_decoy,target,1,4.977
4,172,numeric,0.1,0.05,no_decoy,target,0,5.274
4,173,perceptual,0.1,0.2,no_decoy,target,1,3.3
4,174,perceptual,0.1,0.2,competitor,target,1,3.86
4,175,perceptual,0.1,0.2,competitor,decoy,1,6.505
4,176,numeric,0.03,0.05,competitor,target,1,6.402
4,177,perceptual,0.03,0.2,competitor,target,1,3.801
4,178,perceptual,0.03,0.2,target,decoy,1,4.098
4,179,numeric,0.03,0.2,no_decoy,target,1,5.733
4,180,perceptual,0.1,0.05,competitor,competitor,1,5.553
4,181,numeric,0.1,0.2,no_decoy,competitor,0,4.473
4,182,perceptual,0.1,0.05,competitor,competitor,1,9.1
4,183,numeric,0.1,0.05,target,competitor,0,10.769
4,184,perceptual,0.1,0.2,competitor,competitor,1,5.387
4,185,numeric,0.1,0.2,no_decoy,competitor,1,6.493
4,186,perceptual,0.03,0.05,competitor,decoy,1,10.605
4,187,numeric,0.03,0.05,no_decoy,target,1,11.237
4,188,numeric,0.03,0.2,competitor,competitor,1,7.101
4,189,perceptual,0.1,0.2,competitor,target,1,11.827
4,190,numeric,0.03,0.05,target,competitor,1,6.3
4,191,perceptual,0.03,0.05,target,target,1,11.228
4,192,numeric,0.03,0.2,competitor,target,1,6.745
4,193,perceptual,0.03,0.05,no_decoy,target,1,4.1
4,194,perceptual,0.1,0.2,no_decoy,target,1,3.478
4,195,numeric,0.1,0.05,no_decoy,competitor,1,4.705
4,196,numeric,0.03,0.2,competitor,target,1,9.872
4,197,numeric,0.1,0.2,no_decoy,target,1,3.477
4,198,perceptual,0.1,0.05,no_decoy,competitor,0,5.424
4,199,perceptual,0.03,0.2,no_decoy,target,1,4.99
4,200,numeric,0.1,0.05,competitor,decoy,1,6.016
4,201,perceptual,0.03,0.05,target,target,1,7.92
4,202,perceptual,0.03,0.2,target,target,1,4.894
4,203,perceptual,0.1,0.05,target,decoy,1,5.114
4,204,numeric,0.1,0.05,no_decoy,target,1,6.33
4,205,numeric,0.03,0.05,no_decoy,competitor,0,6.12
4,206,perceptual,0.03,0.2,competitor,decoy,1,8.394
4,207,perceptual,0.1,0.2,competitor,decoy,1,10.389
4,208,perceptual,0.03,0.2,target,target,1,7.323
4,209,perceptual,0.03,0.05,competitor,competitor,1,6.992
4,210,perceptual,0.03,0.05,no_decoy,target,0,5.747
4,211,perceptual,0.1,0.05,target,competitor,1,4.287
4,212,perceptual,0.03,0.05,no_decoy,target,1,5.371
4,213,perceptual,0.03,0.2,competitor,target,1,4.993
4,214,numeric,0.1,0.05,competitor,target,1,6.709
4,215,perceptual,0.1,0.05,competitor,decoy,1,3.731
4,216,numeric,0.03,0.05,no_decoy,target,1,5.468
4,217,perceptual,0.03,0.05,competitor,decoy,1,12.054
4,218,numeric,0.03,0.05,competitor,decoy,1,8.488
4,219,numeric,0.03,0.2,target,decoy,1,8.028
4,220,numeric,0.03,0.05,target,competitor,0,10.278
4,221,numeric,0.1,0.2,target,target,0,7.111
4,222,numeric,0.03,0.2,no_decoy,competitor,0,7.153
4,223,numeric,0.03,0.05,target,decoy,0,11.894
4,224,numeric,0.03,0.05,competitor,target,1,10.656
4,225,perceptual,0.03,0.05,competitor,target,0,3.795
4,226,numeric,0.1,0.2,target,competitor,1,10.408
4,227,perceptual,0.03,0.2,no_decoy,competitor,0,4.255
4,228,numeric,0.03,0.05,target,competitor,0,9.369
4,229,perceptual,0.1,0.05,competitor,target,1,5.297
4,230,perceptual,0.03,0.2,no_decoy,competitor,1,6.714
4,231,numeric,0.03,0.2,target,competitor,1,8.346
4,232,perceptual,0.1,0.05,competitor,competitor,1,8.754
4,233,numeric,0.03,0.05,no_decoy,competitor,1,6.684
4,234,perceptual,0.03,0.05,target,decoy,0,7
4,235,perceptual,0.1,0.05,target,target,0,7.158
4,236,numeric,0.03,0.2,competitor,competitor,1,10.649
4,237,perceptual,0.03,0.2,no_decoy,competitor,1,4.44
4,238,perceptual,0.1,0.2,target,target,1,4.148
4,239,numeric,0.03,0.2,competitor,decoy,1,8.408
4,240,perceptual,0.1,0.05,no_decoy,competitor,1,9.029
4,241,numeric,0.03,0.2,no_decoy,competitor,1,7.475
4,242,numeric,0.03,0.05,no_decoy,competitor,1,6.617
4,243,perceptual,0.03,0.05,no_decoy,competitor,1,5.862
4,244,numeric,0.1,0.2,no_decoy,competitor,0,7.52
4,245,numeric,0.1,0.05,target,decoy,1,9.599
4,246,numeric,0.1,0.05,target,target,1,12.204
4,247,numeric,0.03,0.05,competitor,decoy,1,9.143
4,248,perceptual,0.1,0.05,target,decoy,1,4.162
4,249,numeric,0.1,0.05,target,target,1,7.16
4,250,numeric,0.1,0.2,competitor,target,1,11.251
4,251,numeric,0.03,0.2,competitor,decoy,1,7.426
4,252,numeric,0.1,0.05,target,target,1,9.388
4,253,perceptual,0.03,0.05,competitor,decoy,0,6.439
4,254,perceptual,0.03,0.05,target,decoy,1,5.109
4,255,perceptual,0.03,0.2,no_decoy,target,0,5.36
4,256,perceptual,0.1,0.2,no_decoy,competitor,0,6.279
4,257,perceptual,0.1,0.2,competitor,decoy,1,7.225
4,258,perceptual,0.03,0.2,competitor,target,1,9.085
4,259,perceptual,0.1,0.05,no_decoy,competitor,1,4.445
4,260,perceptual,0.1,0.05,no_decoy,target,1,4.592
4,261,perceptual,0.1,0.05,target,competitor,1,8.898
4,262,numeric,0.1,0.2,target,decoy,0,10.676
4,263,numeric,0.03,0.2,competitor,competitor,1,12.521
4,264,perceptual,0.1,0.2,competitor,decoy,1,4.867
4,265,perceptual,0.1,0.05,target,decoy,1,5.525
4,266,numeric,0.03,0.2,no_decoy,target,1,4.487
4,267,numeric,0.1,0.2,target,target,1,7.742
4,268,perceptual,0.1,0.05,competitor,competitor,1,10.027
4,269,numeric,0.03,0.05,competitor,target,1,10.502
4,270,numeric,0.03,0.05,competitor,target,1,13.9
4,271,perceptual,0.1,0.2,no_decoy,competitor,1,4.965
4,272,perceptual,0.03,0.05,target,competitor,1,7.681
4,273,perceptual,0.03,0.2,no_decoy,target,0,4.526
4,274,numeric,0.1,0.05,no_decoy,target,1,5.806
4,275,numeric,0.1,0.2,no_decoy,competitor,1,5.41
4,276,perceptual,0.03,0.2,target,target,1,8.594
4,277,perceptual,0.1,0.2,target,target,0,5.845
4,278,perceptual,0.03,0.05,competitor,target,1,6.62
4,279,perceptual,0.03,0.05,competitor,competitor,0,7.017
4,280,numeric,0.1,0.2,competitor,decoy,1,7.692
4,281,numeric,0.03,0.2,no_decoy,target,1,6.476
4,282,perceptual,0.1,0.05,no_decoy,competitor,1,4.414
4,283,perceptual,0.1,0.05,target,decoy,0,9.002
4,284,perceptual,0.1,0.2,no_decoy,competitor,1,2.94
4,285,perceptual,0.1,0.2,no_decoy,competitor,1,2.729
4,286,numeric,0.1,0.05,no_decoy,competitor,1,4.552
4,287,numeric,0.1,0.2,target,decoy,1,11.449
4,288,numeric,0.1,0.05,competitor,competitor,1,10.107
5,1,numeric,0.1,0.05,competitor,target,0,11.034
5,2,numeric,0.03,0.2,target,decoy,1,12.382
5,3,perceptual,0.03,0.05,no_decoy,competitor,0,8.459
5,4,numeric,0.03,0.05,no_decoy,competitor,1,10.894
5,5,numeric,0.03,0.2,competitor,decoy,0,12.267
5,6,perceptual,0.1,0.05,no_decoy,target,1,5.683
5,7,perceptual,0.1,0.2,target,target,1,7.035
5,8,numeric,0.03,0.05,competitor,decoy,1,10.703
5,9,perceptual,0.03,0.2,competitor,competitor,0,14.555
5,10,numeric,0.03,0.2,no_decoy,target,1,6.947
5,11,numeric,0.1,0.05,no_decoy,target,0,19.675
5,12,numeric,0.1,0.2,competitor,competitor,1,16.501
5,13,perceptual,0.03,0.05,competitor,decoy,1,9.871
5,14,perceptual,0.03,0.05,no_decoy,competitor,0,6.439
5,15,perceptual,0.1,0.05,target,target,1,13.249
5,16,perceptual,0.03,0.2,target,decoy,1,11.471
5,17,perceptual,0.1,0.2,competitor,decoy,0,7.557
5,18,perceptual,0.1,0.2,competitor,competitor,1,9.685
5,19,perceptual,0.03,0.05,competitor,target,0,15.651
5,20,numeric,0.03,0.2,no_decoy,target,1,8.435
5,21,numeric,0.1,0.05,no_decoy,target,1,11.405
5,22,perceptual,0.03,0.2,no_decoy,target,1,4.907
5,23,numeric,0.1,0.2,target,target,0,6.721
5,24,numeric,0.1,0.2,target,decoy,1,6.891
5,25,numeric,0.03,0.2,target,competitor,0,6.625
5,26,perceptual,0.03,0.05,competitor,decoy,1,11.689
5,27,numeric,0.1,0.2,competitor,competitor,1,11.854
5,28,numeric,0.03,0.05,no_decoy,competitor,1,9.218
5,29,numeric,0.03,0.2,target,target,1,6.868
5,30,numeric,0.03,0.2,competitor,decoy,0,10.784
5,31,perceptual,0.03,0.2,target,target,1,6.709
5,32,perceptual,0.03,0.2,no_decoy,competitor,1,9.383
5,33,numeric,0.03,0.2,competitor,competitor,0,15.41
5,34,perceptual,0.03,0.2,competitor,competitor,0,9.034
5,35,perceptual,0.1,0.2,competitor,target,1,9.508
5,36,perceptual,0.1,0.05,target,competitor,1,9.714
5,37,numeric,0.03,0.2,target,competitor,0,7.657
5,38,numeric,0.03,0.05,target,decoy,0,15.731
5,39,perceptual,0.03,0.05,no_decoy,target,1,10.743
5,40,perceptual,0.03,0.05,no_decoy,target,1,9.239
5,41,numeric,0.1,0.2,no_decoy,target,1,8.072
5,42,numeric,0.1,0.05,competitor,target,1,19.986
5,43,perceptual,0.03,0.05,target,decoy,1,10.423
5,44,numeric,0.03,0.05,target,competitor,1,14.299
5,45,numeric,0.1,0.05,target,decoy,1,12.817
5,46,perceptual,0.1,0.05,no_decoy,competitor,1,6.071
5,47,numeric,0.1,0.2,no_decoy,competitor,1,7.213
5,48,perceptual,0.1,0.2,no_decoy,target,1,6.618
5,49,numeric,0.03,0.2,no_decoy,target,0,11.132
5,51,numeric,0.03,0.05,competitor,target,0,8.76
5,52,numeric,0.1,0.2,target,decoy,1,9.649
5,53,numeric,0.03,0.05,no_decoy,competitor,1,7.746
5,54,numeric,0.1,0.05,no_decoy,target,1,8.849
5,55,perceptual,0.1,0.05,competitor,decoy,0,10.066
5,56,numeric,0.1,0.05,target,target,1,11.316
5,57,perceptual,0.03,0.2,competitor,target,0,5.115
5,58,numeric,0.1,0.05,competitor,target,1,8.133
5,59,numeric,0.1,0.2,competitor,decoy,0,5.121
5,60,numeric,0.03,0.2,competitor,target,1,17.886
5,61,perceptual,0.03,0.2,competitor,target,0,9.233
5,62,perceptual,0.1,0.05,no_decoy,target,1,5.817
5,63,perceptual,0.1,0.2,target,target,1,6.684
5,64,perceptual,0.1,0.2,target,target,0,11.703
5,65,numeric,0.1,0.2,no_decoy,competitor,0,5.92
5,66,perceptual,0.03,0.05,target,decoy,1,4.733
5,67,perceptual,0.1,0.2,no_decoy,competitor,0,6.265
5,68,numeric,0.1,0.2,target,competitor,1,4.518
5,69,numeric,0.1,0.2,target,target,0,4.739
5,70,numeric,0.1,0.05,competitor,target,1,9.053
5,71,perceptual,0.03,0.05,competitor,target,0,7.8
5,72,numeric,0.1,0.05,no_decoy,target,1,5.866
5,73,perceptual,0.03,0.2,competitor,competitor,0,4.766
5,74,perceptual,0.1,0.05,target,competitor,1,5.382
5,75,perceptual,0.1,0.05,competitor,competitor,0,7.713
5,76,numeric,0.1,0.05,target,competitor,1,11.117
5,77,numeric,0.1,0.2,no_decoy,competitor,0,3.749
5,78,numeric,0.03,0.05,target,decoy,0,8.638
5,79,numeric,0.1,0.2,no_decoy,target,0,3.377
5,80,numeric,0.03,0.05,no_decoy,competitor,1,5.868
5,81,numeric,0.03,0.05,target,target,1,8.018
5,82,numeric,0.03,0.2,competitor,decoy,0,9.986
5,83,perceptual,0.03,0.2,competitor,target,1,6.016
5,84,numeric,0.03,0.2,no_decoy,competitor,0,17.35
5,85,numeric,0.03,0.05,no_decoy,competitor,0,2.964
5,86,perceptual,0.1,0.05,competitor,decoy,1,6.38
5,87,perceptual,0.03,0.05,target,target,1,6.783
5,88,numeric,0.1,0.05,competitor,decoy,0,16.003
5,89,numeric,0.03,0.2,target,competitor,1,4.266
5,90,numeric,0.03,0.2,target,competitor,1,8.151
5,91,numeric,0.03,0.05,target,target,1,10.501
5,92,perceptual,0.1,0.05,competitor,decoy,1,7.58
5,93,perceptual,0.1,0.2,target,target,1,7.565
5,94,numeric,0.03,0.2,competitor,decoy,0,13.055
5,95,perceptual,0.1,0.2,no_decoy,competitor,0,4.5
5,96,perceptual,0.1,0.05,target,competitor,1,6.901
5,97,numeric,0.03,0.2,no_decoy,competitor,1,4.329
5,98,numeric,0.1,0.2,competitor,target,0,5.755
5,99,perceptual,0.03,0.2,no_decoy,target,0,5.55
5,100,perceptual,0.1,0.2,target,decoy,0,4.916
5,101,numeric,0.1,0.05,no_decoy,competitor,1,4.78
5,102,perceptual,0.1,0.05,competitor,competitor,0,5.875
5,103,perceptual,0.1,0.05,competitor,target,1,6.467
5,104,perceptual,0.03,0.2,target,target,0,7.854
5,105,perceptual,0.03,0.05,competitor,target,0,7.915
5,106,perceptual,0.03,0.2,target,competitor,1,6.426
5,107,numeric,0.03,0.2,target,competitor,1,7.621
5,108,numeric,0.03,0.05,target,competitor,0,13.022
5,109,perceptual,0.1,0.2,competitor,decoy,0,12.742
5,110,numeric,0.03,0.05,competitor,decoy,1,9.848
5,111,perceptual,0.03,0.2,no_decoy,competitor,0,7.067
5,112,numeric,0.1,0.2,no_decoy,competitor,1,10.596
5,113,numeric,0.1,0.2,target,target,1,6.363
5,114,perceptual,0.03,0.2,target,target,1,7.15
5,115,numeric,0.03,0.05,no_decoy,competitor,0,5.816
5,116,numeric,0.03,0.05,no_decoy,target,1,3.566
5,117,perceptual,0.03,0.05,target,target,0,3.274
5,118,perceptual,0.1,0.2,no_decoy,competitor,1,3.5
5,119,perceptual,0.1,0.05,target,decoy,1,4.107
5,120,numeric,0.03,0.05,no_decoy,target,0,4.896
5,121,numeric,0.03,0.05,no_decoy,competitor,0,5.233
5,122,numeric,0.1,0.05,no_decoy,competitor,1,3.365
5,123,perceptual,0.03,0.2,target,competitor,1,6.796
5,124,numeric,0.03,0.2,target,target,0,5.604
5,125,numeric,0.1,0.2,competitor,competitor,1,11.205
5,126,perceptual,0.03,0.05,target,decoy,0,5.415
5,127,numeric,0.1,0.05,target,target,1,6.266
5,128,perceptual,0.03,0.05,no_decoy,competitor,0,3.021
5,129,perceptual,0.1,0.05,competitor,target,0,9.541
5,130,perceptual,0.03,0.2,no_decoy,competitor,0,5.949
5,131,perceptual,0.1,0.2,competitor,competitor,1,9.708
5,132,perceptual,0.1,0.2,target,target,1,8.4
5,133,perceptual,0.1,0.05,no_decoy,target,1,4.466
5,134,numeric,0.1,0.05,no_decoy,target,1,7.135
5,135,perceptual,0.03,0.2,no_decoy,target,0,6.589
5,136,perceptual,0.1,0.05,no_decoy,competitor,1,9.437
5,137,numeric,0.03,0.05,competitor,target,0,4.749
5,138,perceptual,0.03,0.05,target,competitor,0,5.169
5,139,numeric,0.1,0.05,competitor,competitor,1,5.584
5,140,numeric,0.1,0.05,target,decoy,1,7.856
5,141,numeric,0.03,0.05,competitor,target,1,9.256
5,142,numeric,0.03,0.05,target,decoy,0,15.249
5,143,perceptual,0.03,0.05,target,target,1,3.951
5,144,perceptual,0.03,0.2,no_decoy,target,1,3.016
5,145,perceptual,0.1,0.2,target,decoy,0,4.544
5,146,numeric,0.1,0.2,target,decoy,1,4.895
5,147,perceptual,0.1,0.2,competitor,decoy,0,4.325
5,148,numeric,0.03,0.2,no_decoy,competitor,0,4.7
5,149,numeric,0.03,0.05,competitor,competitor,1,7.249
5,150,perceptual,0.03,0.2,target,decoy,1,5.317
5,151,numeric,0.03,0.2,target,decoy,1,8.485
5,152,numeric,0.03,0.2,competitor,target,0,9.45
5,153,numeric,0.03,0.05,competitor,decoy,0,4.605
5,154,perceptual,0.1,0.2,target,target,1,3.792
5,155,numeric,0.1,0.2,competitor,target,1,2.987
5,156,perceptual,0.03,0.2,no_decoy,target,1,3.605
5,157,perceptual,0.03,0.05,target,competitor,1,8.702
5,158,perceptual,0.03,0.05,no_decoy,competitor,1,4.152
5,159,perceptual,0.1,0.05,no_decoy,competitor,1,4.001
5,160,perceptual,0.03,0.05,competitor,competitor,0,15.559
5,161,perceptual,0.03,0.2,competitor,decoy,1,4.691
5,162,perceptual,0.03,0.05,target,competitor,0,8.3
5,163,perceptual,0.1,0.2,competitor,decoy,1,5.63
5,164,numeric,0.1,0.05,target,competitor,1,3.828
5,165,numeric,0.03,0.05,target,decoy,0,4.35
5,166,perceptual,0.03,0.05,no_decoy,competitor,0,2.571
5,167,numeric,0.03,0.05,target,competitor,0,3.965
5,168,perceptual,0.1,0.2,target,target,1,7.671
5,169,perceptual,0.1,0.05,competitor,competitor,1,3.841
5,170,numeric,0.1,0.05,competitor,decoy,0,4.322
5,171,numeric,0.03,0.2,no_decoy,target,1,3.398
5,172,perceptual,0.1,0.05,competitor,competitor,0,5.321
5,173,numeric,0.03,0.2,no_decoy,target,0,2.833
5,174,perceptual,0.03,0.2,target,competitor,0,2.979
5,175,perceptual,0.03,0.05,no_decoy,competitor,1,2.781
5,176,numeric,0.03,0.05,target,decoy,0,3.349
5,177,perceptual,0.03,0.05,no_decoy,target,1,6.967
5,178,perceptual,0.03,0.2,no_decoy,competitor,0,5.45
5,179,numeric,0.03,0.2,competitor,target,0,6.638
5,180,perceptual,0.1,0.05,target,competitor,0,4.324
5,181,numeric,0.03,0.2,competitor,target,0,6.526
5,182,numeric,0.1,0.05,target,competitor,1,6.117
5,183,perceptual,0.03,0.05,no_decoy,target,1,3.614
5,184,perceptual,0.1,0.05,target,decoy,1,3.698
5,185,perceptual,0.1,0.05,no_decoy,target,1,3.949
5,186,numeric,0.1,0.2,target,competitor,0,7.95
5,187,perceptual,0.1,0.05,target,decoy,1,6.35
5,188,numeric,0.03,0.05,no_decoy,target,1,4.749
5,189,perceptual,0.1,0.2,no_decoy,target,1,3.726
5,190,perceptual,0.03,0.05,no_decoy,competitor,0,3.933
5,191,numeric,0.1,0.05,target,target,1,3.966
5,192,numeric,0.03,0.2,target,decoy,0,4.031
5,193,perceptual,0.03,0.2,target,decoy,0,6.303
5,194,numeric,0.03,0.05,competitor,competitor,0,12.985
5,195,perceptual,0.03,0.05,target,decoy,0,8.702
5,196,numeric,0.03,0.05,competitor,competitor,0,8.311
5,197,perceptual,0.1,0.2,target,target,1,7.439
5,198,numeric,0.1,0.05,target,competitor,1,6.74
5,199,numeric,0.1,0.2,no_decoy,target,1,3.607
5,200,perceptual,0.1,0.05,target,competitor,0,2.735
5,201,perceptual,0.1,0.2,competitor,competitor,0,2.663
5,202,perceptual,0.03,0.2,competitor,target,1,2.731
5,203,perceptual,0.1,0.2,competitor,target,1,6.846
5,204,numeric,0.1,0.05,no_decoy,target,0,3.611
5,205,perceptual,0.03,0.2,target,competitor,0,5.947
5,206,perceptual,0.03,0.05,no_decoy,competitor,0,3.238
5,207,numeric,0.1,0.05,no_decoy,target,1,6.544
5,208,numeric,0.03,0.2,competitor,decoy,1,5.249
5,209,numeric,0.03,0.05,competitor,decoy,1,6.442
5,210,numeric,0.1,0.2,competitor,competitor,0,5.399
5,211,numeric,0.1,0.05,target,decoy,1,4.371
5,212,perceptual,0.1,0.2,competitor,competitor,0,2.637
5,213,numeric,0.03,0.05,target,competitor,1,4.219
5,214,numeric,0.1,0.05,competitor,target,0,5.07
5,215,perceptual,0.1,0.2,no_decoy,competitor,0,4.953
5,216,perceptual,0.03,0.05,competitor,competitor,1,2.948
5,217,perceptual,0.03,0.05,competitor,competitor,0,4.702
5,218,perceptual,0.1,0.05,target,competitor,0,4.013
5,219,perceptual,0.1,0.2,no_decoy,target,1,7.485
5,220,perceptual,0.1,0.05,no_decoy,competitor,1,3.905
5,221,numeric,0.1,0.2,no_decoy,target,1,8.29
5,222,numeric,0.1,0.05,no_decoy,target,1,10.183
5,223,perceptual,0.1,0.05,competitor,competitor,1,7.067
5,224,numeric,0.03,0.05,no_decoy,target,0,9.382
5,225,numeric,0.1,0.05,competitor,decoy,1,4.124
5,226,numeric,0.03,0.2,no_decoy,competitor,1,3.534
5,227,perceptual,0.1,0.05,target,target,0,4.149
5,228,numeric,0.1,0.2,target,target,0,3.585
5,229,numeric,0.03,0.2,target,competitor,0,2.847
5,230,perceptual,0.1,0.05,no_decoy,target,0,3.431
5,231,numeric,0.1,0.2,competitor,competitor,0,5.271
5,232,numeric,0.1,0.2,no_decoy,target,0,5.214
5,233,perceptual,0.1,0.2,no_decoy,competitor,1,4.146
5,234,perceptual,0.1,0.05,no_decoy,target,1,3.082
5,235,numeric,0.1,0.2,competitor,target,1,3.982
5,236,perceptual,0.1,0.05,competitor,competitor,0,4.38
5,237,numeric,0.1,0.2,target,target,0,5.845
5,238,perceptual,0.1,0.2,competitor,decoy,0,7.977
5,239,numeric,0.03,0.05,competitor,decoy,0,4.808
5,240,numeric,0.03,0.2,no_decoy,competitor,0,5.164
5,241,perceptual,0.1,0.2,target,decoy,0,7.718
5,242,perceptual,0.1,0.05,target,target,0,3.887
5,243,numeric,0.1,0.2,competitor,competitor,1,4.583
5,244,perceptual,0.1,0.2,target,competitor,1,2.799
5,245,perceptual,0.1,0.2,no_decoy,target,1,3.301
5,246,perceptual,0.03,0.05,competitor,competitor,0,4.359
5,247,numeric,0.1,0.2,no_decoy,competitor,1,7.583
5,248,numeric,0.03,0.2,no_decoy,target,0,5.405
5,249,numeric,0.1,0.2,no_decoy,competitor,1,4.139
5,250,perceptual,0.03,0.2,competitor,competitor,0,4.467
5,251,perceptual,0.03,0.05,target,decoy,0,4.116
5,252,numeric,0.03,0.05,competitor,competitor,0,4.269
5,253,numeric,0.03,0.2,target,competitor,1,2.908
5,254,numeric,0.03,0.2,competitor,competitor,1,8.815
5,255,numeric,0.1,0.05,target,target,1,6.635
5,256,perceptual,0.03,0.2,target,decoy,0,4.596
5,257,numeric,0.1,0.2,no_decoy,competitor,0,3.638
5,258,perceptual,0.03,0.05,competitor,competitor,0,4.58
5,259,perceptual,0.03,0.05,competitor,decoy,0,8.735
5,260,numeric,0.1,0.2,target,target,0,5.353
5,261,perceptual,0.03,0.05,competitor,target,0,7.616
5,262,numeric,0.03,0.05,target,target,0,5.718
5,263,perceptual,0.1,0.05,no_decoy,target,1,4.932
5,264,numeric,0.1,0.2,competitor,target,0,5.38
5,265,perceptual,0.1,0.2,no_decoy,competitor,1,3.835
5,266,numeric,0.1,0.05,competitor,target,1,6.359
5,267,perceptual,0.1,0.05,no_decoy,target,1,3.604
5,268,numeric,0.1,0.05,competitor,decoy,0,5.774
5,269,perceptual,0.03,0.2,competitor,decoy,0,3.784
5,270,numeric,0.1,0.05,no_decoy,target,1,2.899
5,271,numeric,0.03,0.05,no_decoy,target,0,12.873
5,272,perceptual,0.1,0.2,competitor,competitor,1,5.708
5,273,perceptual,0.1,0.2,no_decoy,competitor,1,2.809
5,274,numeric,0.03,0.2,competitor,target,0,2.7
5,275,numeric,0.1,0.2,target,target,0,4.753
5,276,perceptual,0.03,0.2,no_decoy,competitor,0,4.524
5,277,numeric,0.1,0.05,competitor,competitor,0,7.9
5,278,numeric,0.1,0.2,competitor,competitor,1,7.831
5,279,perceptual,0.1,0.05,competitor,decoy,1,4.145
5,280,perceptual,0.03,0.2,competitor,competitor,0,6.599
5,281,perceptual,0.03,0.2,no_decoy,competitor,1,6.676
5,282,perceptual,0.03,0.2,no_decoy,target,0,6.35
5,283,numeric,0.03,0.2,no_decoy,competitor,0,4.702
5,284,perceptual,0.03,0.2,competitor,decoy,1,7.205
5,285,numeric,0.1,0.05,target,decoy,0,6.116
5,286,perceptual,0.03,0.05,target,competitor,1,3.59
5,287,perceptual,0.1,0.2,no_decoy,competitor,1,3.314
5,288,numeric,0.1,0.05,no_decoy,target,1,2.763
6,1,perceptual,0.03,0.05,competitor,decoy,0,16.565
6,2,perceptual,0.03,0.05,no_decoy,target,0,4.99
6,3,perceptual,0.1,0.2,competitor,target,0,7.288
6,4,numeric,0.1,0.05,competitor,competitor,1,9.436
6,5,perceptual,0.03,0.05,competitor,target,0,5.181
6,6,perceptual,0.1,0.05,competitor,target,1,5.267
6,7,perceptual,0.03,0.2,no_decoy,competitor,0,3.522
6,8,numeric,0.1,0.05,no_decoy,target,0,2.604
6,9,numeric,0.03,0.05,no_decoy,competitor,0,2.618
6,10,perceptual,0.03,0.05,target,decoy,0,2.994
6,11,perceptual,0.1,0.05,competitor,competitor,1,3.525
6,12,perceptual,0.1,0.2,no_decoy,competitor,1,2.967
6,13,numeric,0.1,0.2,no_decoy,competitor,0,2.441
6,14,perceptual,0.03,0.05,no_decoy,target,1,3.416
6,15,numeric,0.1,0.2,competitor,competitor,0,4.204
6,16,perceptual,0.03,0.05,no_decoy,competitor,1,3.615
6,17,perceptual,0.1,0.05,no_decoy,target,0,3.429
6,18,numeric,0.03,0.2,target,decoy,0,4.893
6,19,perceptual,0.1,0.2,no_decoy,competitor,1,2.542
6,20,perceptual,0.03,0.2,no_decoy,competitor,0,2.936
6,21,numeric,0.1,0.2,competitor,decoy,1,3.381
6,22,numeric,0.1,0.05,competitor,decoy,0,5.933
6,23,perceptual,0.03,0.2,target,competitor,0,2.683
6,24,perceptual,0.1,0.2,no_decoy,competitor,1,4.032
6,25,perceptual,0.03,0.05,competitor,target,1,3.312
6,26,numeric,0.03,0.05,target,target,1,6.363
6,27,numeric,0.1,0.05,target,competitor,0,5.276
6,28,numeric,0.03,0.05,competitor,target,1,2.757
6,29,perceptual,0.1,0.2,competitor,competitor,1,4.336
6,30,perceptual,0.03,0.05,target,decoy,0,2.987
6,31,perceptual,0.03,0.05,no_decoy,competitor,0,3.99
6,32,numeric,0.03,0.2,no_decoy,competitor,1,5.033
6,33,numeric,0.1,0.2,no_decoy,target,1,4.819
6,34,perceptual,0.1,0.05,target,decoy,0,2.524
6,35,perceptual,0.1,0.2,no_decoy,competitor,1,2.31
6,36,numeric,0.03,0.05,no_decoy,competitor,1,2.386
6,37,perceptual,0.03,0.2,target,competitor,1,2.898
6,38,numeric,0.03,0.2,competitor,target,0,2.112
6,39,numeric,0.03,0.2,competitor,decoy,1,2.989
6,40,numeric,0.03,0.2,target,target,0,2.364
6,41,numeric,0.03,0.2,no_decoy,target,1,2.378
6,42,numeric,0.1,0.2,target,decoy,0,2.198
6,43,numeric,0.03,0.05,no_decoy,target,0,2.458
6,44,perceptual,0.03,0.2,no_decoy,competitor,0,2.658
6,45,perceptual,0.03,0.05,competitor,decoy,0,3.016
6,46,numeric,0.03,0.2,target,decoy,0,5.552
6,47,perceptual,0.03,0.2,target,target,0,4.116
6,48,numeric,0.1,0.05,target,decoy,1,3.916
6,49,perceptual,0.03,0.2,target,decoy,1,2.378
6,50,numeric,0.1,0.2,competitor,target,0,2.484
6,51,perceptual,0.1,0.2,no_decoy,competitor,0,1.983
6,52,numeric,0.1,0.05,no_decoy,competitor,1,1.948
6,53,numeric,0.03,0.2,target,competitor,0,2.834
6,54,perceptual,0.03,0.05,target,competitor,0,1.76
6,55,numeric,0.03,0.2,competitor,competitor,0,3.38
6,56,numeric,0.03,0.05,competitor,target,1,3.991
6,57,numeric,0.03,0.05,no_decoy,target,0,4.617
6,58,numeric,0.1,0.05,no_decoy,target,1,3.483
6,59,perceptual,0.1,0.05,target,competitor,0,4.093
6,60,numeric,0.1,0.2,competitor,competitor,0,4.644
6,61,numeric,0.03,0.2,target,target,0,2.086
6,62,numeric,0.1,0.2,competitor,competitor,0,2.348
6,63,numeric,0.03,0.05,competitor,decoy,0,2.36
6,64,numeric,0.1,0.05,target,competitor,1,2.614
6,65,numeric,0.03,0.2,no_decoy,competitor,1,2.456
6,66,numeric,0.1,0.2,target,decoy,1,2.914
6,67,perceptual,0.1,0.2,target,competitor,1,1.99
6,68,perceptual,0.03,0.05,no_decoy,target,1,3.007
6,69,numeric,0.1,0.2,competitor,competitor,0,2.715
6,70,perceptual,0.1,0.05,competitor,target,1,2.54
6,71,perceptual,0.1,0.05,target,target,1,1.906
6,72,perceptual,0.1,0.05,no_decoy,target,0,2.203
6,73,perceptual,0.1,0.05,competitor,decoy,0,3.616
6,74,perceptual,0.03,0.05,target,competitor,0,2.628
6,75,perceptual,0.1,0.05,target,competitor,0,1.911
6,76,perceptual,0.1,0.2,target,target,0,3.296
6,77,numeric,0.1,0.2,target,decoy,1,4.922
6,78,perceptual,0.03,0.2,target,competitor,0,2.549
6,79,numeric,0.03,0.05,competitor,competitor,0,3.441
6,80,numeric,0.03,0.05,competitor,competitor,0,3.081
6,81,numeric,0.03,0.05,no_decoy,target,1,4.537
6,82,perceptual,0.03,0.05,competitor,competitor,1,3.759
6,83,numeric,0.03,0.05,competitor,target,1,2.846
6,84,perceptual,0.03,0.05,competitor,competitor,1,2.223
6,85,perceptual,0.1,0.05,target,target,1,3.057
6,86,numeric,0.1,0.2,no_decoy,competitor,0,2.184
6,87,perceptual,0.1,0.2,no_decoy,competitor,1,2.384
6,88,numeric,0.1,0.05,competitor,competitor,1,2.1
6,89,perceptual,0.03,0.05,no_decoy,target,0,1.669
6,90,numeric,0.1,0.2,competitor,target,0,1.48
6,91,numeric,0.1,0.2,no_decoy,target,0,2.539
6,92,numeric,0.1,0.2,competitor,decoy,0,2.292
6,93,numeric,0.03,0.05,target,competitor,0,2.242
6,94,perceptual,0.1,0.05,target,decoy,1,2.537
6,95,numeric,0.03,0.2,competitor,target,0,2.092
6,96,perceptual,0.03,0.05,no_decoy,target,0,1.945
6,97,perceptual,0.1,0.05,no_decoy,competitor,1,2.807
6,98,perceptual,0.03,0.2,target,competitor,0,2.692
6,99,numeric,0.1,0.05,target,target,0,2.369
6,100,numeric,0.03,0.05,target,competitor,0,1.785
6,101,numeric,0.1,0.2,no_decoy,target,0,2.107
6,102,perceptual,0.1,0.05,competitor,competitor,0,1.812
6,103,numeric,0.03,0.05,target,target,0,3.06
6,104,perceptual,0.1,0.2,target,competitor,0,2.193
6,105,perceptual,0.03,0.05,target,competitor,1,3.008
6,106,perceptual,0.03,0.2,competitor,target,0,2.285
6,107,numeric,0.03,0.05,no_decoy,competitor,0,1.987
6,108,perceptual,0.03,0.05,target,decoy,0,1.945
6,109,numeric,0.03,0.2,competitor,decoy,0,1.845
6,110,numeric,0.03,0.05,no_decoy,target,0,1.858
6,111,numeric,0.1,0.05,no_decoy,target,0,2.532
6,112,perceptual,0.03,0.05,competitor,decoy,1,2.377
6,113,perceptual,0.03,0.2,competitor,decoy,0,2.78
6,114,perceptual,0.03,0.2,no_decoy,target,1,3.017
6,115,numeric,0.1,0.05,competitor,decoy,1,3.36
6,116,numeric,0.1,0.2,competitor,decoy,0,3.382
6,117,numeric,0.1,0.05,competitor,competitor,0,2.792
6,118,perceptual,0.03,0.05,no_decoy,target,0,2.58
6,119,numeric,0.1,0.05,no_decoy,competitor,0,2.194
6,120,numeric,0.1,0.2,competitor,competitor,1,2.628
6,121,numeric,0.1,0.05,target,target,0,2.18
6,122,perceptual,0.1,0.2,no_decoy,target,1,2.082
6,123,perceptual,0.03,0.2,target,competitor,0,1.952
6,124,numeric,0.03,0.2,competitor,target,1,1.833
6,125,perceptual,0.1,0.05,no_decoy,competitor,1,0.079
6,126,numeric,0.1,0.2,target,competitor,0,1.85
6,127,perceptual,0.1,0.2,target,decoy,0,3.665
6,128,numeric,0.03,0.05,target,target,1,2.224
6,129,numeric,0.1,0.2,no_decoy,target,1,2.403
6,130,numeric,0.1,0.05,competitor,decoy,0,1.983
6,131,numeric,0.03,0.05,competitor,decoy,0,2.916
6,132,numeric,0.1,0.05,target,decoy,0,1.7
6,133,perceptual,0.1,0.2,no_decoy,target,1,1.797
6,134,perceptual,0.03,0.2,no_decoy,competitor,0,1.751
6,135,perceptual,0.1,0.05,no_decoy,target,0,2.042
6,136,perceptual,0.1,0.05,no_decoy,target,1,1.504
6,137,perceptual,0.03,0.05,target,competitor,0,2.516
6,138,perceptual,0.03,0.2,no_decoy,target,0,2.231
6,139,numeric,0.1,0.2,target,target,0,1.622
6,140,numeric,0.03,0.05,competitor,decoy,0,1.315
6,141,numeric,0.1,0.2,target,target,1,1.538
6,142,numeric,0.1,0.05,competitor,target,0,1.246
6,143,perceptual,0.03,0.05,competitor,decoy,1,1.009
6,144,perceptual,0.1,0.05,competitor,competitor,0,2.193
6,145,perceptual,0.1,0.05,competitor,decoy,0,1.757
6,146,perceptual,0.1,0.05,no_decoy,competitor,1,2.473
6,147,numeric,0.03,0.05,target,decoy,0,2.178
6,148,numeric,0.03,0.2,no_decoy,competitor,1,1.94
6,149,numeric,0.1,0.2,target,decoy,1,2.123
6,150,numeric,0.03,0.05,target,target,0,2.256
6,151,perceptual,0.1,0.2,target,competitor,0,1.911
6,152,perceptual,0.1,0.2,target,decoy,1,2.117
6,153,perceptual,0.1,0.2,target,decoy,0,2.02
6,154,perceptual,0.1,0.05,no_decoy,competitor,1,1.984
6,155,perceptual,0.1,0.2,no_decoy,target,0,2.739
6,156,numeric,0.1,0.2,competitor,target,0,2.842
6,157,perceptual,0.1,0.05,target,competitor,0,2.739
6,158,perceptual,0.1,0.05,no_decoy,target,0,2.361
6,159,perceptual,0.03,0.05,competitor,target,1,1.801
6,160,perceptual,0.1,0.05,target,decoy,0,1.573
6,161,numeric,0.03,0.05,no_decoy,competitor,0,1.688
6,162,perceptual,0.03,0.05,target,target,0,2.323
6,163,numeric,0.1,0.05,no_decoy,target,0,1.972
6,164,perceptual,0.03,0.2,target,decoy,0,1.647
6,165,perceptual,0.1,0.2,target,competitor,0,1.466
6,166,numeric,0.1,0.2,target,decoy,1,1.351
6,167,numeric,0.1,0.05,competitor,competitor,0,1.262
6,168,numeric,0.03,0.2,no_decoy,competitor,0,2.196
6,169,perceptual,0.1,0.05,no_decoy,competitor,0,2.752
6,170,numeric,0.03,0.05,target,competitor,0,2.31
6,171,numeric,0.1,0.05,target,decoy,0,2.132
6,172,numeric,0.03,0.2,no_decoy,target,0,2.514
6,173,perceptual,0.03,0.2,no_decoy,target,0,2.155
6,174,perceptual,0.1,0.2,competitor,target,0,2.275
6,175,perceptual,0.03,0.2,target,competitor,1,3.135
6,176,numeric,0.1,0.2,no_decoy,target,0,3.29
6,177,numeric,0.03,0.2,target,decoy,0,3.847
6,178,perceptual,0.03,0.2,target,decoy,1,2.45
6,179,numeric,0.1,0.2,target,competitor,1,2.351
6,180,numeric,0.1,0.05,target,target,0,2.016
6,181,perceptual,0.03,0.2,competitor,target,1,2.684
6,182,numeric,0.1,0.05,no_decoy,competitor,1,1.99
6,183,numeric,0.03,0.05,no_decoy,target,0,3.237
6,184,numeric,0.03,0.05,no_decoy,competitor,1,4.002
6,185,numeric,0.1,0.2,target,competitor,1,2.585
6,186,numeric,0.1,0.2,target,target,0,2.336
6,187,numeric,0.03,0.2,no_decoy,target,0,2.535
6,188,numeric,0.03,0.05,no_decoy,competitor,1,2.623
6,189,perceptual,0.03,0.05,competitor,target,0,2.948
6,190,numeric,0.03,0.05,competitor,decoy,0,2.292
6,191,numeric,0.03,0.05,competitor,target,0,4.651
6,192,numeric,0.03,0.2,target,competitor,1,5.659
6,193,numeric,0.1,0.05,target,target,1,5.202
6,194,perceptual,0.1,0.2,target,competitor,0,2.333
6,195,perceptual,0.03,0.05,competitor,decoy,1,2.256
6,196,perceptual,0.1,0.2,no_decoy,competitor,0,2.772
6,197,perceptual,0.03,0.05,no_decoy,target,1,3.531
6,198,perceptual,0.1,0.05,target,competitor,0,4.567
6,199,perceptual,0.03,0.05,target,target,1,3.931
6,200,perceptual,0.1,0.2,competitor,target,0,4.283
6,201,numeric,0.1,0.2,no_decoy,competitor,0,2.578
6,202,numeric,0.1,0.05,no_decoy,target,1,3.007
6,203,perceptual,0.1,0.2,competitor,target,0,2.539
6,204,numeric,0.1,0.2,no_decoy,competitor,1,2.329
6,205,perceptual,0.03,0.2,competitor,decoy,0,2.109
6,206,perceptual,0.1,0.2,competitor,competitor,0,2.095
6,207,perceptual,0.1,0.2,no_decoy,competitor,1,2.074
6,208,numeric,0.03,0.2,no_decoy,target,1,2.248
6,209,numeric,0.1,0.2,target,competitor,0,2.949
6,210,numeric,0.1,0.05,competitor,decoy,0,4.408
6,211,numeric,0.1,0.05,target,competitor,1,0.09
6,212,numeric,0.03,0.2,competitor,decoy,0,6.158
6,213,perceptual,0.1,0.05,competitor,target,0,3.022
6,214,numeric,0.1,0.05,no_decoy,target,1,3.783
6,215,perceptual,0.1,0.05,competitor,target,1,4.267
6,216,numeric,0.03,0.2,no_decoy,competitor,1,3.964
6,217,numeric,0.1,0.05,competitor,competitor,0,5.981
6,218,numeric,0.1,0.05,target,decoy,1,4.061
6,219,numeric,0.03,0.05,competitor,target,0,3.993
6,220,numeric,0.03,0.2,competitor,target,0,3.98
6,221,numeric,0.03,0.05,no_decoy,competitor,1,3.568
6,222,perceptual,0.1,0.05,competitor,decoy,0,5.558
6,223,perceptual,0.03,0.2,competitor,target,1,3.945
6,224,numeric,0.03,0.2,competitor,competitor,1,2.967
6,225,perceptual,0.1,0.2,competitor,competitor,0,3.765
6,226,perceptual,0.03,0.05,target,decoy,0,3.281
6,227,perceptual,0.03,0.2,no_decoy,target,0,2.796
6,228,numeric,0.1,0.05,no_decoy,target,1,4.061
6,229,perceptual,0.1,0.2,no_decoy,target,0,2.116
6,230,perceptual,0.1,0.2,competitor,competitor,0,3.123
6,231,numeric,0.1,0.05,competitor,target,1,5.059
6,232,perceptual,0.1,0.2,competitor,decoy,0,3.564
6,233,numeric,0.03,0.2,competitor,target,1,6.579
6,234,numeric,0.03,0.2,target,target,1,2.401
6,235,perceptual,0.1,0.2,target,target,0,3.726
6,236,perceptual,0.1,0.2,competitor,competitor,1,2.48
6,237,perceptual,0.1,0.2,competitor,competitor,0,3.612
6,238,perceptual,0.03,0.2,competitor,competitor,0,2.67
6,239,perceptual,0.03,0.2,competitor,decoy,0,3.6
6,240,perceptual,0.1,0.05,target,competitor,0,2.333
6,241,numeric,0.03,0.05,competitor,competitor,1,2.61
6,242,numeric,0.1,0.05,target,competitor,1,2.218
6,243,perceptual,0.03,0.05,no_decoy,competitor,1,2.513
6,244,perceptual,0.03,0.2,no_decoy,competitor,1,2.377
6,245,perceptual,0.03,0.2,competitor,target,0,1.845
6,246,perceptual,0.03,0.2,target,decoy,0,2.066
6,247,numeric,0.1,0.2,no_decoy,competitor,1,2.31
6,248,perceptual,0.03,0.2,no_decoy,competitor,0,1.856
6,249,perceptual,0.03,0.05,no_decoy,target,0,2.838
6,250,numeric,0.1,0.05,competitor,decoy,1,1.966
6,251,perceptual,0.1,0.05,competitor,target,0,1.351
6,252,perceptual,0.03,0.2,no_decoy,competitor,1,1.744
6,253,perceptual,0.03,0.2,competitor,competitor,1,1.189
6,254,numeric,0.1,0.05,no_decoy,target,1,0.856
6,255,perceptual,0.03,0.2,competitor,competitor,1,0.639
6,256,numeric,0.03,0.2,target,competitor,1,0.608
6,257,perceptual,0.03,0.05,target,decoy,0,1.415
6,258,perceptual,0.1,0.05,target,decoy,0,0.283
6,259,numeric,0.03,0.05,target,competitor,0,0.373
6,260,perceptual,0.1,0.2,target,competitor,0,0.283
6,261,perceptual,0.03,0.05,competitor,decoy,0,0.328
6,262,perceptual,0.03,0.05,no_decoy,competitor,1,0.565
6,263,numeric,0.1,0.2,no_decoy,target,0,0.243
6,264,numeric,0.1,0.05,no_decoy,target,0,0.241
6,265,numeric,0.03,0.2,competitor,target,1,0.22
6,266,numeric,0.03,0.05,target,competitor,1,0.219
6,267,perceptual,0.1,0.05,no_decoy,competitor,1,0.364
6,268,numeric,0.1,0.2,no_decoy,competitor,1,0.274
6,269,perceptual,0.03,0.05,target,decoy,0,0.251
6,270,perceptual,0.1,0.05,competitor,competitor,1,0.236
6,271,perceptual,0.1,0.2,target,target,0,0.239
6,272,numeric,0.03,0.2,no_decoy,competitor,0,0.665
6,273,numeric,0.03,0.2,no_decoy,target,1,0.542
6,274,numeric,0.03,0.2,competitor,target,0,0.242
6,275,perceptual,0.03,0.2,competitor,target,0,0.219
6,276,perceptual,0.03,0.2,no_decoy,target,0,0.45
6,277,numeric,0.03,0.2,target,decoy,0,0.417
6,278,numeric,0.1,0.2,competitor,decoy,0,0.291
6,279,numeric,0.03,0.05,target,decoy,1,0.268
6,280,perceptual,0.03,0.2,competitor,competitor,0,0.187
6,281,perceptual,0.1,0.05,target,target,0,0.228
6,282,numeric,0.03,0.05,target,competitor,0,0.219
6,283,perceptual,0.1,0.05,no_decoy,target,0,0.225
6,284,numeric,0.03,0.2,target,target,0,0.308
6,285,numeric,0.03,0.2,no_decoy,target,0,0.257
6,286,numeric,0.03,0.2,target,decoy,0,3.051
6,287,perceptual,0.1,0.2,competitor,decoy,0,1.816
6,288,perceptual,0.03,0.2,target,target,1,1.61
7,1,numeric,0.03,0.05,competitor,target,0,7.012
7,2,numeric,0.03,0.05,competitor,decoy,0,9.307
7,3,numeric,0.1,0.05,no_decoy,target,1,3.261
7,4,numeric,0.03,0.05,competitor,target,0,3.208
7,5,numeric,0.1,0.05,no_decoy,target,0,6.635
7,6,numeric,0.1,0.05,no_decoy,competitor,0,4.362
7,7,numeric,0.03,0.2,no_decoy,target,0,3.536
7,8,perceptual,0.03,0.2,no_decoy,competitor,0,3.065
7,9,perceptual,0.1,0.05,competitor,decoy,0,3.416
7,10,numeric,0.03,0.2,competitor,competitor,1,3.856
7,11,numeric,0.1,0.05,competitor,decoy,0,3.45
7,12,perceptual,0.03,0.05,target,decoy,0,3.02
7,13,perceptual,0.1,0.05,target,competitor,1,2.938
7,14,perceptual,0.1,0.2,target,target,1,3.901
7,15,perceptual,0.1,0.2,no_decoy,target,0,3.097
7,16,numeric,0.1,0.2,target,target,1,3.721
7,17,perceptual,0.1,0.05,target,competitor,1,3.611
7,18,numeric,0.1,0.2,no_decoy,target,0,3.631
7,19,numeric,0.03,0.2,target,decoy,0,5.686
7,20,numeric,0.1,0.2,target,decoy,1,3.485
7,21,perceptual,0.1,0.05,no_decoy,target,1,2.097
7,22,numeric,0.1,0.05,target,decoy,1,5.834
7,23,perceptual,0.03,0.05,no_decoy,competitor,1,2.579
7,24,perceptual,0.03,0.2,competitor,competitor,0,5.838
7,25,numeric,0.03,0.05,no_decoy,target,0,5.127
7,26,perceptual,0.1,0.05,no_decoy,target,0,4.83
7,27,perceptual,0.1,0.2,no_decoy,target,1,3.02
7,28,perceptual,0.1,0.2,competitor,target,1,2.973
7,29,perceptual,0.03,0.05,competitor,target,1,3.669
7,30,perceptual,0.03,0.05,target,decoy,1,2.71
7,31,perceptual,0.1,0.05,target,decoy,0,3.296
7,32,perceptual,0.1,0.05,competitor,competitor,1,3.293
7,33,numeric,0.03,0.2,target,target,1,3.062
7,34,perceptual,0.1,0.2,no_decoy,competitor,1,3.439
7,35,numeric,0.1,0.05,competitor,target,0,3.547
7,36,perceptual,0.03,0.2,target,competitor,0,2.748
7,37,numeric,0.1,0.05,target,competitor,1,3.623
7,38,perceptual,0.03,0.05,target,decoy,1,2.218
7,39,numeric,0.03,0.05,target,target,0,2.561
7,40,numeric,0.1,0.05,target,decoy,1,2.749
7,41,perceptual,0.1,0.2,target,competitor,1,3.225
7,42,perceptual,0.03,0.05,competitor,target,0,2.21
7,43,numeric,0.1,0.2,target,competitor,1,3.382
7,44,numeric,0.1,0.05,target,target,0,3.482
7,45,numeric,0.03,0.05,no_decoy,competitor,1,3.225
7,46,perceptual,0.03,0.05,no_decoy,competitor,1,3.201
7,47,numeric,0.03,0.05,target,competitor,0,4.405
7,48,numeric,0.1,0.2,competitor,target,0,5.594
7,49,numeric,0.03,0.05,target,target,0,3.114
7,50,numeric,0.1,0.2,competitor,decoy,0,3.487
7,51,perceptual,0.1,0.05,no_decoy,target,1,2.12
7,52,numeric,0.03,0.2,no_decoy,target,0,2.993
7,53,numeric,0.1,0.05,no_decoy,target,1,6.268
7,54,perceptual,0.03,0.2,target,target,1,3.08
7,55,perceptual,0.1,0.2,target,competitor,0,3.202
7,56,perceptual,0.1,0.05,no_decoy,target,1,3.056
7,57,numeric,0.03,0.05,target,target,0,4.236
7,58,perceptual,0.03,0.05,target,competitor,0,4.405
7,59,perceptual,0.1,0.2,no_decoy,target,0,3.188
7,60,numeric,0.03,0.2,competitor,target,1,6.761
7,61,perceptual,0.03,0.2,no_decoy,target,0,3.045
7,62,numeric,0.1,0.05,no_decoy,competitor,1,2.281
7,63,numeric,0.03,0.2,competitor,decoy,0,2.793
7,64,numeric,0.1,0.2,no_decoy,target,1,4.205
7,65,perceptual,0.03,0.05,no_decoy,target,1,2.354
7,66,perceptual,0.03,0.05,target,competitor,0,3.171
7,67,numeric,0.03,0.05,no_decoy,competitor,0,2.675
7,68,numeric,0.1,0.2,no_decoy,target,1,2.01
7,69,numeric,0.1,0.05,no_decoy,competitor,0,3.539
7,70,perceptual,0.1,0.2,competitor,target,1,7.054
7,71,numeric,0.1,0.05,no_decoy,competitor,0,3.081
7,72,perceptual,0.03,0.2,no_decoy,target,1,3.217
7,73,numeric,0.03,0.2,no_decoy,target,1,6.428
7,74,numeric,0.1,0.05,competitor,target,0,2.439
7,75,perceptual,0.1,0.05,target,target,0,2.963
7,76,perceptual,0.03,0.05,target,competitor,0,3.615
7,77,numeric,0.03,0.2,no_decoy,competitor,0,3.107
7,78,perceptual,0.03,0.05,target,competitor,1,2.781
7,79,perceptual,0.03,0.2,no_decoy,target,1,2.345
7,80,numeric,0.03,0.2,target,decoy,0,2.716
7,81,numeric,0.03,0.2,competitor,target,1,4.678
7,82,numeric,0.03,0.2,no_decoy,target,0,2.935
7,83,perceptual,0.03,0.05,target,competitor,0,3.428
7,84,numeric,0.1,0.2,no_decoy,competitor,0,2.956
7,85,numeric,0.03,0.05,no_decoy,target,1,3.965
7,86,numeric,0.1,0.2,no_decoy,competitor,0,3.479
7,87,perceptual,0.03,0.2,competitor,competitor,1,3.614
7,88,perceptual,0.03,0.2,target,target,1,2.677
7,89,perceptual,0.1,0.2,no_decoy,competitor,1,3.394
7,90,numeric,0.03,0.2,competitor,target,1,4.582
7,91,numeric,0.1,0.05,competitor,decoy,0,2.996
7,92,perceptual,0.03,0.2,target,decoy,1,3.155
7,93,perceptual,0.1,0.05,competitor,decoy,0,4.121
7,94,perceptual,0.03,0.05,no_decoy,competitor,1,2.841
7,95,numeric,0.03,0.05,competitor,competitor,0,2.496
7,96,perceptual,0.03,0.2,competitor,competitor,0,5.19
7,97,perceptual,0.1,0.2,competitor,decoy,1,3.28
7,98,perceptual,0.1,0.2,competitor,decoy,1,3.088
7,99,perceptual,0.1,0.2,target,competitor,0,1.893
7,100,perceptual,0.03,0.2,target,target,1,2.573
7,101,numeric,0.03,0.2,target,target,0,3.638
7,102,perceptual,0.1,0.05,competitor,decoy,0,4.016
7,103,numeric,0.1,0.2,no_decoy,target,0,3.578
7,104,perceptual,0.03,0.2,target,decoy,0,5.836
7,105,perceptual,0.03,0.05,no_decoy,target,1,2.605
7,106,numeric,0.1,0.2,no_decoy,competitor,1,2.769
7,107,numeric,0.1,0.05,target,decoy,0,4.361
7,108,numeric,0.03,0.05,competitor,decoy,0,3.421
7,109,perceptual,0.03,0.2,competitor,decoy,1,3.261
7,110,perceptual,0.1,0.2,competitor,decoy,1,2.507
7,111,perceptual,0.1,0.05,no_decoy,target,1,2.2
7,112,perceptual,0.1,0.05,target,target,0,4.874
7,113,perceptual,0.03,0.05,target,decoy,0,4.157
7,114,perceptual,0.03,0.2,no_decoy,competitor,0,3.476
7,115,numeric,0.1,0.2,target,decoy,1,5.542
7,116,perceptual,0.03,0.05,no_decoy,target,0,2.578
7,117,perceptual,0.03,0.05,competitor,decoy,0,3.213
7,118,numeric,0.03,0.2,no_decoy,target,1,3.554
7,119,numeric,0.1,0.2,no_decoy,competitor,1,5.218
7,120,perceptual,0.03,0.2,competitor,decoy,1,6.637
7,121,numeric,0.1,0.2,no_decoy,competitor,0,3.089
7,122,perceptual,0.1,0.05,competitor,competitor,1,3.337
7,123,perceptual,0.03,0.2,no_decoy,target,1,3.62
7,124,perceptual,0.1,0.05,target,target,0,2.903
7,125,numeric,0.03,0.2,target,decoy,0,3.228
7,126,perceptual,0.1,0.2,target,target,0,2.583
7,127,numeric,0.03,0.2,no_decoy,competitor,1,3.24
7,128,perceptual,0.1,0.05,target,target,0,2.986
7,129,perceptual,0.1,0.2,no_decoy,competitor,1,5.939
7,130,numeric,0.03,0.05,competitor,decoy,1,3.984
7,131,numeric,0.1,0.2,competitor,decoy,1,7.197
7,132,numeric,0.03,0.05,competitor,target,1,2.791
7,133,numeric,0.03,0.2,competitor,target,1,3.502
7,134,perceptual,0.1,0.2,target,target,1,3.241
7,135,perceptual,0.03,0.05,target,competitor,0,3.079
7,136,perceptual,0.1,0.2,competitor,competitor,0,2.328
7,137,numeric,0.1,0.2,target,target,0,3.065
7,138,numeric,0.1,0.2,competitor,competitor,1,4.715
7,139,numeric,0.03,0.05,target,target,0,4.144
7,140,perceptual,0.03,0.05,competitor,target,0,1.985
7,141,numeric,0.1,0.05,no_decoy,target,1,2.325
7,142,numeric,0.1,0.2,target,competitor,0,3.356
7,143,perceptual,0.1,0.2,target,decoy,1,2.702
7,144,perceptual,0.1,0.05,competitor,competitor,0,3.76
7,145,perceptual,0.1,0.2,competitor,target,1,2.83
7,146,numeric,0.1,0.2,competitor,competitor,1,2.905
7,147,perceptual,0.03,0.2,no_decoy,competitor,0,2.611
7,148,perceptual,0.1,0.2,competitor,competitor,0,3.167
7,149,perceptual,0.03,0.2,no_decoy,competitor,1,2.73
7,150,perceptual,0.1,0.2,target,competitor,1,3.783
7,151,perceptual,0.03,0.2,no_decoy,target,1,3.119
7,152,perceptual,0.1,0.05,no_decoy,target,1,3.498
7,153,numeric,0.03,0.05,no_decoy,target,0,2.692
7,154,numeric,0.1,0.2,competitor,decoy,0,3.158
7,155,perceptual,0.1,0.2,target,decoy,0,2.388
7,156,numeric,0.03,0.2,competitor,target,0,2.621
7,157,perceptual,0.1,0.2,competitor,decoy,0,3.54
7,158,numeric,0.03,0.2,no_decoy,target,0,2.547
7,159,numeric,0.03,0.2,target,decoy,0,2.556
7,160,numeric,0.03,0.05,target,target,1,2.604
7,161,perceptual,0.1,0.2,no_decoy,target,1,2.363
7,162,numeric,0.1,0.2,target,decoy,0,2.547
7,163,numeric,0.1,0.2,competitor,competitor,0,3.523
7,164,numeric,0.1,0.05,competitor,competitor,1,3.079
7,165,perceptual,0.03,0.05,no_decoy,target,1,2.976
7,166,perceptual,0.03,0.05,competitor,competitor,0,2.803
7,167,numeric,0.03,0.2,no_decoy,competitor,1,3.686
7,168,numeric,0.03,0.2,competitor,target,0,3.19
7,169,perceptual,0.1,0.2,no_decoy,target,1,2.246
7,170,numeric,0.03,0.05,no_decoy,competitor,1,3.253
7,171,perceptual,0.1,0.05,no_decoy,competitor,1,2.068
7,172,perceptual,0.03,0.2,target,competitor,1,3.421
7,173,numeric,0.03,0.2,competitor,decoy,1,3.235
7,174,perceptual,0.1,0.2,competitor,competitor,0,2.176
7,175,numeric,0.03,0.2,competitor,competitor,1,3.734
7,176,perceptual,0.03,0.05,competitor,competitor,0,2.197
7,177,perceptual,0.03,0.05,competitor,decoy,0,2.428
7,178,perceptual,0.1,0.2,target,target,0,2.07
7,179,perceptual,0.03,0.2,target,competitor,0,2.782
7,180,perceptual,0.03,0.2,target,target,1,3.14
7,181,numeric,0.1,0.2,competitor,competitor,1,3.149
7,182,numeric,0.03,0.05,no_decoy,competitor,1,2.877
7,183,numeric,0.1,0.05,competitor,competitor,0,3.675
7,184,perceptual,0.1,0.05,no_decoy,competitor,1,2.767
7,185,numeric,0.03,0.2,no_decoy,competitor,0,2.83
7,186,numeric,0.03,0.2,no_decoy,competitor,1,2.858
7,187,numeric,0.1,0.05,target,competitor,1,2.994
7,188,perceptual,0.03,0.05,competitor,target,1,2.447
7,189,perceptual,0.03,0.05,competitor,competitor,0,2.28
7,190,numeric,0.1,0.2,target,competitor,1,4.39
7,191,perceptual,0.03,0.05,competitor,competitor,1,3.169
7,192,numeric,0.1,0.05,target,target,0,2.988
7,193,numeric,0.03,0.05,competitor,decoy,0,3.428
7,194,numeric,0.1,0.05,target,decoy,0,3.476
7,195,numeric,0.1,0.05,competitor,target,0,2.152
7,196,numeric,0.1,0.2,competitor,target,1,3.009
7,197,numeric,0.03,0.2,target,decoy,0,4.728
7,198,numeric,0.1,0.05,competitor,competitor,1,3.243
7,199,numeric,0.1,0.05,competitor,decoy,1,2.482
7,200,numeric,0.1,0.05,target,target,1,5.313
7,201,perceptual,0.1,0.2,competitor,decoy,0,2.297
7,202,perceptual,0.03,0.05,target,competitor,1,3.572
7,203,numeric,0.1,0.05,target,decoy,0,2.682
7,204,perceptual,0.1,0.05,target,competitor,1,2.583
7,205,perceptual,0.03,0.2,competitor,decoy,0,2.957
7,206,numeric,0.03,0.2,target,decoy,0,4.346
7,207,numeric,0.1,0.05,competitor,decoy,0,2.821
7,208,perceptual,0.1,0.05,competitor,target,1,2.701
7,209,perceptual,0.03,0.05,no_decoy,competitor,1,2.627
7,210,numeric,0.03,0.2,target,competitor,0,2.126
7,211,perceptual,0.03,0.05,target,decoy,1,2.737
7,212,perceptual,0.1,0.05,target,competitor,0,3.674
7,213,perceptual,0.03,0.2,target,decoy,1,2.459
7,214,numeric,0.03,0.2,no_decoy,target,0,2.829
7,215,perceptual,0.03,0.2,competitor,competitor,0,4.105
7,216,perceptual,0.1,0.2,competitor,target,0,2.456
7,217,numeric,0.03,0.05,competitor,competitor,0,2.934
7,218,numeric,0.1,0.05,competitor,competitor,1,5.305
7,219,numeric,0.1,0.2,competitor,target,1,5.31
7,220,numeric,0.1,0.2,target,target,1,4.897
7,221,perceptual,0.03,0.2,target,target,0,3.863
7,222,perceptual,0.1,0.05,competitor,competitor,1,2.773
7,223,numeric,0.03,0.05,competitor,competitor,0,2.582
7,224,numeric,0.1,0.05,target,competitor,0,2.881
7,225,perceptual,0.03,0.2,no_decoy,competitor,1,2.571
7,226,perceptual,0.1,0.2,no_decoy,competitor,0,2.129
7,227,perceptual,0.1,0.2,no_decoy,target,0,2.985
7,228,perceptual,0.1,0.05,target,decoy,1,3.535
7,229,perceptual,0.03,0.05,no_decoy,competitor,1,2.107
7,230,numeric,0.03,0.05,target,decoy,0,2.911
7,231,perceptual,0.1,0.05,competitor,competitor,1,2.828
7,232,numeric,0.03,0.05,competitor,decoy,1,3.98
7,233,numeric,0.1,0.2,target,target,0,2.946
7,234,numeric,0.1,0.2,no_decoy,target,1,3.614
7,235,numeric,0.1,0.2,no_decoy,competitor,1,2.25
7,236,numeric,0.1,0.2,target,target,1,3.307
7,237,numeric,0.1,0.2,target,decoy,1,2.676
7,238,perceptual,0.03,0.2,competitor,competitor,1,2.48
7,239,perceptual,0.1,0.2,no_decoy,target,0,2.051
7,240,numeric,0.03,0.2,competitor,target,0,2.24
7,241,numeric,0.1,0.05,competitor,target,1,2.583
7,242,perceptual,0.03,0.2,no_decoy,competitor,1,2.862
7,243,perceptual,0.1,0.2,no_decoy,target,0,2.063
7,244,perceptual,0.03,0.2,competitor,target,0,2.159
7,245,numeric,0.03,0.05,target,decoy,1,1.956
7,246,numeric,0.03,0.05,target,target,1,2.198
7,247,perceptual,0.03,0.2,no_decoy,competitor,1,1.863
7,248,perceptual,0.1,0.05,target,target,0,2.755
7,249,perceptual,0.1,0.05,no_decoy,competitor,0,2.107
7,250,perceptual,0.1,0.05,no_decoy,target,1,2.295
7,251,numeric,0.03,0.05,no_decoy,competitor,0,2.155
7,252,perceptual,0.1,0.05,competitor,competitor,1,2.173
7,253,numeric,0.03,0.2,competitor,decoy,0,2.145
7,254,numeric,0.1,0.05,no_decoy,competitor,0,2.021
7,255,perceptual,0.1,0.05,no_decoy,competitor,0,1.884
7,256,perceptual,0.1,0.05,competitor,target,0,2.698
7,257,numeric,0.03,0.05,no_decoy,competitor,1,5.241
7,258,perceptual,0.1,0.05,competitor,decoy,0,3.056
7,259,numeric,0.03,0.05,target,competitor,1,2.565
7,260,numeric,0.03,0.05,no_decoy,competitor,0,1.955
7,261,perceptual,0.03,0.05,competitor,target,0,2.253
7,262,numeric,0.03,0.2,target,decoy,0,2.44
7,263,perceptual,0.1,0.2,target,target,0,2.619
7,264,perceptual,0.03,0.05,no_decoy,target,1,2.11
7,265,numeric,0.03,0.05,competitor,target,0,2.822
7,266,perceptual,0.03,0.05,competitor,competitor,1,3.353
7,267,numeric,0.03,0.05,target,decoy,0,2.615
7,268,perceptual,0.03,0.2,target,competitor,0,3.201
7,269,numeric,0.1,0.05,no_decoy,competitor,0,1.88
7,270,perceptual,0.03,0.2,competitor,target,1,2.713
7,271,perceptual,0.03,0.05,no_decoy,competitor,0,2.325
7,272,numeric,0.1,0.05,target,target,1,3.13
7,273,perceptual,0.03,0.2,competitor,decoy,1,2.434
7,274,perceptual,0.1,0.05,target,competitor,1,3.282
7,275,numeric,0.03,0.2,target,target,1,5.828
7,276,numeric,0.1,0.05,no_decoy,target,1,2.282
7,277,numeric,0.03,0.05,no_decoy,competitor,0,3.635
7,278,numeric,0.03,0.05,target,target,0,5.345
7,279,numeric,0.03,0.05,no_decoy,competitor,0,2.355
7,280,perceptual,0.1,0.05,no_decoy,target,1,2.713
7,281,perceptual,0.03,0.2,competitor,target,0,2.45
7,282,perceptual,0.03,0.05,no_decoy,competitor,0,2.468
7,283,perceptual,0.1,0.2,target,decoy,1,3.506
7,284,numeric,0.03,0.2,target,competitor,1,3.492
7,285,numeric,0.1,0.2,competitor,competitor,1,2.547
7,286,numeric,0.1,0.2,no_decoy,competitor,0,2.049
7,287,numeric,0.1,0.05,no_decoy,target,0,2.048
7,288,numeric,0.1,0.2,competitor,target,1,7.161
8,1,numeric,0.03,0.2,target,target,0,16.546
8,2,numeric,0.03,0.2,competitor,competitor,1,6.85
8,3,numeric,0.03,0.2,target,decoy,1,10.268
8,4,numeric,0.03,0.2,competitor,decoy,1,6.715
8,5,perceptual,0.03,0.2,target,competitor,0,6.16
8,6,numeric,0.03,0.05,target,competitor,0,7.647
8,7,perceptual,0.03,0.05,competitor,competitor,1,5.369
8,8,numeric,0.1,0.2,target,target,0,8.292
