participant,trial_counter,condition,target_to_competitor,decoy_reduction,decoy_on,chosen_item,correct,rt
1,1,numeric,0.1,0.2,competitor,decoy,0,8.13
1,2,numeric,0.03,0.2,competitor,competitor,0,6.43
1,3,perceptual,0.1,0.2,target,target,1,6.055
1,4,numeric,0.1,0.2,competitor,target,1,7.694
1,5,numeric,0.1,0.2,competitor,target,1,5.361
1,6,numeric,0.03,0.05,target,target,1,7.376
1,7,perceptual,0.03,0.2,target,competitor,0,4.899
1,8,numeric,0.1,0.2,competitor,target,1,8.771
1,9,perceptual,0.03,0.05,target,competitor,0,6.661
1,10,numeric,0.03,0.2,target,competitor,0,5.817
1,11,perceptual,0.1,0.05,competitor,target,1,4.616
1,12,perceptual,0.1,0.2,target,target,1,8.588
1,13,numeric,0.1,0.2,target,decoy,0,5.375
1,14,perceptual,0.1,0.2,target,target,1,6.346
1,15,numeric,0.03,0.2,target,target,1,4.197
1,16,numeric,0.1,0.2,target,target,1,5.983
1,17,numeric,0.1,0.05,target,competitor,0,4.605
1,18,perceptual,0.03,0.2,target,target,1,5.177
1,19,numeric,0.1,0.05,target,target,1,5.203
1,20,perceptual,0.1,0.05,competitor,decoy,0,6.877
1,21,numeric,0.03,0.05,competitor,competitor,0,10.595
1,22,perceptual,0.03,0.2,competitor,competitor,0,5.56
1,23,numeric,0.1,0.05,target,competitor,0,6.243
1,24,perceptual,0.03,0.05,competitor,target,1,4.389
1,25,numeric,0.1,0.05,target,decoy,0,3.714
1,26,numeric,0.03,0.05,target,target,1,4.523
1,27,perceptual,0.1,0.05,target,target,1,5.21
1,28,perceptual,0.03,0.2,competitor,decoy,0,4.024
1,29,perceptual,0.03,0.2,competitor,competitor,0,4.167
1,30,perceptual,0.1,0.2,competitor,target,1,6.589
1,31,numeric,0.03,0.05,competitor,target,1,4.363
1,32,perceptual,0.1,0.2,competitor,target,1,5.59
1,33,numeric,0.03,0.05,competitor,target,1,2.785
1,34,perceptual,0.03,0.2,target,decoy,0,4.633
1,35,numeric,0.03,0.05,target,target,1,8.94
1,36,perceptual,0.03,0.2,target,decoy,0,7.893
1,37,numeric,0.03,0.05,target,target,1,9.828
1,38,perceptual,0.03,0.05,target,target,1,5.31
1,39,perceptual,0.1,0.05,target,target,1,4.14
1,40,perceptual,0.03,0.2,target,competitor,0,3.046
1,41,numeric,0.1,0.2,target,target,1,4.297
1,42,perceptual,0.03,0.05,target,target,1,7.674
1,43,perceptual,0.03,0.05,competitor,competitor,0,4.325
1,44,numeric,0.03,0.2,competitor,decoy,0,0.074
1,45,perceptual,0.03,0.05,target,target,1,9.707
1,46,numeric,0.03,0.05,target,target,1,3.938
1,47,perceptual,0.1,0.05,competitor,target,1,2.794
1,48,perceptual,0.1,0.05,target,target,1,4.331
1,49,perceptual,0.03,0.05,target,competitor,0,4.152
1,50,perceptual,0.03,0.2,competitor,target,1,2.459
1,51,perceptual,0.1,0.2,competitor,target,1,3.273
1,52,perceptual,0.1,0.05,competitor,target,1,6.532
1,53,perceptual,0.1,0.05,competitor,competitor,0,5.07
1,54,perceptual,0.03,0.2,competitor,target,1,2.916
1,55,numeric,0.03,0.05,competitor,decoy,0,5.743
1,56,numeric,0.03,0.2,competitor,target,1,5.473
1,57,perceptual,0.1,0.05,competitor,competitor,0,6.486
1,58,numeric,0.1,0.2,competitor,target,1,4.114
1,59,perceptual,0.1,0.2,target,competitor,0,4.042
1,60,perceptual,0.03,0.2,competitor,target,1,5.342
1,61,numeric,0.03,0.2,competitor,target,1,4.377
1,62,perceptual,0.1,0.05,target,decoy,0,2.365
1,63,perceptual,0.03,0.05,target,decoy,0,5.806
1,64,numeric,0.1,0.05,competitor,competitor,0,8.439
1,65,numeric,0.03,0.2,competitor,decoy,0,3.907
1,66,perceptual,0.1,0.05,competitor,competitor,0,3.693
1,67,perceptual,0.03,0.05,competitor,decoy,0,5.074
1,68,perceptual,0.1,0.2,target,decoy,0,3.324
1,69,perceptual,0.03,0.2,competitor,target,1,4.942
1,70,perceptual,0.1,0.05,target,decoy,0,7.56
1,71,perceptual,0.03,0.05,competitor,competitor,0,3.857
1,72,perceptual,0.03,0.05,target,decoy,0,5.35
1,73,numeric,0.1,0.05,competitor,target,1,3.292
1,74,numeric,0.03,0.2,target,target,1,3.706
1,75,numeric,0.03,0.2,target,competitor,0,5.088
1,76,numeric,0.1,0.2,competitor,target,1,4.101
1,77,numeric,0.1,0.05,target,decoy,0,4.939
1,78,numeric,0.1,0.05,target,target,1,3.074
1,79,numeric,0.1,0.2,competitor,competitor,0,4.856
1,80,perceptual,0.03,0.05,competitor,competitor,0,7.619
1,81,numeric,0.1,0.05,target,decoy,0,3.797
1,82,perceptual,0.03,0.05,competitor,target,1,2.675
1,83,numeric,0.03,0.2,target,competitor,0,3.14
1,84,numeric,0.1,0.2,target,decoy,0,3.543
1,85,perceptual,0.03,0.05,target,target,1,4.456
1,86,perceptual,0.03,0.05,competitor,competitor,0,5.026
1,87,perceptual,0.03,0.2,competitor,competitor,0,5.557
1,88,numeric,0.03,0.05,competitor,target,1,5.308
1,89,numeric,0.03,0.2,competitor,competitor,0,9.926
1,90,perceptual,0.1,0.2,target,competitor,0,5.919
1,91,perceptual,0.03,0.05,competitor,target,1,3.187
1,92,perceptual,0.1,0.05,target,target,1,3.525
1,93,perceptual,0.1,0.05,target,competitor,0,8.042
1,94,numeric,0.1,0.2,competitor,target,1,5.825
1,95,numeric,0.1,0.05,competitor,target,1,2.987
1,96,numeric,0.1,0.05,competitor,competitor,0,6.877
1,97,perceptual,0.1,0.2,competitor,target,1,3.568
1,98,perceptual,0.1,0.2,target,competitor,0,2.727
1,99,numeric,0.03,0.05,competitor,target,1,8.175
1,100,numeric,0.03,0.2,target,competitor,0,6.102
1,101,perceptual,0.03,0.05,competitor,target,1,6.874
1,102,perceptual,0.03,0.2,competitor,decoy,0,7.731
1,103,numeric,0.1,0.05,competitor,decoy,0,2.763
1,104,numeric,0.1,0.2,competitor,competitor,0,4.126
1,105,perceptual,0.1,0.2,competitor,decoy,0,4.746
1,106,numeric,0.1,0.05,target,competitor,0,2.782
1,107,numeric,0.03,0.2,competitor,target,1,11.327
1,108,perceptual,0.1,0.2,competitor,target,1,4.24
1,109,perceptual,0.03,0.05,target,target,1,5.475
1,110,numeric,0.03,0.05,competitor,competitor,0,4.479
1,111,numeric,0.1,0.2,target,competitor,0,6.075
1,112,perceptual,0.03,0.2,competitor,target,1,2.978
1,113,numeric,0.03,0.2,target,target,1,3.24
1,114,numeric,0.1,0.05,competitor,competitor,0,3.259
1,115,numeric,0.1,0.2,target,target,1,4.826
1,116,perceptual,0.1,0.2,competitor,target,1,4.6
1,117,numeric,0.1,0.2,target,competitor,0,4.78
1,118,perceptual,0.1,0.2,competitor,decoy,0,8.007
1,119,numeric,0.03,0.05,competitor,target,1,4.209
1,120,numeric,0.1,0.2,target,target,1,6.827
1,121,numeric,0.1,0.2,competitor,target,1,5.007
1,122,numeric,0.1,0.05,competitor,decoy,0,5.427
1,123,numeric,0.1,0.2,target,target,1,4.094
1,124,perceptual,0.1,0.05,competitor,target,1,5.356
1,125,perceptual,0.03,0.05,target,target,1,3.572
1,126,perceptual,0.03,0.05,competitor,decoy,0,7.211
1,127,perceptual,0.03,0.2,target,decoy,0,4.296
1,128,numeric,0.03,0.05,competitor,target,1,3.977
1,129,numeric,0.1,0.2,competitor,target,1,3.133
1,130,numeric,0.1,0.05,competitor,competitor,0,5.56
1,131,numeric,0.1,0.05,competitor,target,1,5.505
1,132,numeric,0.1,0.05,target,competitor,0,5.476
1,133,numeric,0.03,0.05,target,competitor,0,5.245
1,134,perceptual,0.1,0.2,competitor,target,1,6.56
1,135,numeric,0.1,0.2,target,competitor,0,3.279
1,136,numeric,0.1,0.05,target,target,1,8.341
1,137,numeric,0.03,0.2,target,target,1,3.707
1,138,perceptual,0.03,0.05,competitor,decoy,0,6.106
1,139,perceptual,0.03,0.05,target,decoy,0,4.557
1,140,perceptual,0.03,0.2,target,competitor,0,6.094
1,141,perceptual,0.1,0.2,target,target,1,7.165
1,142,numeric,0.1,0.05,competitor,decoy,0,9.209
1,143,numeric,0.1,0.05,competitor,target,1,6.149
1,144,numeric,0.03,0.2,target,competitor,0,4.315
1,145,numeric,0.03,0.2,competitor,target,1,2.157
1,146,numeric,0.03,0.05,competitor,target,1,2.647
1,147,perceptual,0.1,0.05,target,competitor,0,3.721
1,148,perceptual,0.1,0.2,competitor,competitor,0,3.144
1,149,perceptual,0.03,0.2,competitor,decoy,0,3.53
1,150,numeric,0.03,0.05,target,decoy,0,5.859
1,151,numeric,0.03,0.05,target,competitor,0,3.697
1,152,perceptual,0.03,0.05,target,competitor,0,4.006
1,153,numeric,0.03,0.05,competitor,target,1,3.996
1,154,perceptual,0.1,0.05,competitor,competitor,0,4.008
1,155,numeric,0.03,0.2,competitor,decoy,0,7.411
1,156,perceptual,0.1,0.05,competitor,target,1,4.909
1,157,numeric,0.03,0.05,target,target,1,6.624
1,158,perceptual,0.1,0.2,target,competitor,0,3.525
1,159,perceptual,0.03,0.2,target,competitor,0,2.995
1,160,perceptual,0.1,0.2,target,target,1,2.53
1,161,perceptual,0.03,0.2,target,competitor,0,2.684
1,162,numeric,0.03,0.05,target,competitor,0,3.747
1,163,perceptual,0.1,0.05,competitor,decoy,0,5.935
1,164,numeric,0.03,0.05,competitor,target,1,3.499
1,165,perceptual,0.1,0.05,target,decoy,0,4.209
1,166,perceptual,0.1,0.05,target,target,1,7.293
1,167,numeric,0.03,0.05,target,target,1,6.903
1,168,perceptual,0.1,0.2,competitor,competitor,0,3.359
1,169,numeric,0.03,0.2,competitor,decoy,0,5.695
1,170,numeric,0.1,0.05,target,target,1,10.161
1,171,perceptual,0.03,0.2,competitor,target,1,3.978
1,172,perceptual,0.03,0.2,target,competitor,0,2.937
1,173,numeric,0.03,0.2,target,competitor,0,3.123
1,174,perceptual,0.1,0.2,target,target,1,4.791
1,175,numeric,0.1,0.05,competitor,decoy,0,2.697
1,176,numeric,0.03,0.2,competitor,target,1,4.206
1,177,numeric,0.1,0.2,target,target,1,3.751
1,178,perceptual,0.03,0.2,target,decoy,0,4.348
1,179,perceptual,0.03,0.05,competitor,target,1,4.63
1,180,numeric,0.03,0.2,target,decoy,0,7.343
1,181,perceptual,0.1,0.05,competitor,competitor,0,6.205
1,182,numeric,0.1,0.2,target,target,1,3.953
1,183,numeric,0.1,0.05,target,competitor,0,2.61
1,184,perceptual,0.1,0.2,competitor,competitor,0,8.243
1,185,numeric,0.03,0.05,target,competitor,0,10.962
1,186,numeric,0.03,0.2,competitor,competitor,0,6.417
1,187,perceptual,0.1,0.2,target,competitor,0,10.939
1,188,perceptual,0.1,0.05,target,decoy,0,3.393
1,189,numeric,0.03,0.2,target,competitor,0,4.214
1,190,perceptual,0.03,0.2,target,target,1,5.613
1,191,numeric,0.1,0.2,competitor,competitor,0,3.374
1,192,perceptual,0.1,0.05,target,competitor,0,4.477
2,1,perceptual,0.03,0.2,competitor,target,1,17.062
2,2,numeric,0.1,0.05,competitor,target,1,7.076
2,3,numeric,0.1,0.2,target,decoy,0,15.782
2,4,numeric,0.03,0.2,target,target,1,7.915
2,5,perceptual,0.03,0.05,target,target,1,10.288
2,6,numeric,0.1,0.05,target,target,1,7.102
2,7,numeric,0.1,0.2,target,competitor,0,8.649
2,8,numeric,0.03,0.05,target,competitor,0,2.586
2,9,perceptual,0.1,0.2,target,target,1,7.546
2,10,perceptual,0.1,0.05,competitor,target,1,11.18
2,11,perceptual,0.03,0.2,competitor,competitor,0,12.014
2,12,numeric,0.1,0.2,target,competitor,0,6.101
2,13,perceptual,0.1,0.2,competitor,target,1,6.272
2,14,numeric,0.1,0.05,competitor,competitor,0,9.98
2,15,numeric,0.1,0.05,competitor,decoy,0,8.281
2,16,perceptual,0.03,0.05,competitor,target,1,10.546
2,17,numeric,0.1,0.2,competitor,competitor,0,8.958
2,18,perceptual,0.1,0.05,competitor,target,1,9.311
2,19,numeric,0.1,0.05,competitor,target,1,12.435
2,20,numeric,0.03,0.05,target,target,1,6.869
2,21,perceptual,0.03,0.2,competitor,competitor,0,16.363
2,22,perceptual,0.03,0.2,target,target,1,15.795
2,23,numeric,0.03,0.2,target,competitor,0,7.053
2,24,numeric,0.1,0.05,competitor,decoy,0,7.052
2,25,perceptual,0.03,0.05,target,target,1,4.632
2,26,numeric,0.03,0.2,target,target,1,8.331
2,27,perceptual,0.03,0.05,target,target,1,6.584
2,28,perceptual,0.1,0.05,target,target,1,7.703
2,29,numeric,0.1,0.05,competitor,competitor,0,9.367
2,30,perceptual,0.03,0.05,target,competitor,0,12.777
2,31,perceptual,0.03,0.05,competitor,competitor,0,14.543
2,32,numeric,0.03,0.05,competitor,target,1,5.946
2,33,numeric,0.1,0.2,target,competitor,0,8.035
2,34,perceptual,0.03,0.2,target,target,1,6.78
2,35,numeric,0.03,0.2,target,decoy,0,6.068
2,36,perceptual,0.1,0.05,target,target,1,5.264
2,37,perceptual,0.03,0.2,competitor,decoy,0,3.08
2,38,perceptual,0.1,0.05,competitor,target,1,4.555
2,39,perceptual,0.1,0.05,target,target,1,8.868
2,40,numeric,0.03,0.2,competitor,decoy,0,10.897
2,41,perceptual,0.03,0.2,target,target,1,9.043
2,42,numeric,0.03,0.2,target,target,1,13.165
2,43,numeric,0.03,0.05,target,decoy,0,10.965
2,44,perceptual,0.1,0.05,target,target,1,9.996
2,45,perceptual,0.03,0.2,competitor,competitor,0,12.305
2,46,perceptual,0.03,0.05,target,competitor,0,8.303
2,47,numeric,0.1,0.2,target,target,1,12.35
2,48,numeric,0.03,0.05,competitor,target,1,12.927
2,49,numeric,0.03,0.2,competitor,decoy,0,4.891
2,50,perceptual,0.1,0.05,competitor,decoy,0,1.468
2,51,perceptual,0.03,0.2,target,decoy,0,1.156
2,52,numeric,0.1,0.05,competitor,decoy,0,0.216
2,53,numeric,0.03,0.05,target,competitor,0,0.929
2,54,numeric,0.1,0.2,competitor,decoy,0,0.272
2,55,perceptual,0.03,0.2,target,competitor,0,1.301
2,56,perceptual,0.1,0.05,target,decoy,0,1.186
2,57,numeric,0.1,0.05,target,decoy,0,1.147
2,58,numeric,0.03,0.2,target,competitor,0,0.943
2,59,perceptual,0.03,0.05,competitor,decoy,0,1.21
2,60,perceptual,0.1,0.2,competitor,decoy,0,1.268
2,61,perceptual,0.1,0.2,competitor,competitor,0,1.035
2,62,numeric,0.1,0.05,target,competitor,0,1.098
2,63,numeric,0.03,0.2,target,competitor,0,1.091
2,64,numeric,0.03,0.2,competitor,competitor,0,1.007
2,65,perceptual,0.03,0.05,competitor,decoy,0,7.854
2,66,perceptual,0.1,0.05,competitor,target,1,3.579
2,67,perceptual,0.1,0.2,target,target,1,6.346
2,68,perceptual,0.1,0.2,competitor,target,1,8.834
2,69,perceptual,0.1,0.05,target,target,1,5.115
2,70,numeric,0.03,0.05,competitor,target,1,7.157
2,71,perceptual,0.03,0.2,target,competitor,0,6.202
2,72,numeric,0.03,0.2,competitor,target,1,7.156
2,73,perceptual,0.03,0.2,competitor,target,1,3.004
2,74,perceptual,0.1,0.05,target,target,1,3.852
2,75,numeric,0.1,0.2,target,target,1,7.694
2,76,numeric,0.03,0.2,target,target,1,6.268
2,78,perceptual,0.1,0.05,competitor,competitor,0,19.372
2,79,perceptual,0.1,0.2,competitor,decoy,0,4.235
2,80,numeric,0.1,0.2,competitor,target,1,5.857
2,81,numeric,0.03,0.2,competitor,target,1,2.596
2,82,numeric,0.03,0.2,target,competitor,0,1.389
2,83,perceptual,0.1,0.2,competitor,competitor,0,1.283
2,84,perceptual,0.03,0.05,target,target,1,1.338
2,85,numeric,0.03,0.05,target,decoy,0,1.346
2,86,perceptual,0.03,0.05,competitor,decoy,0,0.926
2,87,perceptual,0.1,0.2,target,competitor,0,0.606
2,88,numeric,0.03,0.2,competitor,competitor,0,1.326
2,89,perceptual,0.03,0.05,target,competitor,0,1.496
2,90,numeric,0.03,0.05,competitor,decoy,0,1.288
2,91,numeric,0.03,0.2,competitor,decoy,0,1.293
2,92,perceptual,0.03,0.05,competitor,competitor,0,1.282
2,93,numeric,0.03,0.05,competitor,competitor,0,1.141
2,94,perceptual,0.1,0.05,target,competitor,0,1.121
2,95,numeric,0.1,0.05,target,target,1,1.261
2,96,numeric,0.03,0.2,competitor,target,1,0.989
2,97,perceptual,0.03,0.2,target,decoy,0,1.324
2,98,perceptual,0.1,0.2,target,target,1,0.188
2,99,perceptual,0.1,0.2,competitor,decoy,0,0.244
2,100,numeric,0.1,0.05,target,decoy,0,0.22
2,101,perceptual,0.1,0.2,target,competitor,0,0.219
2,102,numeric,0.1,0.2,target,decoy,0,0.37
2,103,numeric,0.1,0.05,competitor,competitor,0,0.2
2,104,numeric,0.03,0.2,competitor,competitor,0,0.186
2,105,numeric,0.03,0.05,competitor,target,1,0.189
2,106,numeric,0.03,0.05,target,target,1,0.168
2,107,perceptual,0.1,0.2,target,decoy,0,0.183
2,108,perceptual,0.1,0.05,target,target,1,0.196
2,109,numeric,0.1,0.05,target,target,1,0.195
2,110,perceptual,0.03,0.2,target,target,1,0.196
2,111,numeric,0.1,0.05,target,target,1,0.197
2,112,numeric,0.03,0.2,target,target,1,0.204
2,113,perceptual,0.1,0.2,target,target,1,0.797
2,114,numeric,0.1,0.2,target,target,1,0.246
2,115,perceptual,0.1,0.05,competitor,target,1,0.266
2,116,numeric,0.03,0.05,target,competitor,0,0.242
2,117,perceptual,0.1,0.05,competitor,target,1,0.211
2,118,perceptual,0.1,0.05,competitor,decoy,0,0.205
2,119,perceptual,0.03,0.05,competitor,target,1,0.197
2,120,numeric,0.1,0.05,target,competitor,0,0.194
2,121,perceptual,0.1,0.05,target,competitor,0,0.189
2,122,numeric,0.1,0.2,target,decoy,0,0.196
2,123,perceptual,0.03,0.05,target,competitor,0,0.18
2,124,perceptual,0.03,0.05,competitor,decoy,0,0.192
2,125,numeric,0.03,0.05,target,competitor,0,0.202
2,126,perceptual,0.03,0.2,target,decoy,0,0.191
2,127,perceptual,0.1,0.2,competitor,decoy,0,0.189
2,128,numeric,0.1,0.2,target,target,1,0.181
2,129,numeric,0.1,0.05,target,competitor,0,0.473
2,130,perceptual,0.03,0.2,target,target,1,1.528
2,131,perceptual,0.03,0.2,competitor,decoy,0,0.204
2,132,numeric,0.03,0.2,competitor,target,1,0.194
2,133,perceptual,0.1,0.2,competitor,competitor,0,0.201
2,134,perceptual,0.03,0.2,target,target,1,0.198
2,135,numeric,0.03,0.2,competitor,target,1,0.206
2,136,numeric,0.03,0.05,competitor,decoy,0,0.213
2,137,perceptual,0.1,0.05,competitor,target,1,0.172
2,138,numeric,0.1,0.2,competitor,competitor,0,0.297
2,139,numeric,0.03,0.05,competitor,target,1,0.192
2,140,numeric,0.03,0.05,target,decoy,0,0.197
2,141,numeric,0.03,0.05,competitor,competitor,0,0.205
2,142,numeric,0.1,0.05,competitor,decoy,0,0.185
2,143,numeric,0.1,0.05,target,decoy,0,0.244
2,144,numeric,0.1,0.2,competitor,decoy,0,0.205
2,145,perceptual,0.1,0.2,target,competitor,0,0.227
2,146,perceptual,0.03,0.05,target,decoy,0,0.235
2,147,numeric,0.03,0.05,competitor,decoy,0,0.197
2,148,perceptual,0.03,0.05,competitor,target,1,0.216
2,149,numeric,0.03,0.2,target,decoy,0,0.355
2,150,numeric,0.1,0.05,target,decoy,0,0.186
2,151,perceptual,0.03,0.2,competitor,competitor,0,0.181
2,152,numeric,0.1,0.2,competitor,decoy,0,0.176
2,153,numeric,0.03,0.05,target,decoy,0,0.345
2,154,perceptual,0.1,0.05,target,competitor,0,0.187
2,155,numeric,0.1,0.2,competitor,decoy,0,0.203
2,156,numeric,0.1,0.2,target,target,1,0.191
2,157,numeric,0.03,0.05,competitor,target,1,0.46
2,158,perceptual,0.1,0.05,target,target,1,0.186
2,159,perceptual,0.03,0.05,competitor,decoy,0,0.195
2,160,numeric,0.1,0.2,competitor,decoy,0,0.204
2,161,perceptual,0.1,0.2,competitor,decoy,0,0.49
2,162,numeric,0.1,0.05,competitor,target,1,0.231
2,163,perceptual,0.03,0.05,target,decoy,0,0.214
2,164,perceptual,0.03,0.2,competitor,target,1,0.2
2,165,perceptual,0.1,0.2,competitor,target,1,0.216
2,166,perceptual,0.1,0.05,competitor,target,1,0.22
2,167,numeric,0.03,0.05,competitor,competitor,0,0.21
2,168,perceptual,0.03,0.05,target,target,1,0.207
2,169,numeric,0.1,0.2,competitor,target,1,0.208
2,170,perceptual,0.1,0.05,competitor,target,1,0.214
2,171,perceptual,0.03,0.2,target,competitor,0,0.241
2,172,perceptual,0.03,0.2,competitor,decoy,0,0.373
2,173,numeric,0.1,0.05,competitor,target,1,0.335
2,174,numeric,0.03,0.2,competitor,decoy,0,0.298
2,175,numeric,0.1,0.05,competitor,target,1,0.321
2,176,perceptual,0.1,0.2,competitor,target,1,0.301
2,177,perceptual,0.03,0.05,competitor,competitor,0,8.386
2,178,perceptual,0.03,0.2,competitor,target,1,4.167
2,179,perceptual,0.03,0.05,target,competitor,0,4.433
2,180,numeric,0.1,0.2,target,competitor,0,6.111
2,181,perceptual,0.03,0.05,competitor,target,1,4.495
2,182,numeric,0.1,0.2,competitor,target,1,5.631
2,183,perceptual,0.1,0.2,target,competitor,0,3.02
2,184,numeric,0.03,0.05,target,target,1,6.546
2,185,numeric,0.1,0.05,target,target,1,3.857
2,186,perceptual,0.1,0.2,target,target,1,5.698
2,187,numeric,0.1,0.2,competitor,target,1,3.185
2,188,perceptual,0.1,0.2,target,target,1,7.826
2,189,numeric,0.1,0.2,competitor,target,1,3.213
2,190,perceptual,0.03,0.2,competitor,target,1,2.967
2,191,numeric,0.03,0.05,target,target,1,4.747
2,192,perceptual,0.1,0.2,target,target,1,6.026
3,1,numeric,0.03,0.2,competitor,competitor,0,15.784
3,2,numeric,0.1,0.05,target,target,1,15.109
3,3,perceptual,0.03,0.2,target,target,1,6.836
3,5,numeric,0.03,0.05,target,target,1,10.668
3,6,numeric,0.1,0.05,target,target,1,5.398
3,7,numeric,0.1,0.2,competitor,target,1,6.453
3,8,numeric,0.1,0.05,target,target,1,6.682
3,9,perceptual,0.1,0.05,competitor,target,1,3.368
3,10,perceptual,0.1,0.2,target,target,1,3.739
3,11,perceptual,0.03,0.05,competitor,target,1,6.571
3,12,numeric,0.03,0.05,target,target,1,4.868
3,13,perceptual,0.03,0.2,competitor,target,1,6.768
3,14,perceptual,0.1,0.2,competitor,target,1,5.821
3,15,perceptual,0.1,0.2,competitor,target,1,5.303
3,16,perceptual,0.1,0.2,target,competitor,0,4.951
3,17,numeric,0.1,0.2,competitor,target,1,3.498
3,18,perceptual,0.03,0.2,competitor,target,1,3.717
3,19,numeric,0.03,0.05,target,target,1,5.92
3,20,numeric,0.1,0.2,target,decoy,0,7.585
3,21,perceptual,0.1,0.2,competitor,target,1,4.835
3,22,perceptual,0.1,0.2,target,target,1,7.385
3,23,numeric,0.03,0.2,competitor,competitor,0,8.935
3,24,perceptual,0.03,0.05,target,target,1,7.5
3,25,perceptual,0.03,0.05,competitor,target,1,7.34
3,26,numeric,0.1,0.2,target,target,1,7.254
3,27,perceptual,0.03,0.2,competitor,target,1,6.786
3,28,numeric,0.03,0.05,competitor,competitor,0,11.585
3,29,perceptual,0.03,0.2,competitor,competitor,0,5.065
3,30,numeric,0.1,0.05,target,competitor,0,7.985
3,31,perceptual,0.1,0.2,competitor,target,1,4.634
3,32,numeric,0.1,0.05,target,target,1,9.149
3,33,numeric,0.1,0.2,competitor,target,1,4.717
3,34,numeric,0.03,0.05,target,competitor,0,7.72
3,35,perceptual,0.1,0.05,target,decoy,0,4.592
3,36,numeric,0.1,0.05,competitor,competitor,0,4.268
3,37,perceptual,0.03,0.2,competitor,target,1,3.12
3,38,numeric,0.1,0.05,competitor,competitor,0,11.937
3,39,perceptual,0.1,0.2,competitor,target,1,4.292
3,40,perceptual,0.1,0.05,competitor,target,1,5.852
3,41,perceptual,0.1,0.05,target,target,1,7.488
3,42,numeric,0.1,0.2,competitor,target,1,8.999
3,43,perceptual,0.1,0.05,competitor,competitor,0,5.417
3,44,numeric,0.1,0.2,target,target,1,9.067
3,45,perceptual,0.1,0.05,target,target,1,4.984
3,46,numeric,0.1,0.05,competitor,target,1,8.166
3,47,perceptual,0.1,0.05,target,decoy,0,10.367
3,48,numeric,0.03,0.05,competitor,competitor,0,13.167
3,49,perceptual,0.1,0.2,competitor,target,1,4.345
3,50,perceptual,0.03,0.05,competitor,decoy,0,7.942
3,51,perceptual,0.1,0.2,target,target,1,4.483
3,52,numeric,0.1,0.2,competitor,target,1,9.558
3,53,numeric,0.03,0.2,competitor,decoy,0,5.086
3,54,numeric,0.03,0.2,competitor,target,1,9.182
3,55,numeric,0.03,0.05,competitor,target,1,6.52
3,56,numeric,0.1,0.2,competitor,target,1,4.652
3,57,numeric,0.03,0.2,competitor,competitor,0,13.298
3,58,numeric,0.1,0.05,competitor,target,1,9.397
3,59,perceptual,0.03,0.05,competitor,target,1,8.035
3,60,numeric,0.1,0.05,competitor,target,1,13.781
3,61,numeric,0.03,0.2,target,competitor,0,15.315
3,62,perceptual,0.03,0.2,target,competitor,0,3.586
3,63,perceptual,0.03,0.2,competitor,competitor,0,5.353
3,64,numeric,0.1,0.05,target,target,1,8.906
3,65,numeric,0.1,0.05,competitor,target,1,6.175
3,66,perceptual,0.1,0.05,competitor,target,1,4.415
3,67,perceptual,0.03,0.2,competitor,target,1,4.231
3,68,numeric,0.03,0.05,competitor,competitor,0,7.083
3,69,perceptual,0.1,0.05,competitor,target,1,10.349
3,70,numeric,0.1,0.2,competitor,target,1,9.247
3,71,numeric,0.03,0.2,target,target,1,6.305
3,72,numeric,0.1,0.2,target,target,1,8.817
3,73,numeric,0.1,0.2,competitor,target,1,15.901
3,74,perceptual,0.03,0.05,target,target,1,4.292
3,75,numeric,0.03,0.2,target,target,1,7.799
3,76,perceptual,0.03,0.2,target,target,1,3.979
3,77,perceptual,0.03,0.2,target,target,1,4.879
3,78,perceptual,0.1,0.05,competitor,decoy,0,7.755
3,79,numeric,0.03,0.05,competitor,decoy,0,9.03
3,80,perceptual,0.1,0.05,competitor,competitor,0,5.608
3,81,numeric,0.03,0.2,target,target,1,7.921
3,82,numeric,0.03,0.2,competitor,competitor,0,8.439
3,83,perceptual,0.03,0.2,competitor,target,1,7.449
3,84,perceptual,0.03,0.05,competitor,decoy,0,6.982
3,85,perceptual,0.1,0.05,competitor,target,1,3.322
3,86,numeric,0.1,0.2,competitor,competitor,0,9.173
3,87,perceptual,0.03,0.05,target,decoy,0,7.072
3,88,perceptual,0.1,0.05,target,decoy,0,5.616
3,89,numeric,0.03,0.2,target,target,1,12.716
3,90,perceptual,0.03,0.2,target,competitor,0,5.335
3,91,numeric,0.03,0.2,target,target,1,9.782
3,92,perceptual,0.03,0.2,target,target,1,4.857
3,93,numeric,0.1,0.05,target,decoy,0,12.268
3,94,perceptual,0.03,0.05,competitor,target,1,3.683
3,95,perceptual,0.03,0.05,target,competitor,0,2.817
3,96,perceptual,0.03,0.2,competitor,target,1,3.954
3,97,numeric,0.1,0.2,target,target,1,4.115
3,98,numeric,0.03,0.05,target,target,1,9.413
3,99,perceptual,0.1,0.2,target,target,1,5.297
3,100,numeric,0.1,0.05,competitor,decoy,0,11.448
3,101,perceptual,0.1,0.2,competitor,competitor,0,7.651
3,102,numeric,0.03,0.05,target,target,1,6.241
3,103,perceptual,0.1,0.2,target,target,1,8.492
3,104,perceptual,0.03,0.05,target,target,1,9.751
3,105,numeric,0.1,0.2,target,target,1,11.134
3,106,perceptual,0.1,0.05,competitor,decoy,0,4.174
3,107,perceptual,0.03,0.2,target,competitor,0,4.275
3,108,numeric,0.1,0.2,competitor,competitor,0,6.897
3,109,perceptual,0.03,0.05,competitor,target,1,5.923
3,110,numeric,0.1,0.05,target,target,1,12.268
3,111,numeric,0.03,0.05,competitor,target,1,5.385
3,112,perceptual,0.03,0.2,competitor,target,1,7.125
3,113,numeric,0.03,0.05,competitor,target,1,4.424
3,114,perceptual,0.1,0.2,target,target,1,5.585
3,115,numeric,0.1,0.2,target,target,1,5.807
3,116,perceptual,0.03,0.2,target,target,1,6.252
3,117,perceptual,0.03,0.05,competitor,target,1,5.234
3,118,numeric,0.1,0.05,target,decoy,0,5.735
3,119,numeric,0.03,0.2,competitor,target,1,5.234
3,120,perceptual,0.1,0.05,competitor,competitor,0,4.087
3,121,perceptual,0.1,0.2,target,target,1,10.341
3,122,numeric,0.03,0.05,competitor,target,1,8.004
3,123,perceptual,0.1,0.05,target,target,1,10.165
3,124,perceptual,0.1,0.2,competitor,target,1,5.396
3,125,perceptual,0.1,0.2,target,target,1,4.331
3,126,perceptual,0.1,0.05,target,target,1,4.904
3,127,numeric,0.03,0.2,competitor,competitor,0,6.771
3,128,perceptual,0.03,0.2,target,target,1,8.659
3,129,numeric,0.03,0.05,target,target,1,5.85
3,130,perceptual,0.03,0.05,competitor,target,1,9.291
3,131,numeric,0.1,0.2,target,target,1,7.134
3,132,perceptual,0.03,0.05,target,target,1,4.425
3,133,numeric,0.03,0.05,target,target,1,8.842
3,134,numeric,0.03,0.2,target,target,1,7.303
3,135,numeric,0.1,0.05,target,target,1,9.079
3,136,perceptual,0.1,0.05,competitor,target,1,5.373
3,137,numeric,0.1,0.05,competitor,target,1,5.018
3,138,numeric,0.03,0.2,target,target,1,10.366
3,139,numeric,0.1,0.05,competitor,target,1,4.872
3,140,numeric,0.03,0.05,competitor,target,1,7.049
3,141,perceptual,0.03,0.2,target,target,1,3.757
3,142,perceptual,0.1,0.2,target,target,1,5.837
3,143,numeric,0.03,0.05,target,target,1,4.139
3,144,perceptual,0.03,0.05,target,target,1,5.954
3,145,numeric,0.1,0.2,target,target,1,4.866
3,146,numeric,0.03,0.05,target,target,1,7.404
3,147,perceptual,0.1,0.05,target,target,1,6.534
3,148,numeric,0.1,0.05,competitor,target,1,9.524
3,149,perceptual,0.1,0.05,target,target,1,5.031
3,150,perceptual,0.03,0.2,target,decoy,0,8.124
3,151,perceptual,0.1,0.2,target,target,1,9.351
3,152,perceptual,0.1,0.05,competitor,target,1,4.752
3,153,perceptual,0.03,0.2,target,target,1,4.199
3,154,perceptual,0.03,0.2,competitor,competitor,0,5.82
3,155,numeric,0.1,0.05,target,target,1,7.802
3,156,numeric,0.03,0.2,target,target,1,7.979
3,157,numeric,0.03,0.2,target,target,1,13.116
3,158,numeric,0.03,0.05,target,target,1,9.353
3,159,perceptual,0.03,0.2,competitor,target,1,3.624
3,160,numeric,0.1,0.2,target,target,1,8.318
3,161,perceptual,0.1,0.05,target,target,1,4.527
3,162,numeric,0.03,0.2,target,competitor,0,3.503
3,163,numeric,0.03,0.2,competitor,competitor,0,4.634
3,164,perceptual,0.1,0.2,target,target,1,3.028
3,165,perceptual,0.1,0.2,competitor,target,1,3.62
3,166,numeric,0.03,0.2,competitor,competitor,0,8.519
3,167,numeric,0.03,0.05,competitor,target,1,6.301
3,168,perceptual,0.03,0.05,target,target,1,3.475
3,169,perceptual,0.1,0.05,target,decoy,0,7.35
3,170,perceptual,0.03,0.05,competitor,competitor,0,8.191
3,171,perceptual,0.1,0.05,target,target,1,8.682
3,172,numeric,0.1,0.05,competitor,competitor,0,7.799
3,173,perceptual,0.1,0.2,competitor,competitor,0,4.588
3,174,numeric,0.1,0.2,target,competitor,0,12.688
3,175,perceptual,0.03,0.05,competitor,competitor,0,6.117
3,176,numeric,0.03,0.05,target,target,1,12.416
3,177,perceptual,0.1,0.2,competitor,target,1,2.975
3,178,numeric,0.1,0.2,target,target,1,4.983
3,179,perceptual,0.03,0.05,competitor,decoy,0,5.999
3,180,numeric,0.1,0.2,competitor,target,1,8.548
3,181,numeric,0.03,0.2,target,competitor,0,6.472
3,182,numeric,0.1,0.2,competitor,target,1,4.334
3,183,numeric,0.1,0.05,target,target,1,9.8
3,184,numeric,0.03,0.2,competitor,competitor,0,3.924
3,185,numeric,0.03,0.2,competitor,target,1,5.051
3,186,perceptual,0.03,0.05,target,target,1,4.882
3,187,numeric,0.03,0.05,competitor,target,1,11.714
3,188,perceptual,0.1,0.2,competitor,target,1,4.265
3,189,perceptual,0.03,0.05,target,competitor,0,5.721
3,190,perceptual,0.03,0.05,target,decoy,0,4.62
3,191,numeric,0.03,0.05,competitor,competitor,0,7.303
3,192,perceptual,0.03,0.05,target,competitor,0,5.369
4,2,perceptual,0.1,0.2,competitor,target,1,6.14
4,3,numeric,0.1,0.05,competitor,target,1,9.964
4,4,numeric,0.1,0.05,competitor,target,1,7.188
4,5,perceptual,0.1,0.2,competitor,target,1,6.287
4,6,perceptual,0.03,0.05,target,target,1,8.706
4,7,numeric,0.03,0.05,target,decoy,0,9.185
4,8,perceptual,0.1,0.2,competitor,competitor,0,9.187
4,9,perceptual,0.03,0.2,target,competitor,0,9.417
4,10,numeric,0.03,0.2,target,target,1,10.924
4,11,numeric,0.1,0.05,target,decoy,0,7.139
4,12,numeric,0.1,0.05,target,target,1,6.921
4,13,numeric,0.1,0.2,target,competitor,0,8.141
4,14,perceptual,0.1,0.05,target,target,1,7.727
4,15,numeric,0.1,0.2,competitor,target,1,11.444
4,16,numeric,0.1,0.05,target,competitor,0,9.727
4,17,perceptual,0.03,0.2,target,target,1,8.735
4,18,perceptual,0.1,0.2,competitor,target,1,6.567
4,19,numeric,0.1,0.2,target,target,1,8.931
4,20,numeric,0.1,0.2,target,target,1,9.947
4,21,numeric,0.1,0.2,target,competitor,0,9.732
4,22,numeric,0.03,0.2,competitor,competitor,0,16.334
4,23,perceptual,0.1,0.2,target,target,1,7.272
4,24,numeric,0.03,0.05,competitor,target,1,8.3
4,25,numeric,0.03,0.2,target,target,1,12.303
4,26,numeric,0.1,0.05,target,target,1,9.065
4,27,perceptual,0.03,0.2,competitor,competitor,0,7.178
4,28,perceptual,0.1,0.05,target,target,1,11.658
4,29,numeric,0.03,0.05,competitor,competitor,0,16.33
4,30,perceptual,0.1,0.2,competitor,competitor,0,8.052
4,31,numeric,0.1,0.05,target,target,1,9.255
4,32,numeric,0.1,0.05,competitor,competitor,0,13.112
4,33,numeric,0.03,0.05,target,competitor,0,7.02
4,34,perceptual,0.1,0.05,competitor,competitor,0,7.006
4,35,numeric,0.1,0.05,competitor,target,1,7.992
4,36,numeric,0.03,0.05,target,target,1,12.143
4,37,numeric,0.03,0.2,competitor,competitor,0,8.36
4,38,perceptual,0.1,0.05,target,target,1,8.443
4,39,numeric,0.1,0.2,target,target,1,13.409
4,40,perceptual,0.1,0.2,target,target,1,7.362
4,41,perceptual,0.03,0.05,target,decoy,0,17.716
4,43,perceptual,0.03,0.2,competitor,target,1,6.838
4,44,perceptual,0.1,0.05,target,decoy,0,8.35
4,45,perceptual,0.03,0.2,competitor,target,1,10.537
4,46,numeric,0.1,0.05,competitor,competitor,0,7.438
4,47,numeric,0.1,0.2,competitor,target,1,12.186
4,48,numeric,0.1,0.05,target,target,1,7.436
4,49,perceptual,0.1,0.05,competitor,target,1,8.956
4,50,perceptual,0.03,0.2,target,target,1,9.412
4,51,perceptual,0.1,0.2,target,target,1,8.157
4,52,perceptual,0.1,0.2,competitor,target,1,8.866
4,53,perceptual,0.1,0.05,target,competitor,0,10.814
4,54,numeric,0.1,0.2,target,decoy,0,11.043
4,55,perceptual,0.1,0.05,target,target,1,11.051
4,56,numeric,0.03,0.2,target,competitor,0,10.975
4,57,perceptual,0.03,0.05,target,target,1,8.82
4,58,numeric,0.03,0.05,competitor,competitor,0,10.569
4,59,numeric,0.1,0.2,competitor,competitor,0,7.939
4,60,perceptual,0.1,0.05,competitor,target,1,10.487
4,61,perceptual,0.03,0.2,competitor,target,1,5.413
4,62,perceptual,0.03,0.05,target,target,1,12.524
4,63,perceptual,0.1,0.05,competitor,decoy,0,9.091
4,64,perceptual,0.1,0.05,target,competitor,0,9.508
4,66,numeric,0.03,0.05,competitor,target,1,0.125
4,67,perceptual,0.1,0.2,competitor,competitor,0,8.326
4,68,perceptual,0.1,0.05,target,target,1,9.237
4,69,perceptual,0.03,0.2,target,competitor,0,9.714
4,70,numeric,0.03,0.2,target,target,1,7.972
4,71,numeric,0.1,0.05,competitor,target,1,10.162
4,72,numeric,0.03,0.05,target,target,1,11.715
4,73,perceptual,0.1,0.2,target,target,1,7.383
4,74,numeric,0.1,0.05,target,target,1,6.042
4,75,perceptual,0.1,0.2,target,target,1,7.595
4,76,numeric,0.1,0.05,target,target,1,7.225
4,77,numeric,0.1,0.2,target,competitor,0,13.918
4,78,numeric,0.03,0.05,competitor,decoy,0,8.934
4,79,numeric,0.1,0.2,competitor,target,1,8.124
4,80,perceptual,0.1,0.05,target,decoy,0,6.672
4,81,perceptual,0.03,0.2,competitor,competitor,0,6.775
4,82,numeric,0.03,0.05,competitor,target,1,8.633
4,83,perceptual,0.03,0.05,competitor,target,1,8.931
4,84,numeric,0.03,0.05,target,target,1,6.586
4,85,perceptual,0.1,0.2,competitor,target,1,8.608
4,86,numeric,0.03,0.2,target,target,1,8.309
4,87,perceptual,0.1,0.2,target,target,1,10.409
4,88,numeric,0.1,0.05,target,competitor,0,8.688
4,89,perceptual,0.03,0.2,competitor,target,1,4.49
4,90,perceptual,0.1,0.2,target,competitor,0,9.178
4,91,numeric,0.1,0.2,target,competitor,0,7.502
4,92,perceptual,0.03,0.2,target,competitor,0,6.131
4,93,perceptual,0.03,0.05,target,competitor,0,7.268
4,94,perceptual,0.03,0.2,competitor,target,1,7.589
4,95,numeric,0.1,0.05,target,target,1,10.749
4,96,numeric,0.1,0.2,competitor,target,1,12.099
4,97,numeric,0.03,0.05,target,competitor,0,13.778
4,98,numeric,0.1,0.2,target,target,1,5.115
4,99,perceptual,0.1,0.2,competitor,target,1,11.309
4,100,perceptual,0.03,0.2,competitor,competitor,0,9.057
4,101,perceptual,0.1,0.05,competitor,target,1,13.596
4,102,numeric,0.03,0.05,competitor,competitor,0,11.337
4,103,perceptual,0.1,0.05,target,target,1,9.332
4,104,perceptual,0.03,0.2,target,target,1,9.523
4,105,perceptual,0.03,0.05,competitor,decoy,0,10.85
4,106,perceptual,0.03,0.2,target,target,1,8.343
4,107,numeric,0.03,0.2,competitor,competitor,0,6.461
4,108,perceptual,0.03,0.05,target,competitor,0,10.291
4,109,perceptual,0.03,0.2,competitor,target,1,14.61
4,111,perceptual,0.03,0.05,target,target,1,6.419
4,112,numeric,0.03,0.2,competitor,competitor,0,10.443
4,113,numeric,0.03,0.2,target,competitor,0,7.436
4,114,perceptual,0.1,0.05,competitor,target,1,9.382
4,115,perceptual,0.03,0.2,target,target,1,9.609
4,116,perceptual,0.03,0.2,competitor,target,1,15.408
4,117,perceptual,0.03,0.2,target,target,1,8.061
4,118,perceptual,0.1,0.2,target,target,1,9.391
4,119,numeric,0.03,0.2,competitor,target,1,12.474
4,120,perceptual,0.03,0.05,competitor,competitor,0,10.288
4,121,numeric,0.1,0.05,competitor,competitor,0,11.562
4,122,perceptual,0.1,0.2,target,target,1,7.933
4,123,numeric,0.03,0.2,competitor,competitor,0,8.109
4,124,perceptual,0.03,0.05,target,target,1,8.039
4,125,numeric,0.03,0.05,target,competitor,0,9.632
4,126,numeric,0.1,0.2,competitor,competitor,0,9.52
4,127,numeric,0.03,0.05,competitor,target,1,9.729
4,128,perceptual,0.03,0.05,competitor,competitor,0,4.253
4,129,perceptual,0.03,0.05,competitor,decoy,0,6.864
4,130,numeric,0.1,0.05,competitor,target,1,6.237
4,131,perceptual,0.1,0.05,competitor,target,1,5.474
4,132,numeric,0.03,0.2,target,target,1,5.378
4,133,numeric,0.03,0.2,target,target,1,6.292
4,134,perceptual,0.03,0.2,target,target,1,5.951
4,135,numeric,0.1,0.05,competitor,competitor,0,5.616
4,136,perceptual,0.03,0.05,competitor,target,1,6.392
4,137,perceptual,0.1,0.05,competitor,target,1,10.413
4,138,perceptual,0.03,0.05,competitor,target,1,4.239
4,139,numeric,0.1,0.05,competitor,competitor,0,6.272
4,140,numeric,0.1,0.2,competitor,target,1,7.807
4,141,perceptual,0.03,0.2,target,competitor,0,6.543
4,142,perceptual,0.1,0.2,target,decoy,0,6.14
4,143,numeric,0.1,0.2,competitor,target,1,7.257
4,144,numeric,0.03,0.05,target,target,1,6.4
4,145,perceptual,0.03,0.05,target,target,1,13.139
4,146,numeric,0.03,0.05,competitor,competitor,0,5.242
4,147,numeric,0.1,0.2,competitor,target,1,4.978
4,148,numeric,0.1,0.2,competitor,target,1,9.576
4,149,numeric,0.03,0.05,competitor,target,1,7.767
4,150,perceptual,0.1,0.05,competitor,target,1,6.235
4,151,perceptual,0.1,0.05,target,decoy,0,9.935
4,152,perceptual,0.03,0.05,target,target,1,6.014
4,153,perceptual,0.1,0.2,competitor,target,1,5.257
4,154,numeric,0.1,0.2,target,target,1,8.236
4,155,perceptual,0.03,0.05,competitor,target,1,5.319
4,156,numeric,0.03,0.2,target,target,1,6.439
4,157,perceptual,0.1,0.2,competitor,target,1,4.21
4,158,numeric,0.1,0.2,target,competitor,0,7.501
4,159,perceptual,0.1,0.05,competitor,target,1,7.336
4,160,perceptual,0.03,0.2,target,target,1,4.334
4,161,numeric,0.03,0.2,competitor,competitor,0,7.606
4,162,numeric,0.03,0.05,competitor,competitor,0,5.611
4,163,numeric,0.03,0.05,target,competitor,0,8.548
4,164,numeric,0.03,0.2,competitor,target,1,6.271
4,165,perceptual,0.1,0.05,competitor,target,1,6.761
4,166,perceptual,0.1,0.2,target,target,1,6.988
4,167,numeric,0.03,0.05,competitor,target,1,8.927
4,168,numeric,0.1,0.2,competitor,target,1,6.791
4,169,numeric,0.03,0.2,competitor,competitor,0,10.424
4,170,numeric,0.1,0.2,target,target,1,8.899
4,171,perceptual,0.1,0.05,target,target,1,8.49
4,172,numeric,0.03,0.2,competitor,competitor,0,9.466
4,173,perceptual,0.03,0.05,target,competitor,0,6.339
4,174,numeric,0.1,0.05,competitor,competitor,0,11.789
4,175,perceptual,0.1,0.2,competitor,target,1,8.162
4,176,numeric,0.03,0.2,target,target,1,6.486
4,177,perceptual,0.03,0.05,target,decoy,0,8.699
4,178,numeric,0.1,0.2,competitor,target,1,5.963
4,179,numeric,0.03,0.05,target,target,1,8.203
4,180,perceptual,0.1,0.2,target,competitor,0,5.867
4,181,numeric,0.1,0.05,target,target,1,5.938
4,182,perceptual,0.03,0.05,competitor,target,1,4.426
4,183,numeric,0.03,0.2,target,competitor,0,8.135
4,184,numeric,0.1,0.05,target,target,1,10.351
4,185,perceptual,0.03,0.05,competitor,competitor,0,9.414
4,186,perceptual,0.03,0.2,competitor,competitor,0,6.018
4,187,numeric,0.03,0.2,target,competitor,0,11.219
4,188,perceptual,0.1,0.05,competitor,competitor,0,8.674
4,189,numeric,0.03,0.05,target,competitor,0,10.981
4,190,numeric,0.03,0.2,competitor,target,1,4.554
4,191,perceptual,0.03,0.05,competitor,target,1,4.424
4,192,numeric,0.1,0.05,competitor,decoy,0,4.221
5,1,numeric,0.1,0.05,target,target,1,9.066
5,2,numeric,0.1,0.2,target,target,1,8.052
5,3,perceptual,0.1,0.2,target,target,1,6.634
5,4,numeric,0.1,0.05,competitor,target,1,8.712
5,5,perceptual,0.1,0.2,target,target,1,9.529
5,6,numeric,0.1,0.05,competitor,target,1,6.606
5,7,perceptual,0.03,0.2,competitor,target,1,7.893
5,8,numeric,0.03,0.2,competitor,competitor,0,4.961
5,9,numeric,0.03,0.05,target,competitor,0,9.601
5,10,numeric,0.1,0.05,competitor,target,1,5.177
5,11,perceptual,0.03,0.2,target,target,1,5.259
5,12,numeric,0.1,0.2,competitor,target,1,5.517
5,13,numeric,0.1,0.05,target,target,1,6.826
5,14,perceptual,0.1,0.05,target,target,1,8.557
5,15,numeric,0.1,0.2,competitor,target,1,9.718
5,16,perceptual,0.03,0.2,competitor,target,1,9.522
5,17,numeric,0.1,0.2,target,target,1,5.236
5,18,numeric,0.1,0.05,target,decoy,0,7.143
5,19,numeric,0.03,0.05,target,decoy,0,13.158
5,20,perceptual,0.1,0.05,competitor,target,1,7.813
5,21,numeric,0.03,0.05,target,competitor,0,8.389
5,22,numeric,0.03,0.05,competitor,target,1,4.965
5,23,numeric,0.03,0.2,competitor,target,1,8.608
5,24,perceptual,0.1,0.2,competitor,target,1,3.992
5,25,numeric,0.1,0.05,competitor,target,1,3.61
5,26,perceptual,0.03,0.05,competitor,competitor,0,5.668
5,27,perceptual,0.03,0.2,target,target,1,5.198
5,28,numeric,0.03,0.05,target,target,1,4.267
5,29,numeric,0.1,0.05,target,target,1,11.01
5,30,perceptual,0.1,0.05,target,target,1,3.045
5,31,perceptual,0.1,0.2,competitor,competitor,0,7.277
5,32,perceptual,0.1,0.2,target,competitor,0,5.111
5,33,perceptual,0.1,0.2,target,target,1,3.513
5,34,numeric,0.03,0.05,competitor,competitor,0,5.64
5,35,numeric,0.1,0.05,target,target,1,7.736
5,36,perceptual,0.1,0.05,target,target,1,9.604
5,37,numeric,0.1,0.2,target,target,1,8.095
5,38,numeric,0.1,0.05,target,competitor,0,11.833
5,39,numeric,0.03,0.05,target,target,1,7.656
5,40,numeric,0.1,0.05,target,target,1,6.051
5,41,perceptual,0.1,0.2,competitor,decoy,0,2.086
5,42,numeric,0.03,0.05,target,target,1,6.711
5,43,numeric,0.1,0.05,competitor,target,1,9.015
5,44,numeric,0.03,0.05,target,target,1,9.423
5,45,perceptual,0.1,0.05,competitor,target,1,8.19
5,46,numeric,0.03,0.2,competitor,decoy,0,10.998
5,47,numeric,0.1,0.05,target,target,1,5.673
5,48,numeric,0.03,0.05,competitor,target,1,11.31
5,49,numeric,0.1,0.05,target,competitor,0,6.806
5,50,perceptual,0.1,0.2,target,target,1,8.64
5,51,perceptual,0.1,0.05,competitor,target,1,11.949
5,52,perceptual,0.1,0.05,competitor,target,1,5.319
5,53,perceptual,0.1,0.2,target,target,1,4.514
5,54,perceptual,0.03,0.05,competitor,target,1,4.682
5,55,perceptual,0.03,0.05,target,target,1,14.711
5,56,numeric,0.03,0.05,target,target,1,9.529
5,57,perceptual,0.03,0.2,target,target,1,5.83
5,58,perceptual,0.03,0.05,competitor,competitor,0,10.191
5,59,numeric,0.03,0.2,target,target,1,8.006
5,60,perceptual,0.1,0.2,target,competitor,0,5.317
5,61,numeric,0.03,0.05,competitor,competitor,0,11.307
5,62,numeric,0.03,0.2,target,target,1,6.251
5,63,perceptual,0.03,0.05,competitor,target,1,6.838
5,64,numeric,0.03,0.05,competitor,target,1,12.217
5,65,perceptual,0.1,0.2,competitor,competitor,0,4.333
5,66,perceptual,0.1,0.05,target,competitor,0,5.006
5,67,numeric,0.1,0.2,competitor,competitor,0,6.429
5,68,perceptual,0.1,0.2,competitor,target,1,4.751
5,69,perceptual,0.1,0.05,target,competitor,0,6.607
5,70,perceptual,0.1,0.05,competitor,target,1,4.169
5,71,perceptual,0.1,0.05,target,target,1,4.505
5,72,perceptual,0.03,0.2,target,competitor,0,7.57
5,73,perceptual,0.1,0.05,competitor,target,1,4.682
5,74,perceptual,0.1,0.05,target,decoy,0,4.88
5,75,perceptual,0.03,0.05,target,target,1,4.987
5,76,numeric,0.1,0.2,competitor,target,1,6.296
5,77,perceptual,0.1,0.2,target,target,1,6.638
5,78,perceptual,0.03,0.2,competitor,target,1,6.118
5,79,numeric,0.03,0.05,target,target,1,7.289
5,80,perceptual,0.1,0.05,target,target,1,8.874
5,81,perceptual,0.1,0.2,target,target,1,5.828
5,82,numeric,0.1,0.2,target,target,1,7.207
5,83,perceptual,0.03,0.05,competitor,target,1,5.229
5,84,numeric,0.03,0.05,competitor,competitor,0,7.469
5,85,perceptual,0.03,0.05,competitor,target,1,4.511
5,86,perceptual,0.03,0.05,target,competitor,0,5.418
5,87,numeric,0.03,0.05,competitor,competitor,0,5.868
5,88,perceptual,0.1,0.2,competitor,target,1,8.154
5,89,perceptual,0.03,0.2,target,competitor,0,8.148
5,90,perceptual,0.03,0.05,competitor,target,1,10.764
5,91,numeric,0.03,0.2,competitor,competitor,0,5.284
5,92,numeric,0.1,0.2,competitor,target,1,6.768
5,93,perceptual,0.03,0.05,target,target,1,6.493
5,94,perceptual,0.1,0.05,target,target,1,11.907
5,95,numeric,0.03,0.2,target,target,1,5.745
5,96,numeric,0.03,0.2,target,competitor,0,13.609
5,97,numeric,0.03,0.05,competitor,competitor,0,10.076
5,98,numeric,0.03,0.2,competitor,competitor,0,7.415
5,99,perceptual,0.03,0.2,competitor,competitor,0,4.548
5,100,numeric,0.1,0.2,target,target,1,4.709
5,101,numeric,0.03,0.2,competitor,target,1,5.489
5,102,numeric,0.1,0.2,target,target,1,5.598
5,103,numeric,0.03,0.2,target,competitor,0,11.97
5,104,numeric,0.03,0.05,competitor,target,1,4.397
5,105,perceptual,0.1,0.05,competitor,target,1,4.382
5,106,numeric,0.03,0.2,competitor,target,1,6.021
5,107,perceptual,0.1,0.2,competitor,target,1,3.963
5,108,numeric,0.1,0.2,competitor,target,1,7.064
5,109,numeric,0.1,0.05,competitor,target,1,4.749
5,110,perceptual,0.03,0.2,competitor,target,1,3.67
5,111,perceptual,0.03,0.2,target,target,1,14.276
5,112,perceptual,0.03,0.05,competitor,target,1,3.195
5,113,numeric,0.1,0.05,target,target,1,5.645
5,114,numeric,0.03,0.2,competitor,target,1,3.908
5,115,perceptual,0.1,0.2,competitor,target,1,4.952
5,116,perceptual,0.03,0.2,target,target,1,5.626
5,117,numeric,0.1,0.2,competitor,target,1,6.345
5,118,numeric,0.1,0.2,competitor,competitor,0,4.325
5,119,perceptual,0.03,0.2,target,competitor,0,2.9
5,120,perceptual,0.03,0.05,target,competitor,0,7.52
5,121,perceptual,0.1,0.2,target,target,1,5.846
5,122,numeric,0.1,0.05,competitor,competitor,0,7.807
5,123,perceptual,0.03,0.2,target,target,1,4.219
5,124,perceptual,0.03,0.05,target,decoy,0,7.642
5,125,perceptual,0.1,0.2,competitor,target,1,7.476
5,126,numeric,0.03,0.2,target,competitor,0,7.789
5,127,perceptual,0.03,0.2,competitor,target,1,3.504
5,128,perceptual,0.03,0.05,competitor,target,1,4.946
5,129,numeric,0.1,0.05,competitor,target,1,5.41
5,130,numeric,0.1,0.2,competitor,target,1,6.134
5,131,numeric,0.03,0.05,competitor,decoy,0,4.549
5,132,numeric,0.03,0.05,target,competitor,0,4.599
5,133,numeric,0.1,0.05,target,target,1,5.684
5,134,perceptual,0.03,0.05,target,competitor,0,5.247
5,135,perceptual,0.03,0.2,target,competitor,0,4.815
5,136,perceptual,0.03,0.05,target,target,1,7.555
5,137,perceptual,0.03,0.05,competitor,competitor,0,3.245
5,138,perceptual,0.03,0.05,target,target,1,4.865
5,139,numeric,0.1,0.2,target,target,1,4.828
5,140,perceptual,0.03,0.2,competitor,competitor,0,6.602
5,141,perceptual,0.03,0.2,competitor,competitor,0,7.565
5,142,perceptual,0.1,0.05,target,decoy,0,7.36
5,143,numeric,0.1,0.05,competitor,competitor,0,4.524
5,144,numeric,0.1,0.2,competitor,target,1,3.726
5,145,perceptual,0.1,0.2,competitor,target,1,3.147
5,146,perceptual,0.1,0.05,competitor,target,1,3.531
5,147,numeric,0.03,0.2,competitor,competitor,0,4.279
5,148,perceptual,0.1,0.05,target,target,1,4.152
5,149,perceptual,0.03,0.05,target,target,1,4.422
5,150,perceptual,0.03,0.2,competitor,competitor,0,3.608
5,151,perceptual,0.03,0.2,competitor,target,1,4.549
5,152,numeric,0.1,0.2,target,competitor,0,3.376
5,153,numeric,0.03,0.2,target,competitor,0,4.224
5,154,numeric,0.03,0.2,target,competitor,0,6.22
5,155,numeric,0.1,0.05,target,competitor,0,6.53
5,156,perceptual,0.03,0.05,target,competitor,0,4.511
5,157,perceptual,0.03,0.05,competitor,competitor,0,8.506
5,158,numeric,0.03,0.05,competitor,target,1,8.609
5,159,numeric,0.03,0.05,target,target,1,4.353
5,160,numeric,0.03,0.2,target,competitor,0,3.47
5,161,numeric,0.1,0.05,competitor,target,1,4.539
5,162,numeric,0.03,0.2,competitor,target,1,4.346
5,163,numeric,0.03,0.2,target,target,1,6.571
5,164,numeric,0.1,0.2,competitor,target,1,3.02
5,165,numeric,0.1,0.2,target,competitor,0,3.488
5,166,perceptual,0.03,0.2,target,target,1,5.916
5,167,perceptual,0.1,0.05,target,competitor,0,3.64
5,168,numeric,0.1,0.2,target,target,1,6.262
5,169,perceptual,0.03,0.2,competitor,competitor,0,4.483
5,170,perceptual,0.03,0.2,competitor,competitor,0,5.397
5,171,perceptual,0.1,0.2,target,target,1,3.363
5,172,numeric,0.1,0.05,competitor,target,1,5.167
5,173,perceptual,0.1,0.2,target,target,1,4.624
5,174,perceptual,0.1,0.05,competitor,target,1,5.321
5,175,numeric,0.03,0.05,target,competitor,0,8.788
5,176,perceptual,0.03,0.05,target,competitor,0,4.434
5,177,perceptual,0.1,0.05,competitor,target,1,3.984
5,178,numeric,0.1,0.05,competitor,competitor,0,6.445
5,179,perceptual,0.1,0.2,competitor,target,1,3.513
5,180,perceptual,0.1,0.05,competitor,competitor,0,7.017
5,181,perceptual,0.03,0.05,competitor,target,1,3.512
5,182,perceptual,0.03,0.2,target,competitor,0,3.511
5,183,numeric,0.03,0.05,competitor,decoy,0,6.53
5,184,numeric,0.03,0.2,competitor,target,1,7.428
5,185,numeric,0.1,0.2,target,target,1,5.248
5,186,numeric,0.1,0.2,target,decoy,0,5.097
5,187,perceptual,0.1,0.05,competitor,competitor,0,0.096
5,188,numeric,0.03,0.2,target,competitor,0,3.946
5,189,numeric,0.1,0.2,competitor,competitor,0,4.885
5,190,numeric,0.03,0.2,competitor,target,1,2.866
5,191,numeric,0.03,0.2,target,competitor,0,7.947
5,192,perceptual,0.1,0.2,competitor,target,1,4.107
6,1,perceptual,0.03,0.05,target,target,1,11.018
6,2,perceptual,0.1,0.05,target,target,1,14.282
6,3,perceptual,0.1,0.2,competitor,target,1,5.14
6,4,perceptual,0.1,0.2,target,target,1,4.322
6,5,perceptual,0.03,0.2,target,target,1,5.35
6,6,perceptual,0.03,0.05,target,decoy,0,7.697
6,7,numeric,0.03,0.2,target,target,1,9.403
6,8,perceptual,0.03,0.2,target,competitor,0,3.471
6,9,numeric,0.1,0.05,competitor,decoy,0,14.1
6,10,perceptual,0.1,0.2,competitor,competitor,0,3.243
6,11,perceptual,0.1,0.05,target,target,1,6.597
6,12,numeric,0.03,0.05,target,target,1,9.525
6,13,perceptual,0.1,0.05,target,target,1,3.134
6,14,perceptual,0.1,0.05,target,target,1,2.411
6,15,perceptual,0.03,0.2,competitor,target,1,2.281
6,16,perceptual,0.1,0.05,competitor,target,1,2.873
6,17,numeric,0.1,0.05,target,target,1,3.946
6,18,perceptual,0.03,0.05,competitor,target,1,5.753
6,19,perceptual,0.03,0.2,target,target,1,5.66
6,20,numeric,0.03,0.2,competitor,target,1,4.088
6,21,numeric,0.1,0.05,competitor,target,1,4.126
6,22,perceptual,0.1,0.2,target,competitor,0,3.346
6,23,numeric,0.03,0.05,competitor,target,1,11.059
6,24,numeric,0.1,0.05,target,target,1,3.019
6,25,perceptual,0.1,0.05,target,target,1,3.6
6,26,numeric,0.1,0.2,target,target,1,2.209
6,27,perceptual,0.03,0.2,competitor,target,1,2.258
6,28,numeric,0.03,0.2,competitor,target,1,2.853
6,29,numeric,0.1,0.05,target,target,1,2.128
6,30,numeric,0.1,0.05,target,target,1,2.817
6,31,numeric,0.03,0.05,target,target,1,2.931
6,32,numeric,0.03,0.05,target,decoy,0,3.006
6,33,numeric,0.03,0.2,target,target,1,10.332
6,34,numeric,0.1,0.05,competitor,target,1,3.413
6,35,perceptual,0.03,0.05,competitor,decoy,0,6.355
6,36,numeric,0.03,0.2,competitor,target,1,3.915
6,37,perceptual,0.03,0.2,target,competitor,0,2.971
6,38,numeric,0.1,0.2,target,competitor,0,2.382
6,39,numeric,0.03,0.2,target,target,1,4.474
6,40,numeric,0.03,0.05,competitor,target,1,2.601
6,41,perceptual,0.03,0.2,competitor,competitor,0,2.036
6,42,numeric,0.03,0.2,competitor,target,1,9.216
6,43,numeric,0.1,0.2,competitor,competitor,0,2.91
6,44,perceptual,0.03,0.05,competitor,competitor,0,4.257
6,45,perceptual,0.03,0.05,competitor,target,1,2.95
6,46,numeric,0.1,0.2,target,competitor,0,5.561
6,47,numeric,0.1,0.2,competitor,target,1,3.428
6,48,perceptual,0.1,0.2,competitor,target,1,5.796
6,49,numeric,0.03,0.05,competitor,target,1,11.484
6,50,numeric,0.03,0.2,target,competitor,0,11.974
6,51,perceptual,0.03,0.2,competitor,target,1,6.774
6,52,perceptual,0.03,0.05,competitor,target,1,2.94
6,53,numeric,0.1,0.2,target,target,1,5.046
6,54,perceptual,0.1,0.2,competitor,competitor,0,3.502
6,55,numeric,0.03,0.05,target,target,1,7.591
6,56,numeric,0.1,0.2,competitor,target,1,9.712
6,57,perceptual,0.1,0.2,target,decoy,0,4.504
6,58,numeric,0.1,0.05,competitor,target,1,11.747
6,59,perceptual,0.1,0.05,competitor,target,1,5.919
6,60,perceptual,0.1,0.05,competitor,target,1,2.924
6,61,perceptual,0.03,0.2,competitor,competitor,0,4.633
6,62,numeric,0.03,0.2,target,competitor,0,4.36
6,63,numeric,0.1,0.2,competitor,target,1,3.98
6,64,numeric,0.1,0.2,target,decoy,0,3.124
6,65,perceptual,0.1,0.05,target,decoy,0,2.547
6,66,numeric,0.03,0.05,target,competitor,0,2.893
6,67,perceptual,0.03,0.05,competitor,target,1,3.541
6,68,numeric,0.03,0.05,competitor,target,1,2.962
6,69,numeric,0.03,0.2,target,target,1,6.541
6,70,numeric,0.1,0.2,competitor,target,1,4.032
6,71,numeric,0.03,0.2,competitor,target,1,3.946
6,72,numeric,0.1,0.05,competitor,competitor,0,3.103
6,73,numeric,0.03,0.05,competitor,target,1,2.297
6,74,numeric,0.03,0.05,competitor,competitor,0,3.064
6,75,perceptual,0.1,0.05,competitor,target,1,3.88
6,76,numeric,0.03,0.2,competitor,target,1,2.951
6,77,perceptual,0.1,0.05,target,decoy,0,2.57
6,78,perceptual,0.03,0.2,competitor,competitor,0,4.264
6,79,perceptual,0.1,0.05,competitor,target,1,9.223
6,80,perceptual,0.1,0.05,competitor,target,1,2.046
6,81,perceptual,0.1,0.2,competitor,decoy,0,3.007
6,82,numeric,0.03,0.05,competitor,target,1,5.495
6,83,perceptual,0.1,0.2,competitor,target,1,4.303
6,84,perceptual,0.1,0.2,target,target,1,2.444
6,89,perceptual,0.1,0.2,target,competitor,0,3.283
6,90,perceptual,0.1,0.05,competitor,target,1,2.802
6,91,perceptual,0.1,0.05,target,target,1,6.932
6,92,perceptual,0.03,0.05,target,decoy,0,14.285
6,93,perceptual,0.1,0.2,competitor,decoy,0,2.572
6,94,numeric,0.1,0.05,competitor,target,1,2.67
6,95,perceptual,0.1,0.05,competitor,decoy,0,3.089
6,96,numeric,0.03,0.2,competitor,competitor,0,3.068
6,97,numeric,0.03,0.2,competitor,target,1,3.14
6,98,numeric,0.1,0.2,target,target,1,3.527
6,99,perceptual,0.03,0.2,target,competitor,0,4.729
6,100,perceptual,0.1,0.2,competitor,target,1,8.864
6,101,numeric,0.1,0.05,target,competitor,0,4.798
6,102,perceptual,0.03,0.2,target,competitor,0,3.496
6,103,numeric,0.1,0.05,target,target,1,7.454
6,104,numeric,0.1,0.05,target,target,1,6.078
6,105,perceptual,0.03,0.2,target,target,1,4.126
6,106,numeric,0.1,0.2,target,target,1,3.615
6,107,numeric,0.1,0.05,competitor,target,1,4.285
6,108,perceptual,0.1,0.05,competitor,competitor,0,3.952
6,109,numeric,0.03,0.2,target,competitor,0,3.939
6,110,numeric,0.1,0.2,target,target,1,3.755
6,111,numeric,0.03,0.2,competitor,target,1,3.508
6,112,numeric,0.1,0.05,competitor,competitor,0,3.659
6,113,perceptual,0.03,0.2,target,target,1,3.854
6,114,perceptual,0.1,0.2,target,competitor,0,3.67
6,115,numeric,0.1,0.05,target,competitor,0,3.731
6,116,perceptual,0.03,0.2,competitor,target,1,3.296
6,117,numeric,0.1,0.2,target,target,1,3.146
6,118,numeric,0.03,0.05,competitor,target,1,7.668
6,119,numeric,0.03,0.2,target,competitor,0,5.151
6,120,perceptual,0.1,0.05,target,target,1,3.497
6,121,numeric,0.1,0.2,target,target,1,4.804
6,122,numeric,0.1,0.05,competitor,target,1,14.581
6,123,perceptual,0.03,0.2,target,target,1,3.841
6,124,numeric,0.1,0.2,competitor,target,1,4.508
6,125,perceptual,0.03,0.05,competitor,target,1,3.538
6,126,perceptual,0.03,0.2,competitor,competitor,0,2.547
6,127,numeric,0.03,0.05,competitor,target,1,2.429
6,128,perceptual,0.03,0.05,target,decoy,0,5.112
6,129,perceptual,0.1,0.05,competitor,target,1,2.807
6,130,numeric,0.03,0.2,target,decoy,0,3.341
6,131,numeric,0.03,0.05,target,target,1,2.719
6,132,numeric,0.03,0.05,target,decoy,0,2.746
6,133,numeric,0.03,0.2,competitor,target,1,12.513
6,134,numeric,0.1,0.2,competitor,target,1,9.23
6,135,perceptual,0.03,0.2,competitor,target,1,6.025
6,136,perceptual,0.03,0.05,target,target,1,6.079
6,137,perceptual,0.03,0.05,target,competitor,0,3.063
6,138,numeric,0.03,0.2,competitor,competitor,0,4.16
6,139,perceptual,0.03,0.2,competitor,target,1,2.837
6,140,perceptual,0.1,0.05,target,decoy,0,3.013
6,141,numeric,0.1,0.05,competitor,target,1,2.558
6,142,numeric,0.1,0.2,target,decoy,0,2.347
6,143,numeric,0.03,0.05,target,competitor,0,2.408
6,144,numeric,0.1,0.05,competitor,target,1,2.542
6,145,perceptual,0.1,0.2,target,target,1,3.217
6,146,numeric,0.03,0.05,target,decoy,0,6.815
6,147,perceptual,0.1,0.2,target,target,1,6.529
6,148,perceptual,0.03,0.05,target,target,1,11.38
6,149,numeric,0.1,0.2,competitor,target,1,9.156
6,150,numeric,0.1,0.2,competitor,competitor,0,5.295
6,151,perceptual,0.1,0.05,competitor,target,1,5.576
6,152,numeric,0.1,0.2,competitor,competitor,0,5.629
6,153,numeric,0.1,0.05,target,target,1,10.456
6,154,perceptual,0.1,0.2,target,target,1,6.785
6,155,perceptual,0.03,0.05,competitor,target,1,7.478
6,156,numeric,0.1,0.05,target,target,1,10.03
6,157,perceptual,0.03,0.05,target,competitor,0,5.243
6,158,perceptual,0.1,0.2,target,competitor,0,2.653
6,159,perceptual,0.03,0.2,target,target,1,2.077
6,160,numeric,0.03,0.2,target,target,1,6.928
6,161,perceptual,0.1,0.2,target,competitor,0,4.149
6,162,perceptual,0.1,0.05,competitor,target,1,2.24
6,163,numeric,0.1,0.05,target,target,1,2.714
6,164,perceptual,0.1,0.05,target,decoy,0,19.104
6,165,perceptual,0.1,0.2,competitor,target,1,3.87
6,166,numeric,0.1,0.2,competitor,decoy,0,2.344
6,167,perceptual,0.03,0.05,competitor,competitor,0,2.269
6,168,perceptual,0.1,0.2,competitor,target,1,2.849
6,169,numeric,0.03,0.05,competitor,competitor,0,4.237
6,170,numeric,0.03,0.05,target,target,1,3.733
6,171,numeric,0.1,0.2,target,competitor,0,3.381
6,172,numeric,0.1,0.2,competitor,target,1,2.69
6,173,perceptual,0.03,0.2,competitor,decoy,0,0.613
6,174,perceptual,0.03,0.05,competitor,target,1,3.558
6,175,perceptual,0.1,0.2,competitor,target,1,3.853
6,176,numeric,0.1,0.05,target,decoy,0,2.681
6,177,perceptual,0.03,0.05,target,competitor,0,3.283
6,178,numeric,0.03,0.05,competitor,target,1,8.694
6,179,perceptual,0.1,0.2,competitor,target,1,6.253
6,180,perceptual,0.03,0.05,competitor,competitor,0,2.738
6,181,numeric,0.03,0.05,target,target,1,2.961
6,182,numeric,0.03,0.2,competitor,competitor,0,2.181
6,183,perceptual,0.03,0.05,target,decoy,0,2.664
6,184,numeric,0.03,0.2,target,competitor,0,2.188
6,185,perceptual,0.1,0.2,target,target,1,2.98
6,186,perceptual,0.03,0.05,target,competitor,0,7.283
6,187,perceptual,0.03,0.2,competitor,competitor,0,3.047
6,188,perceptual,0.03,0.05,target,competitor,0,8.219
6,189,numeric,0.03,0.05,target,competitor,0,3.672
6,190,perceptual,0.03,0.2,target,competitor,0,4.211
6,191,perceptual,0.1,0.05,target,target,1,2.371
6,192,numeric,0.03,0.05,competitor,target,1,5.334
7,1,perceptual,0.03,0.05,target,decoy,0,9.424
7,2,perceptual,0.1,0.05,target,target,1,9.45
7,3,numeric,0.1,0.05,target,decoy,0,10.441
7,4,numeric,0.1,0.05,target,competitor,0,8.637
7,5,numeric,0.03,0.2,target,target,1,15.689
7,6,perceptual,0.1,0.05,competitor,target,1,5.874
7,7,numeric,0.03,0.05,competitor,competitor,0,7.178
7,8,numeric,0.03,0.05,target,target,1,9.003
7,9,perceptual,0.03,0.2,competitor,competitor,0,4.86
7,10,perceptual,0.03,0.2,competitor,target,1,9.861
7,11,numeric,0.1,0.05,competitor,target,1,7.525
7,12,numeric,0.1,0.2,target,target,1,5.848
7,13,perceptual,0.1,0.05,competitor,competitor,0,6.02
7,14,perceptual,0.03,0.2,target,target,1,4.936
7,15,numeric,0.03,0.05,competitor,competitor,0,8.652
7,16,numeric,0.03,0.05,target,decoy,0,6.429
7,17,perceptual,0.1,0.2,competitor,target,1,4.353
7,18,numeric,0.1,0.2,target,competitor,0,4.53
7,19,numeric,0.03,0.2,competitor,target,1,6.304
7,20,perceptual,0.1,0.05,target,competitor,0,5.494
7,21,numeric,0.03,0.05,target,target,1,4.304
7,22,numeric,0.03,0.2,competitor,competitor,0,4.938
7,23,numeric,0.1,0.2,competitor,target,1,4.558
7,24,numeric,0.03,0.2,target,competitor,0,4.478
7,25,numeric,0.03,0.05,competitor,decoy,0,9.285
7,26,perceptual,0.03,0.2,competitor,target,1,4.468
7,27,numeric,0.1,0.05,competitor,target,1,8.221
7,28,perceptual,0.03,0.05,target,competitor,0,4.815
7,29,numeric,0.03,0.2,competitor,target,1,4.913
7,30,numeric,0.1,0.2,target,competitor,0,3.64
7,31,numeric,0.1,0.05,target,competitor,0,4.908
7,32,numeric,0.1,0.2,target,target,1,4.706
7,33,perceptual,0.03,0.05,target,decoy,0,2.978
7,34,perceptual,0.1,0.2,target,competitor,0,3.331
7,35,perceptual,0.03,0.05,competitor,target,1,13.111
7,36,perceptual,0.1,0.2,competitor,target,1,6.715
7,37,numeric,0.03,0.2,target,target,1,6.245
7,38,numeric,0.03,0.05,target,target,1,16.291
7,39,numeric,0.03,0.05,target,competitor,0,7.182
7,40,numeric,0.1,0.2,competitor,competitor,0,9.08
7,41,perceptual,0.1,0.05,target,competitor,0,6.114
7,42,numeric,0.1,0.05,competitor,decoy,0,11.876
7,43,perceptual,0.03,0.05,target,target,1,11.371
7,44,numeric,0.1,0.05,competitor,competitor,0,15.354
7,45,numeric,0.1,0.2,target,target,1,9.037
7,46,numeric,0.03,0.2,competitor,competitor,0,15.564
7,47,perceptual,0.1,0.2,competitor,target,1,6.662
7,48,perceptual,0.1,0.2,competitor,target,1,5.718
7,49,perceptual,0.1,0.2,competitor,target,1,4.518
7,50,perceptual,0.1,0.05,target,decoy,0,7.945
7,51,perceptual,0.03,0.05,competitor,target,1,5.43
7,52,numeric,0.03,0.2,competitor,competitor,0,4.92
7,53,numeric,0.03,0.2,competitor,target,1,5.487
7,54,perceptual,0.03,0.05,competitor,target,1,6.419
7,55,perceptual,0.1,0.05,competitor,target,1,3.185
7,56,perceptual,0.03,0.2,competitor,target,1,9.863
7,57,perceptual,0.03,0.05,target,competitor,0,14.569
7,58,perceptual,0.03,0.05,competitor,competitor,0,3.805
7,59,perceptual,0.03,0.05,target,target,1,3.624
7,60,perceptual,0.03,0.2,target,target,1,3.64
7,61,numeric,0.03,0.2,target,target,1,8.722
7,62,perceptual,0.1,0.2,competitor,target,1,3.532
7,63,numeric,0.1,0.05,target,decoy,0,4.622
7,64,numeric,0.1,0.2,competitor,target,1,3.662
7,65,perceptual,0.1,0.2,target,target,1,3.086
7,66,perceptual,0.03,0.2,competitor,competitor,0,3.588
7,67,perceptual,0.1,0.2,target,competitor,0,3.524
7,68,numeric,0.1,0.05,competitor,competitor,0,4.549
7,69,numeric,0.03,0.2,target,target,1,8.736
7,70,perceptual,0.03,0.2,competitor,target,1,4.808
7,71,perceptual,0.03,0.2,target,target,1,9.33
7,72,perceptual,0.03,0.05,target,competitor,0,6.014
7,73,numeric,0.03,0.2,competitor,target,1,6.229
7,74,numeric,0.03,0.2,competitor,competitor,0,8.801
7,75,perceptual,0.03,0.05,competitor,decoy,0,3.479
7,76,perceptual,0.03,0.05,competitor,target,1,3.611
7,77,perceptual,0.1,0.2,target,target,1,5.427
7,78,perceptual,0.1,0.2,target,competitor,0,4.558
7,79,numeric,0.1,0.2,competitor,competitor,0,4.588
7,80,numeric,0.1,0.05,competitor,target,1,6.88
7,81,numeric,0.1,0.05,target,target,1,3.708
7,82,numeric,0.1,0.05,target,competitor,0,3.257
7,83,perceptual,0.1,0.05,target,decoy,0,9.674
7,84,numeric,0.03,0.05,competitor,competitor,0,4.909
7,85,numeric,0.03,0.05,target,target,1,5.758
7,86,numeric,0.1,0.2,competitor,target,1,8.021
7,87,numeric,0.1,0.05,target,target,1,4.581
7,88,perceptual,0.03,0.05,target,competitor,0,5.391
7,89,perceptual,0.1,0.05,competitor,competitor,0,4.16
7,90,numeric,0.1,0.2,target,target,1,8.448
7,91,numeric,0.03,0.05,competitor,competitor,0,6.928
7,92,perceptual,0.03,0.05,competitor,target,1,4.023
7,93,numeric,0.03,0.05,competitor,target,1,5.041
7,94,perceptual,0.03,0.2,target,competitor,0,4.284
7,95,perceptual,0.03,0.2,competitor,competitor,0,5.963
7,96,numeric,0.03,0.05,competitor,decoy,0,8.509
7,97,numeric,0.03,0.2,target,target,1,5
7,98,numeric,0.1,0.2,target,competitor,0,3.995
7,99,perceptual,0.03,0.2,competitor,competitor,0,3.68
7,100,perceptual,0.1,0.05,competitor,target,1,4.415
7,101,perceptual,0.03,0.05,competitor,target,1,4.882
7,102,perceptual,0.1,0.2,competitor,target,1,3.541
7,103,numeric,0.1,0.2,target,competitor,0,5.37
7,104,numeric,0.1,0.05,competitor,target,1,3.701
7,105,numeric,0.03,0.2,competitor,target,1,8.089
7,106,numeric,0.1,0.05,target,competitor,0,6.446
7,107,perceptual,0.1,0.2,target,competitor,0,2.991
7,108,numeric,0.1,0.05,competitor,target,1,5.421
7,109,numeric,0.03,0.05,competitor,competitor,0,7.366
7,110,perceptual,0.03,0.05,target,target,1,4.368
7,111,numeric,0.03,0.2,target,target,1,8.013
7,112,numeric,0.1,0.2,competitor,target,1,4.835
7,113,perceptual,0.03,0.2,target,competitor,0,3.74
7,114,perceptual,0.03,0.05,competitor,target,1,4.317
7,115,perceptual,0.1,0.05,target,target,1,4.483
7,116,numeric,0.03,0.2,competitor,target,1,7.185
7,117,perceptual,0.03,0.2,target,target,1,4.064
7,118,numeric,0.1,0.2,competitor,target,1,5.035
7,119,numeric,0.03,0.2,target,target,1,15.697
7,120,perceptual,0.03,0.05,target,target,1,5.706
7,121,numeric,0.03,0.2,target,competitor,0,3.678
7,122,perceptual,0.03,0.2,competitor,target,1,3.046
7,123,numeric,0.1,0.2,competitor,competitor,0,5.283
7,124,perceptual,0.1,0.05,target,target,1,3.537
7,125,perceptual,0.1,0.05,target,decoy,0,3.271
7,126,perceptual,0.1,0.2,target,target,1,7.025
7,127,numeric,0.1,0.2,competitor,competitor,0,6.436
7,128,numeric,0.03,0.2,target,target,1,11.247
7,129,numeric,0.1,0.05,target,competitor,0,3.83
7,130,perceptual,0.1,0.05,competitor,decoy,0,3.915
7,131,perceptual,0.1,0.05,competitor,target,1,3.51
7,132,numeric,0.03,0.2,target,target,1,5.413
7,133,perceptual,0.03,0.2,target,competitor,0,5.359
7,134,numeric,0.1,0.2,target,target,1,18.198
7,135,perceptual,0.03,0.2,target,target,1,3.104
7,136,numeric,0.1,0.2,target,target,1,4.997
7,137,numeric,0.03,0.05,target,competitor,0,8.637
7,138,numeric,0.1,0.05,competitor,target,1,8.675
7,139,numeric,0.03,0.2,target,target,1,5.455
7,140,perceptual,0.03,0.2,target,competitor,0,4.33
7,141,perceptual,0.03,0.2,target,target,1,3.332
7,142,perceptual,0.03,0.2,target,competitor,0,6.279
7,143,numeric,0.1,0.2,target,target,1,5.38
7,144,numeric,0.03,0.05,competitor,target,1,7.524
7,145,numeric,0.1,0.05,target,target,1,4.497
7,146,numeric,0.03,0.05,target,competitor,0,4.816
7,147,perceptual,0.03,0.2,target,competitor,0,3.087
7,148,perceptual,0.1,0.2,competitor,competitor,0,3.106
7,149,perceptual,0.1,0.2,target,competitor,0,4.237
7,150,perceptual,0.1,0.05,target,competitor,0,2.758
7,151,perceptual,0.1,0.2,competitor,target,1,3.252
7,152,numeric,0.03,0.05,target,target,1,4.885
7,153,perceptual,0.1,0.2,target,competitor,0,3.913
7,154,perceptual,0.03,0.2,competitor,competitor,0,5.498
7,155,numeric,0.03,0.05,competitor,target,1,4.198
7,156,perceptual,0.1,0.05,competitor,decoy,0,3.474
7,157,perceptual,0.1,0.05,target,target,1,5.254
7,158,numeric,0.1,0.2,competitor,target,1,5.19
7,159,perceptual,0.03,0.05,competitor,competitor,0,4.168
7,160,perceptual,0.1,0.2,target,target,1,3.006
7,161,perceptual,0.1,0.05,target,target,1,3.286
7,162,numeric,0.03,0.05,competitor,competitor,0,4.12
7,163,numeric,0.1,0.2,target,target,1,2.864
7,164,perceptual,0.1,0.05,competitor,target,1,2.931
7,165,perceptual,0.1,0.05,competitor,target,1,2.393
7,166,numeric,0.1,0.2,competitor,target,1,2.393
7,167,numeric,0.1,0.05,competitor,target,1,3.646
7,168,numeric,0.03,0.05,target,target,1,2.612
7,169,numeric,0.03,0.2,competitor,target,1,3.449
7,170,numeric,0.1,0.2,competitor,target,1,3.074
7,171,numeric,0.03,0.05,competitor,competitor,0,2.513
7,172,perceptual,0.03,0.05,competitor,competitor,0,2.237
7,173,numeric,0.1,0.05,target,decoy,0,3.374
7,174,numeric,0.1,0.05,competitor,competitor,0,2.287
7,175,perceptual,0.03,0.05,target,target,1,2.388
7,176,perceptual,0.1,0.2,competitor,decoy,0,2.759
7,177,perceptual,0.1,0.05,competitor,target,1,2.244
7,178,perceptual,0.03,0.05,competitor,decoy,0,1.895
7,179,perceptual,0.03,0.2,competitor,decoy,0,2.196
7,180,perceptual,0.1,0.2,target,competitor,0,2.011
7,181,numeric,0.1,0.05,competitor,competitor,0,4.25
7,182,perceptual,0.1,0.2,competitor,competitor,0,3.441
7,183,numeric,0.1,0.05,target,decoy,0,3.866
7,184,perceptual,0.1,0.2,target,target,1,2.303
7,185,numeric,0.03,0.05,target,competitor,0,3.312
7,186,numeric,0.03,0.2,competitor,target,1,5.603
7,187,perceptual,0.03,0.05,target,decoy,0,2.493
7,188,perceptual,0.1,0.05,competitor,competitor,0,2.362
7,189,numeric,0.03,0.05,target,target,1,6.274
7,190,perceptual,0.1,0.05,target,target,1,4.784
7,191,perceptual,0.03,0.2,competitor,decoy,0,2.375
7,192,perceptual,0.1,0.2,competitor,target,1,2.435
8,1,perceptual,0.1,0.2,target,target,1,12.143
8,2,numeric,0.1,0.05,competitor,target,1,8.881
8,3,numeric,0.1,0.2,competitor,target,1,0.244
8,4,perceptual,0.1,0.05,target,target,1,7.187
8,5,perceptual,0.03,0.05,target,target,1,10.422
8,6,numeric,0.1,0.2,target,target,1,6.476
8,7,perceptual,0.03,0.05,competitor,target,1,9.75
8,8,perceptual,0.1,0.05,target,target,1,12.026
8,9,numeric,0.1,0.2,target,target,1,10.14
8,10,perceptual,0.03,0.05,competitor,target,1,11.485
8,11,perceptual,0.03,0.05,target,target,1,15.718
8,12,numeric,0.1,0.05,target,target,1,10.507
8,13,numeric,0.1,0.2,competitor,target,1,8.083
8,14,numeric,0.1,0.05,competitor,target,1,12.734
8,15,numeric,0.03,0.05,target,target,1,7.058
8,16,numeric,0.03,0.2,competitor,target,1,8.274
8,17,numeric,0.1,0.05,competitor,competitor,0,11.845
8,18,perceptual,0.1,0.05,competitor,target,1,7.852
8,19,numeric,0.1,0.2,competitor,competitor,0,13.936
8,20,perceptual,0.1,0.05,target,decoy,0,7.876
8,21,perceptual,0.03,0.05,target,target,1,8.461
8,22,numeric,0.1,0.2,target,target,1,8.799
8,23,perceptual,0.1,0.2,target,target,1,3.488
8,24,perceptual,0.03,0.2,target,competitor,0,3.836
8,25,perceptual,0.03,0.05,competitor,decoy,0,8.185
8,26,perceptual,0.03,0.2,target,competitor,0,3.271
8,27,perceptual,0.1,0.2,competitor,target,1,5.893
8,28,numeric,0.03,0.05,competitor,target,1,9.839
8,29,numeric,0.1,0.2,target,target,1,14.286
8,30,numeric,0.03,0.05,competitor,target,1,13.332
8,31,perceptual,0.1,0.2,target,target,1,7.745
8,32,numeric,0.03,0.2,competitor,competitor,0,7.709
8,33,numeric,0.1,0.2,competitor,competitor,0,16.957
8,34,perceptual,0.03,0.2,target,competitor,0,3.979
8,35,perceptual,0.03,0.05,target,competitor,0,7.81
8,36,numeric,0.03,0.05,target,decoy,0,9.192
8,37,perceptual,0.03,0.05,target,target,1,16.839
8,38,perceptual,0.03,0.2,competitor,target,1,8.445
8,39,perceptual,0.1,0.05,target,target,1,5.211
8,40,perceptual,0.03,0.2,competitor,target,1,3.914
8,41,perceptual,0.03,0.05,competitor,target,1,8.442
8,42,numeric,0.03,0.2,target,target,1,9.175
8,43,numeric,0.03,0.2,target,target,1,6.846
8,44,perceptual,0.03,0.2,competitor,target,1,4.45
8,45,numeric,0.1,0.05,target,target,1,5.209
8,46,perceptual,0.03,0.05,competitor,target,1,2.83
8,47,numeric,0.03,0.05,target,target,1,15.521
8,48,perceptual,0.1,0.05,competitor,target,1,7.562
8,49,perceptual,0.1,0.05,target,target,1,6.757
8,50,numeric,0.03,0.2,target,target,1,4.955
8,51,numeric,0.1,0.05,target,target,1,6.464
8,52,numeric,0.1,0.05,target,target,1,6.596
8,53,numeric,0.1,0.2,competitor,target,1,8.433
8,54,numeric,0.03,0.2,target,target,1,9.131
8,55,numeric,0.1,0.2,competitor,target,1,9.647
8,56,numeric,0.1,0.05,competitor,target,1,18.545
8,57,numeric,0.03,0.05,target,target,1,6.5
8,58,numeric,0.03,0.05,competitor,competitor,0,12.649
8,59,perceptual,0.1,0.2,target,target,1,6.824
8,60,perceptual,0.03,0.2,competitor,target,1,3.234
8,61,perceptual,0.03,0.2,target,target,1,3.786
8,62,perceptual,0.03,0.2,target,target,1,4.422
8,63,perceptual,0.1,0.2,target,target,1,6.841
8,64,numeric,0.03,0.2,target,target,1,11.359
8,65,perceptual,0.1,0.2,competitor,target,1,6.258
8,66,perceptual,0.1,0.05,competitor,target,1,2.82
8,67,perceptual,0.1,0.05,target,decoy,0,3.781
8,68,perceptual,0.1,0.2,target,competitor,0,6.626
8,69,numeric,0.1,0.2,competitor,target,1,17.786
8,70,perceptual,0.03,0.2,target,target,1,5.683
8,71,perceptual,0.03,0.2,competitor,competitor,0,2.207
8,72,perceptual,0.03,0.05,competitor,target,1,3.031
8,73,numeric,0.03,0.05,competitor,competitor,0,5.904
8,74,perceptual,0.03,0.05,target,target,1,6.546
8,75,perceptual,0.03,0.2,target,target,1,3.444
8,76,perceptual,0.1,0.05,competitor,competitor,0,5.974
8,77,perceptual,0.1,0.2,competitor,target,1,8.102
8,78,numeric,0.03,0.05,target,target,1,12.131
8,79,numeric,0.1,0.2,competitor,target,1,8.494
8,80,perceptual,0.03,0.2,competitor,competitor,0,4.853
8,81,perceptual,0.03,0.05,target,target,1,5.844
8,82,perceptual,0.1,0.2,target,target,1,4.177
8,83,perceptual,0.1,0.2,competitor,competitor,0,3.639
8,84,perceptual,0.03,0.05,competitor,target,1,6.048
8,85,perceptual,0.1,0.05,competitor,target,1,3.093
8,86,numeric,0.1,0.2,target,target,1,11.754
8,87,perceptual,0.1,0.05,competitor,target,1,3.054
8,88,numeric,0.1,0.2,competitor,competitor,0,15.756
8,89,perceptual,0.1,0.05,target,target,1,4.394
8,90,numeric,0.1,0.05,competitor,target,1,11.887
8,91,perceptual,0.1,0.2,competitor,decoy,0,2.787
8,92,numeric,0.03,0.05,target,target,1,5.798
8,93,numeric,0.1,0.2,target,target,1,7.484
8,94,perceptual,0.03,0.2,competitor,target,1,2.54
8,95,numeric,0.1,0.05,target,target,1,4.915
8,97,numeric,0.03,0.05,competitor,competitor,0,6.804
8,98,numeric,0.1,0.05,competitor,target,1,10.048
8,99,perceptual,0.1,0.05,competitor,competitor,0,3.904
8,100,perceptual,0.03,0.05,target,decoy,0,2.861
8,101,perceptual,0.03,0.05,competitor,decoy,0,4.19
8,102,numeric,0.1,0.2,target,target,1,15.084
8,103,perceptual,0.03,0.05,competitor,competitor,0,6.896
8,104,numeric,0.03,0.05,target,target,1,7.849
8,105,numeric,0.1,0.05,competitor,target,1,7.761
8,106,numeric,0.03,0.2,competitor,target,1,5.833
8,107,numeric,0.1,0.05,target,target,1,4.749
8,108,perceptual,0.1,0.2,target,decoy,0,2.576
8,109,numeric,0.03,0.05,competitor,competitor,0,11.529
8,110,numeric,0.1,0.05,target,target,1,7.702
8,111,numeric,0.1,0.05,competitor,target,1,7.478
8,112,numeric,0.03,0.2,competitor,competitor,0,8.61
8,113,numeric,0.1,0.2,target,target,1,8.503
8,114,perceptual,0.03,0.2,target,competitor,0,5.042
8,115,perceptual,0.1,0.05,competitor,target,1,3.669
8,116,numeric,0.03,0.2,target,target,1,4.462
8,117,perceptual,0.03,0.2,target,competitor,0,5.45
8,118,numeric,0.1,0.05,target,target,1,4.943
8,119,numeric,0.03,0.05,competitor,competitor,0,7.631
8,120,numeric,0.03,0.2,competitor,competitor,0,8.372
8,121,numeric,0.1,0.2,target,target,1,11.084
8,122,numeric,0.1,0.2,target,target,1,6.171
8,123,numeric,0.03,0.2,target,target,1,9.631
8,124,numeric,0.1,0.2,competitor,target,1,16.086
8,125,numeric,0.1,0.2,target,target,1,7.109
8,126,perceptual,0.03,0.2,competitor,target,1,5.229
8,127,numeric,0.03,0.05,target,target,1,10.665
8,128,numeric,0.03,0.2,target,target,1,11.821
8,129,numeric,0.03,0.05,competitor,target,1,6.179
8,130,numeric,0.03,0.2,competitor,competitor,0,9.813
8,131,perceptual,0.03,0.05,competitor,competitor,0,6.691
8,132,numeric,0.1,0.2,competitor,competitor,0,16.608
8,133,perceptual,0.1,0.05,competitor,competitor,0,3.38
8,134,numeric,0.1,0.05,target,target,1,13.914
8,135,numeric,0.1,0.05,target,target,1,8.376
8,136,perceptual,0.03,0.2,target,target,1,4.585
8,137,numeric,0.03,0.05,target,target,1,5.312
8,138,numeric,0.03,0.05,target,target,1,8.647
8,139,numeric,0.03,0.2,target,target,1,7.472
8,140,perceptual,0.1,0.2,competitor,target,1,7.756
8,141,perceptual,0.1,0.2,target,target,1,5.496
8,142,perceptual,0.03,0.2,target,competitor,0,3.91
8,143,perceptual,0.1,0.05,competitor,target,1,6.129
8,144,numeric,0.03,0.05,target,target,1,9.027
8,145,perceptual,0.03,0.05,target,target,1,6.344
8,146,numeric,0.03,0.2,competitor,target,1,10.446
8,147,perceptual,0.1,0.2,competitor,competitor,0,2.529
8,148,numeric,0.03,0.2,competitor,competitor,0,16.998
8,149,perceptual,0.1,0.05,target,target,1,7.166
8,150,numeric,0.03,0.2,target,target,1,6.82
8,151,numeric,0.1,0.05,competitor,target,1,8.287
8,152,numeric,0.03,0.05,competitor,competitor,0,11.67
8,153,numeric,0.1,0.05,target,target,1,11.467
8,154,perceptual,0.1,0.2,competitor,target,1,4.332
8,155,numeric,0.1,0.05,competitor,competitor,0,10.213
8,156,numeric,0.1,0.05,competitor,competitor,0,13.783
8,157,perceptual,0.1,0.2,competitor,target,1,3.057
8,158,perceptual,0.1,0.2,competitor,target,1,2.079
8,159,numeric,0.03,0.05,competitor,competitor,0,8.892
8,160,perceptual,0.1,0.05,competitor,target,1,4.477
8,161,perceptual,0.1,0.2,competitor,target,1,6.128
8,162,numeric,0.03,0.05,competitor,competitor,0,9.487
8,163,perceptual,0.1,0.2,competitor,target,1,3.694
8,164,perceptual,0.03,0.05,target,competitor,0,6.273
8,165,numeric,0.1,0.2,target,target,1,7.62
8,166,perceptual,0.03,0.2,competitor,competitor,0,7.075
8,167,numeric,0.03,0.2,target,target,1,12.224
8,168,perceptual,0.03,0.2,competitor,competitor,0,3.91
8,169,numeric,0.1,0.05,target,target,1,5.766
8,170,perceptual,0.1,0.2,target,target,1,3.619
8,171,perceptual,0.1,0.05,target,target,1,3.604
8,172,numeric,0.1,0.05,competitor,target,1,6.692
8,173,perceptual,0.03,0.05,competitor,target,1,9.395
8,174,perceptual,0.1,0.05,target,target,1,8.45
8,175,perceptual,0.03,0.2,competitor,competitor,0,6.488
8,176,perceptual,0.1,0.05,target,target,1,7.568
8,177,perceptual,0.1,0.2,target,target,1,7.153
8,178,perceptual,0.1,0.2,target,target,1,7.473
8,179,numeric,0.03,0.05,target,target,1,7.434
8,180,perceptual,0.03,0.05,target,target,1,10.313
8,181,numeric,0.03,0.2,competitor,target,1,5.948
8,182,numeric,0.03,0.2,competitor,competitor,0,12.79
8,183,numeric,0.03,0.05,competitor,target,1,14.299
8,184,numeric,0.03,0.2,target,target,1,11.607
8,185,perceptual,0.03,0.2,target,target,1,3.302
8,186,perceptual,0.03,0.05,competitor,competitor,0,7.935
8,187,perceptual,0.03,0.05,target,target,1,2.238
8,188,perceptual,0.1,0.05,target,target,1,5.305
8,189,numeric,0.03,0.2,competitor,competitor,0,11.276
8,190,perceptual,0.03,0.2,competitor,decoy,0,12.549
8,191,numeric,0.03,0.2,competitor,competitor,0,7.833
8,192,perceptual,0.1,0.05,competitor,competitor,0,9.483
9,1,numeric,0.1,0.2,target,target,1,12.972
9,2,perceptual,0.1,0.2,competitor,target,1,9.02
9,3,perceptual,0.03,0.05,competitor,competitor,0,11.342
9,4,numeric,0.03,0.2,target,decoy,0,5.784
9,5,perceptual,0.03,0.2,target,competitor,0,6.063
9,6,numeric,0.03,0.2,target,target,1,8.57
9,7,perceptual,0.1,0.2,target,decoy,0,8.241
9,8,numeric,0.1,0.05,competitor,target,1,6.874
9,9,numeric,0.1,0.05,competitor,target,1,6.643
9,10,numeric,0.1,0.2,competitor,target,1,8.823
9,11,numeric,0.1,0.05,competitor,target,1,8.499
9,12,numeric,0.1,0.05,competitor,competitor,0,5.389
9,13,perceptual,0.03,0.2,competitor,decoy,0,6.946
9,14,perceptual,0.03,0.2,target,competitor,0,6.946
9,15,perceptual,0.1,0.05,target,competitor,0,7.801
9,16,numeric,0.1,0.05,target,target,1,9.862
9,17,numeric,0.03,0.2,competitor,target,1,5.74
9,18,numeric,0.03,0.05,competitor,competitor,0,6.432
9,19,perceptual,0.1,0.2,target,target,1,4.951
9,20,perceptual,0.03,0.05,target,decoy,0,5.791
9,21,perceptual,0.1,0.2,competitor,target,1,7.511
9,22,numeric,0.1,0.2,target,target,1,7.207
9,23,numeric,0.03,0.2,competitor,target,1,9.28
9,24,perceptual,0.03,0.05,target,decoy,0,4.743
9,25,perceptual,0.03,0.05,competitor,target,1,9.284
9,26,perceptual,0.03,0.2,competitor,competitor,0,5.393
9,27,numeric,0.1,0.2,competitor,target,1,5.113
9,28,numeric,0.03,0.05,competitor,competitor,0,10.042
9,29,numeric,0.1,0.2,competitor,target,1,9.741
9,30,perceptual,0.1,0.2,target,competitor,0,4.129
9,31,perceptual,0.1,0.05,target,decoy,0,3.135
9,32,numeric,0.1,0.2,target,target,1,7.324
9,33,numeric,0.03,0.05,competitor,target,1,7.269
9,34,perceptual,0.1,0.2,target,competitor,0,4.464
9,35,numeric,0.1,0.05,competitor,target,1,5.984
9,36,numeric,0.1,0.2,competitor,target,1,10.589
9,37,perceptual,0.03,0.2,target,competitor,0,3.512
9,38,perceptual,0.03,0.2,competitor,competitor,0,7.574
9,39,perceptual,0.1,0.2,competitor,target,1,5.253
9,40,numeric,0.1,0.05,target,target,1,6.188
9,41,perceptual,0.03,0.2,target,competitor,0,4.694
9,42,perceptual,0.1,0.05,competitor,decoy,0,6.064
9,43,perceptual,0.03,0.05,competitor,competitor,0,4.91
9,44,numeric,0.03,0.2,competitor,competitor,0,8.561
9,45,perceptual,0.1,0.05,target,competitor,0,7.384
9,46,perceptual,0.1,0.2,competitor,decoy,0,6.737
9,47,numeric,0.1,0.05,target,decoy,0,5.568
9,48,perceptual,0.03,0.2,competitor,competitor,0,4.981
9,49,perceptual,0.1,0.2,competitor,target,1,6.341
9,50,numeric,0.03,0.05,competitor,target,1,8.237
9,51,numeric,0.1,0.2,competitor,competitor,0,13.019
9,52,numeric,0.1,0.2,competitor,target,1,10.151
9,53,perceptual,0.03,0.05,target,decoy,0,6.508
9,54,numeric,0.1,0.05,target,target,1,7.345
9,55,numeric,0.03,0.05,target,target,1,9.165
9,56,perceptual,0.03,0.2,target,target,1,7.807
9,57,numeric,0.1,0.05,target,competitor,0,12.134
9,58,perceptual,0.03,0.05,competitor,competitor,0,3.888
9,59,numeric,0.03,0.05,target,competitor,0,8.516
9,60,numeric,0.03,0.05,target,competitor,0,5.272
9,61,numeric,0.1,0.2,target,target,1,6.611
9,62,numeric,0.1,0.2,competitor,target,1,12.814
9,63,numeric,0.03,0.2,competitor,target,1,9.199
9,64,numeric,0.03,0.05,target,target,1,9.906
9,65,numeric,0.03,0.2,competitor,competitor,0,6.368
9,66,perceptual,0.1,0.05,competitor,decoy,0,7.318
9,67,perceptual,0.1,0.05,competitor,target,1,3.864
9,68,numeric,0.03,0.2,target,competitor,0,5.815
9,69,numeric,0.1,0.2,target,target,1,6.044
9,70,perceptual,0.1,0.2,competitor,competitor,0,5.72
9,71,perceptual,0.03,0.2,target,competitor,0,3.928
9,72,numeric,0.03,0.05,competitor,target,1,11.328
9,73,numeric,0.1,0.2,target,target,1,8.429
9,74,perceptual,0.1,0.05,target,decoy,0,4.037
9,75,perceptual,0.03,0.05,competitor,target,1,4.753
9,76,perceptual,0.03,0.05,competitor,competitor,0,5.848
9,77,numeric,0.1,0.05,target,target,1,10.041
9,78,numeric,0.1,0.2,target,decoy,0,9.755
9,79,perceptual,0.03,0.2,target,competitor,0,5.495
9,80,perceptual,0.03,0.05,target,competitor,0,7.052
9,81,perceptual,0.1,0.2,target,competitor,0,3.714
9,82,perceptual,0.1,0.05,target,competitor,0,3.374
9,83,perceptual,0.1,0.2,target,target,1,2.606
9,84,perceptual,0.03,0.2,competitor,competitor,0,3.758
9,85,perceptual,0.03,0.05,competitor,target,1,6.79
9,86,numeric,0.03,0.2,competitor,competitor,0,6.341
9,87,perceptual,0.03,0.2,target,target,1,6.971
9,88,perceptual,0.1,0.05,competitor,target,1,5.49
9,89,numeric,0.1,0.2,competitor,target,1,11.29
9,90,numeric,0.03,0.2,target,target,1,8.481
9,91,perceptual,0.1,0.2,competitor,decoy,0,8.534
9,92,perceptual,0.1,0.2,target,decoy,0,6.878
9,93,perceptual,0.03,0.2,competitor,competitor,0,6.112
9,94,numeric,0.03,0.2,competitor,competitor,0,8.409
9,95,perceptual,0.1,0.2,target,target,1,5.135
9,96,numeric,0.03,0.2,target,competitor,0,9.778
9,97,perceptual,0.03,0.2,target,competitor,0,5.228
9,98,numeric,0.1,0.2,target,target,1,5.93
9,99,numeric,0.1,0.2,competitor,target,1,7.537
9,100,numeric,0.03,0.05,target,competitor,0,6.667
9,101,perceptual,0.1,0.2,competitor,competitor,0,3.863
9,102,numeric,0.1,0.2,target,target,1,6.095
9,103,perceptual,0.1,0.05,competitor,competitor,0,2.848
9,104,numeric,0.03,0.2,competitor,target,1,8.937
9,105,perceptual,0.1,0.2,competitor,target,1,4.539
9,106,perceptual,0.03,0.05,competitor,target,1,3.857
9,107,perceptual,0.1,0.05,competitor,target,1,2.964
9,108,numeric,0.03,0.2,target,target,1,7.01
9,109,perceptual,0.1,0.05,competitor,decoy,0,4.352
9,110,numeric,0.03,0.2,target,target,1,7.544
9,111,perceptual,0.1,0.05,competitor,target,1,5.678
9,112,perceptual,0.03,0.2,target,competitor,0,4.828
9,113,numeric,0.1,0.05,target,target,1,6.75
9,114,numeric,0.03,0.2,target,target,1,12.38
9,115,numeric,0.03,0.2,target,competitor,0,7.869
9,116,numeric,0.1,0.2,target,target,1,10.47
9,117,perceptual,0.03,0.05,competitor,target,1,3.774
9,118,numeric,0.03,0.05,target,target,1,10.257
9,119,numeric,0.03,0.05,target,target,1,9.415
9,120,perceptual,0.1,0.05,competitor,target,1,3.372
9,121,perceptual,0.03,0.2,competitor,decoy,0,4.279
9,122,numeric,0.1,0.05,competitor,target,1,6.43
9,123,perceptual,0.03,0.2,competitor,competitor,0,3.862
9,124,perceptual,0.1,0.2,target,target,1,6.902
9,125,numeric,0.03,0.2,competitor,target,1,9.089
9,126,numeric,0.03,0.2,target,target,1,13.164
9,127,perceptual,0.1,0.05,competitor,competitor,0,3.94
9,128,perceptual,0.03,0.2,competitor,decoy,0,4.352
9,129,perceptual,0.03,0.05,target,decoy,0,6.269
9,130,perceptual,0.03,0.2,target,competitor,0,5.291
9,131,numeric,0.03,0.05,competitor,competitor,0,7.804
9,132,numeric,0.03,0.05,competitor,target,1,7.492
9,133,numeric,0.03,0.05,competitor,competitor,0,9.538
9,134,perceptual,0.03,0.05,target,competitor,0,6.484
9,135,numeric,0.03,0.05,target,target,1,6.346
9,136,perceptual,0.1,0.05,competitor,target,1,3.921
9,137,numeric,0.1,0.05,target,competitor,0,6.248
9,138,perceptual,0.1,0.05,target,target,1,3.214
9,139,perceptual,0.03,0.05,competitor,decoy,0,6.15
9,140,perceptual,0.03,0.2,competitor,target,1,3.64
9,141,numeric,0.03,0.05,target,target,1,9.521
9,142,perceptual,0.1,0.2,target,competitor,0,3.54
9,143,perceptual,0.1,0.2,competitor,target,1,4.602
9,144,numeric,0.1,0.05,competitor,target,1,6.973
9,145,numeric,0.1,0.05,competitor,target,1,5.469
9,146,perceptual,0.03,0.05,competitor,target,1,2.866
9,147,numeric,0.1,0.2,target,target,1,5.746
9,148,perceptual,0.1,0.05,target,decoy,0,2.871
9,149,perceptual,0.03,0.2,competitor,decoy,0,5.2
9,150,perceptual,0.03,0.05,target,decoy,0,4.585
9,151,perceptual,0.03,0.2,target,competitor,0,3.207
9,152,numeric,0.1,0.2,competitor,competitor,0,7.695
9,153,numeric,0.03,0.05,competitor,competitor,0,19.371
9,154,numeric,0.1,0.05,target,target,1,9.808
9,155,perceptual,0.03,0.05,target,competitor,0,0.478
9,156,numeric,0.1,0.2,competitor,target,1,10.843
9,157,perceptual,0.03,0.05,target,target,1,3.005
9,158,numeric,0.03,0.05,competitor,target,1,9.135
9,159,numeric,0.1,0.05,target,target,1,12.626
9,160,numeric,0.03,0.2,competitor,target,1,8.642
9,161,numeric,0.03,0.2,competitor,competitor,0,7.053
9,162,perceptual,0.1,0.05,target,target,1,4.407
9,163,perceptual,0.1,0.05,target,competitor,0,6.858
9,164,numeric,0.03,0.2,competitor,competitor,0,8.287
9,165,perceptual,0.03,0.05,competitor,competitor,0,4.208
9,166,perceptual,0.03,0.2,competitor,target,1,5.636
9,167,perceptual,0.03,0.05,target,competitor,0,4.801
9,168,numeric,0.03,0.05,competitor,competitor,0,10.905
9,169,numeric,0.1,0.05,competitor,target,1,11.098
9,170,perceptual,0.1,0.2,competitor,target,1,3.434
9,171,perceptual,0.1,0.05,target,target,1,4.076
9,172,perceptual,0.1,0.2,target,decoy,0,4.764
9,173,numeric,0.03,0.05,competitor,competitor,0,6.946
9,174,numeric,0.03,0.05,target,competitor,0,7.744
9,175,numeric,0.1,0.05,target,competitor,0,11.119
9,176,perceptual,0.1,0.05,target,competitor,0,2.688
9,177,perceptual,0.03,0.05,target,competitor,0,2.904
9,178,numeric,0.1,0.05,competitor,target,1,4.737
9,179,numeric,0.1,0.05,competitor,competitor,0,8.899
9,180,numeric,0.03,0.2,target,target,1,6.483
9,181,perceptual,0.1,0.2,target,decoy,0,4.406
9,182,perceptual,0.1,0.2,competitor,target,1,3.69
9,183,perceptual,0.1,0.05,competitor,competitor,0,8.417
9,184,numeric,0.03,0.05,target,target,1,8.434
9,185,numeric,0.1,0.05,competitor,competitor,0,10.105
9,186,perceptual,0.1,0.05,target,target,1,7.197
9,187,numeric,0.1,0.2,target,competitor,0,13.999
9,188,numeric,0.03,0.2,target,target,1,8.345
9,189,numeric,0.03,0.05,target,target,1,10.336
9,190,numeric,0.1,0.2,competitor,competitor,0,9.489
9,191,numeric,0.1,0.05,target,target,1,10.112
9,192,perceptual,0.03,0.05,target,decoy,0,5.17
10,1,numeric,0.03,0.2,target,competitor,0,9.33
10,2,numeric,0.1,0.05,target,competitor,0,9.15
10,3,numeric,0.03,0.05,competitor,target,1,8.733
10,4,perceptual,0.03,0.2,competitor,target,1,5.217
10,5,numeric,0.03,0.05,target,competitor,0,9.317
10,6,numeric,0.1,0.05,competitor,target,1,9.224
10,7,perceptual,0.03,0.2,target,decoy,0,7.225
10,8,numeric,0.03,0.05,competitor,target,1,5.95
10,9,numeric,0.03,0.05,competitor,target,1,8.534
10,10,perceptual,0.1,0.2,competitor,decoy,0,4.43
10,11,numeric,0.03,0.2,competitor,target,1,12.343
10,12,perceptual,0.1,0.2,competitor,decoy,0,7.916
10,13,numeric,0.1,0.2,competitor,target,1,8.528
10,14,numeric,0.03,0.05,target,target,1,6.639
10,15,perceptual,0.03,0.05,competitor,competitor,0,6.349
10,16,perceptual,0.03,0.05,competitor,decoy,0,6.916
10,17,numeric,0.1,0.2,competitor,target,1,5.865
10,18,numeric,0.1,0.2,target,competitor,0,5.583
10,19,perceptual,0.1,0.05,target,decoy,0,8.184
10,20,numeric,0.1,0.2,target,target,1,5.132
10,21,numeric,0.1,0.05,target,target,1,7.675
10,22,numeric,0.03,0.05,target,target,1,9.262
10,23,perceptual,0.03,0.2,target,competitor,0,6.281
10,24,numeric,0.1,0.05,target,target,1,9.558
10,25,perceptual,0.1,0.05,target,target,1,7.343
10,26,perceptual,0.03,0.05,target,decoy,0,4.738
10,27,numeric,0.03,0.2,competitor,target,1,12.112
10,28,numeric,0.03,0.05,competitor,target,1,6.248
10,29,numeric,0.1,0.05,competitor,competitor,0,3.688
10,30,numeric,0.03,0.05,competitor,competitor,0,6.091
10,31,numeric,0.1,0.2,target,target,1,5.934
10,32,numeric,0.03,0.2,competitor,competitor,0,4.308
10,33,perceptual,0.03,0.05,competitor,target,1,5.269
10,34,perceptual,0.03,0.05,target,target,1,5.622
10,35,perceptual,0.1,0.2,target,competitor,0,4.497
10,36,perceptual,0.03,0.05,competitor,target,1,9.502
10,37,numeric,0.03,0.05,competitor,decoy,0,7.784
10,38,numeric,0.03,0.05,target,target,1,5.588
10,39,perceptual,0.03,0.2,target,decoy,0,9.041
10,40,perceptual,0.03,0.05,target,competitor,0,6.633
10,41,perceptual,0.03,0.2,target,competitor,0,6.493
10,42,perceptual,0.03,0.05,target,target,1,3.971
10,43,perceptual,0.03,0.2,target,decoy,0,4.957
10,44,perceptual,0.1,0.2,target,competitor,0,5.657
10,45,perceptual,0.03,0.2,competitor,decoy,0,4.948
10,46,numeric,0.03,0.05,target,competitor,0,9.367
10,47,numeric,0.1,0.05,competitor,competitor,0,9.651
10,48,numeric,0.1,0.2,competitor,target,1,10.953
10,49,perceptual,0.1,0.2,target,decoy,0,6.605
10,50,perceptual,0.03,0.05,competitor,competitor,0,10.518
10,51,perceptual,0.1,0.2,competitor,target,1,7.966
10,52,numeric,0.1,0.2,competitor,target,1,14.444
10,53,perceptual,0.03,0.05,competitor,competitor,0,5.449
10,54,perceptual,0.03,0.05,target,target,1,5.993
10,55,perceptual,0.1,0.2,competitor,competitor,0,4.053
10,56,perceptual,0.03,0.05,competitor,decoy,0,5.877
10,57,perceptual,0.1,0.05,competitor,decoy,0,3.147
10,58,numeric,0.1,0.05,competitor,target,1,5.521
10,59,numeric,0.03,0.2,target,target,1,8.132
10,60,numeric,0.1,0.2,target,decoy,0,4.81
10,61,perceptual,0.1,0.2,target,competitor,0,6.061
10,62,perceptual,0.1,0.05,competitor,target,1,5.659
10,63,numeric,0.03,0.2,competitor,competitor,0,7.083
10,64,perceptual,0.03,0.05,target,competitor,0,6.21
10,65,perceptual,0.1,0.05,competitor,competitor,0,3.741
10,66,numeric,0.03,0.2,competitor,competitor,0,6.45
10,67,numeric,0.1,0.2,competitor,target,1,7.539
10,68,numeric,0.1,0.05,competitor,target,1,5.599
10,69,numeric,0.03,0.2,competitor,target,1,5.149
10,70,perceptual,0.1,0.05,competitor,target,1,4.659
10,71,numeric,0.1,0.2,target,target,1,7.384
10,72,perceptual,0.03,0.05,competitor,decoy,0,3.035
10,73,numeric,0.03,0.2,competitor,target,1,6.466
10,74,perceptual,0.03,0.05,target,competitor,0,4.772
10,75,perceptual,0.1,0.2,target,decoy,0,5.623
10,76,perceptual,0.03,0.05,competitor,target,1,5.599
10,77,numeric,0.03,0.05,competitor,decoy,0,9.24
10,78,perceptual,0.03,0.05,target,target,1,3.515
10,79,numeric,0.03,0.2,competitor,target,1,5.948
10,80,numeric,0.03,0.2,competitor,competitor,0,6.509
10,81,perceptual,0.1,0.05,competitor,target,1,4.198
10,82,numeric,0.1,0.05,competitor,target,1,4.951
10,83,numeric,0.03,0.2,target,competitor,0,5.062
10,84,perceptual,0.1,0.05,competitor,target,1,3.688
10,85,numeric,0.1,0.2,target,competitor,0,3.926
10,86,perceptual,0.03,0.2,competitor,competitor,0,2.988
10,87,numeric,0.1,0.05,target,target,1,5.009
10,88,numeric,0.03,0.2,target,target,1,4.808
10,89,perceptual,0.1,0.2,target,target,1,3.325
10,90,perceptual,0.1,0.05,competitor,decoy,0,3.422
10,91,perceptual,0.1,0.2,target,competitor,0,3.526
10,92,numeric,0.1,0.2,competitor,target,1,6.95
10,93,perceptual,0.03,0.2,target,competitor,0,3.606
10,94,perceptual,0.1,0.05,competitor,competitor,0,3.08
10,95,perceptual,0.1,0.05,target,decoy,0,4.631
10,96,numeric,0.1,0.05,target,target,1,6.41
10,97,numeric,0.1,0.2,target,target,1,4.768
10,98,numeric,0.1,0.05,target,competitor,0,4.897
10,99,numeric,0.03,0.05,competitor,competitor,0,6.931
10,100,numeric,0.1,0.2,competitor,target,1,4.525
10,101,numeric,0.03,0.05,target,competitor,0,3.789
10,102,perceptual,0.1,0.2,competitor,target,1,5.215
10,103,perceptual,0.1,0.2,target,decoy,0,4.825
10,104,numeric,0.1,0.2,competitor,competitor,0,6.347
10,105,numeric,0.1,0.05,competitor,target,1,4.855
10,106,numeric,0.1,0.2,competitor,target,1,3.876
10,107,perceptual,0.03,0.2,target,decoy,0,3.278
10,108,numeric,0.03,0.05,competitor,competitor,0,7.069
10,109,perceptual,0.03,0.2,competitor,target,1,6.054
10,110,perceptual,0.03,0.05,target,target,1,3.864
10,111,numeric,0.03,0.2,target,target,1,5.943
10,112,numeric,0.1,0.05,competitor,target,1,4.466
10,113,perceptual,0.1,0.2,competitor,competitor,0,8.119
10,114,numeric,0.1,0.05,competitor,competitor,0,5.192
10,115,numeric,0.1,0.05,competitor,competitor,0,3.999
10,116,numeric,0.1,0.05,target,target,1,6.83
10,117,numeric,0.03,0.05,competitor,target,1,4.5
10,118,numeric,0.1,0.2,target,target,1,5.673
10,119,perceptual,0.1,0.05,target,decoy,0,3.41
10,120,perceptual,0.1,0.2,competitor,target,1,2.62
10,121,perceptual,0.1,0.2,target,competitor,0,4.559
10,122,numeric,0.1,0.2,target,competitor,0,7.733
10,123,perceptual,0.03,0.05,competitor,competitor,0,3.398
10,124,numeric,0.1,0.05,competitor,competitor,0,4.732
10,125,numeric,0.03,0.2,competitor,competitor,0,4.805
10,126,perceptual,0.03,0.05,competitor,decoy,0,3.248
10,127,perceptual,0.03,0.2,target,target,1,4.092
10,128,perceptual,0.1,0.2,target,competitor,0,3.471
10,129,numeric,0.1,0.05,target,target,1,4.938
10,130,perceptual,0.1,0.05,target,competitor,0,6.1
10,131,perceptual,0.1,0.05,target,target,1,7.475
10,132,perceptual,0.03,0.2,target,competitor,0,5.738
10,133,numeric,0.03,0.05,target,competitor,0,5.333
10,134,numeric,0.03,0.05,target,target,1,5.143
10,135,perceptual,0.1,0.05,competitor,decoy,0,6.222
10,136,numeric,0.1,0.2,competitor,target,1,6.874
10,137,perceptual,0.1,0.05,target,competitor,0,6.241
10,138,numeric,0.03,0.05,target,target,1,5.864
10,139,numeric,0.1,0.05,target,target,1,4.582
10,140,perceptual,0.1,0.2,competitor,target,1,5.211
10,141,perceptual,0.1,0.05,target,decoy,0,3.432
10,142,numeric,0.03,0.05,competitor,decoy,0,5.706
10,143,numeric,0.1,0.05,target,competitor,0,4.93
10,144,numeric,0.03,0.2,target,competitor,0,6.724
10,145,numeric,0.1,0.2,target,competitor,0,5.033
10,146,perceptual,0.1,0.05,target,competitor,0,4.526
10,147,numeric,0.03,0.2,target,target,1,8.308
10,148,numeric,0.1,0.2,target,competitor,0,4.126
10,149,numeric,0.03,0.2,target,target,1,6.82
10,150,perceptual,0.03,0.05,target,competitor,0,2.981
10,151,perceptual,0.1,0.05,competitor,competitor,0,2.351
10,152,numeric,0.03,0.05,target,decoy,0,5.364
10,153,numeric,0.03,0.2,competitor,target,1,4.842
10,154,perceptual,0.1,0.05,target,target,1,2.746
10,155,perceptual,0.1,0.2,competitor,target,1,2.937
10,156,perceptual,0.03,0.2,competitor,decoy,0,3.977
10,157,perceptual,0.03,0.2,competitor,target,1,3.079
10,158,perceptual,0.03,0.2,target,competitor,0,2.853
10,159,perceptual,0.1,0.2,competitor,target,1,2.863
10,160,numeric,0.03,0.2,target,target,1,5.156
10,161,numeric,0.1,0.2,competitor,target,1,4.817
10,162,perceptual,0.03,0.05,competitor,decoy,0,4.497
10,163,perceptual,0.03,0.2,target,decoy,0,4.238
10,164,perceptual,0.1,0.2,target,target,1,3.815
10,165,perceptual,0.1,0.05,target,target,1,2.144
10,166,perceptual,0.1,0.2,target,decoy,0,3.881
10,167,numeric,0.03,0.05,target,target,1,4.052
10,168,numeric,0.03,0.2,competitor,competitor,0,3.743
10,169,numeric,0.1,0.2,target,competitor,0,4.798
10,170,perceptual,0.03,0.05,target,competitor,0,4.883
10,171,numeric,0.1,0.2,competitor,target,1,4.081
10,172,perceptual,0.03,0.2,competitor,decoy,0,3.603
10,173,numeric,0.03,0.2,target,target,1,6.716
10,174,numeric,0.03,0.05,target,competitor,0,6.499
10,175,numeric,0.03,0.05,competitor,target,1,6.409
10,176,perceptual,0.03,0.2,competitor,competitor,0,2.687
10,177,numeric,0.03,0.2,target,competitor,0,9.324
10,178,perceptual,0.1,0.05,competitor,decoy,0,3.822
10,179,perceptual,0.1,0.05,target,target,1,2.691
10,180,numeric,0.03,0.2,target,target,1,7.806
10,181,perceptual,0.03,0.2,competitor,competitor,0,2.781
10,182,perceptual,0.1,0.2,competitor,target,1,2.789
10,183,numeric,0.1,0.05,target,target,1,2.992
10,184,perceptual,0.1,0.05,competitor,target,1,2.927
10,185,perceptual,0.03,0.2,target,competitor,0,2.365
10,186,perceptual,0.03,0.2,competitor,target,1,4.414
10,187,perceptual,0.03,0.2,competitor,target,1,3.524
10,188,perceptual,0.03,0.2,competitor,decoy,0,5.23
10,189,perceptual,0.03,0.05,target,competitor,0,4.581
10,190,numeric,0.1,0.05,target,target,1,4.083
10,191,numeric,0.1,0.05,competitor,target,1,4.788
10,192,perceptual,0.1,0.2,competitor,decoy,0,3.239
11,1,perceptual,0.1,0.05,competitor,competitor,0,8.192
11,2,numeric,0.03,0.2,target,target,1,7.961
11,3,perceptual,0.1,0.05,target,decoy,0,4.555
11,4,perceptual,0.03,0.05,target,target,1,6.876
11,5,perceptual,0.1,0.05,target,target,1,4.967
11,6,perceptual,0.03,0.05,competitor,decoy,0,4.981
11,7,numeric,0.1,0.2,competitor,competitor,0,9.484
11,8,perceptual,0.03,0.05,competitor,target,1,6.649
11,9,perceptual,0.1,0.2,target,target,1,3.687
11,10,perceptual,0.1,0.2,target,target,1,5.258
11,11,perceptual,0.1,0.05,target,decoy,0,5.081
11,12,perceptual,0.1,0.05,competitor,decoy,0,4.074
11,13,perceptual,0.1,0.2,target,competitor,0,4.509
11,14,numeric,0.03,0.05,target,target,1,8.826
11,15,perceptual,0.03,0.05,target,decoy,0,6.653
11,16,numeric,0.1,0.2,target,target,1,6.523
11,17,perceptual,0.1,0.05,target,decoy,0,4.135
11,18,numeric,0.03,0.05,competitor,competitor,0,10.007
11,19,perceptual,0.03,0.05,competitor,target,1,7.846
11,20,perceptual,0.1,0.05,target,target,1,7.36
11,21,perceptual,0.1,0.05,target,competitor,0,5.031
11,22,numeric,0.1,0.2,competitor,target,1,8.544
11,23,perceptual,0.1,0.2,target,target,1,4.52
11,24,perceptual,0.1,0.2,target,competitor,0,5.189
11,25,numeric,0.03,0.05,competitor,competitor,0,17.614
11,26,perceptual,0.03,0.05,competitor,target,1,7.33
11,27,perceptual,0.03,0.05,target,target,1,3.945
11,28,numeric,0.1,0.2,competitor,target,1,10.477
11,29,perceptual,0.1,0.05,target,target,1,4.862
11,30,numeric,0.1,0.2,competitor,target,1,7.451
11,31,numeric,0.03,0.05,competitor,target,1,7.762
11,32,numeric,0.03,0.2,target,competitor,0,10.778
11,33,numeric,0.1,0.05,competitor,target,1,7.46
11,34,perceptual,0.1,0.2,competitor,competitor,0,6.502
11,35,numeric,0.03,0.05,target,target,1,7.526
11,36,numeric,0.1,0.05,target,target,1,13.18
11,37,perceptual,0.03,0.2,competitor,competitor,0,8.888
11,38,perceptual,0.1,0.2,competitor,competitor,0,5.996
11,39,numeric,0.03,0.2,competitor,target,1,12.153
11,40,perceptual,0.03,0.05,target,decoy,0,3.689
11,41,perceptual,0.1,0.05,competitor,decoy,0,6.961
11,42,numeric,0.1,0.2,target,target,1,6.062
11,43,perceptual,0.03,0.05,competitor,competitor,0,4.309
11,44,numeric,0.1,0.05,competitor,target,1,8.154
11,45,numeric,0.1,0.05,target,target,1,9.817
11,46,numeric,0.03,0.05,target,competitor,0,14.11
11,47,perceptual,0.03,0.05,competitor,target,1,4.362
11,48,numeric,0.03,0.2,competitor,competitor,0,9.931
11,49,perceptual,0.1,0.2,target,competitor,0,6.757
11,50,perceptual,0.03,0.2,competitor,target,1,4.935
11,51,numeric,0.1,0.05,competitor,target,1,7.912
11,52,numeric,0.03,0.2,competitor,competitor,0,14.655
11,53,numeric,0.03,0.2,target,target,1,6.374
11,54,perceptual,0.03,0.2,competitor,competitor,0,4.312
11,55,numeric,0.03,0.2,competitor,target,1,11.392
11,56,numeric,0.03,0.05,competitor,competitor,0,7.001
11,57,numeric,0.1,0.05,target,target,1,17.241
11,58,perceptual,0.1,0.05,target,competitor,0,5.96
11,59,perceptual,0.1,0.2,competitor,target,1,3.586
11,60,numeric,0.1,0.2,target,target,1,17.518
11,61,perceptual,0.03,0.05,competitor,target,1,5.04
11,62,numeric,0.03,0.2,target,target,1,12.144
11,63,perceptual,0.03,0.05,target,competitor,0,6.103
11,64,perceptual,0.03,0.2,competitor,target,1,4.373
11,65,perceptual,0.03,0.05,target,decoy,0,4.587
11,66,perceptual,0.1,0.05,target,decoy,0,3.751
11,67,numeric,0.03,0.05,competitor,target,1,4.639
11,68,perceptual,0.1,0.2,target,competitor,0,3.725
11,69,numeric,0.03,0.05,competitor,target,1,13.446
11,70,numeric,0.1,0.2,target,target,1,7.416
11,71,numeric,0.1,0.05,competitor,competitor,0,11.24
11,72,perceptual,0.03,0.2,target,competitor,0,4.512
11,73,numeric,0.03,0.2,competitor,target,1,6.856
11,74,perceptual,0.1,0.2,competitor,target,1,7.22
11,75,perceptual,0.1,0.2,target,target,1,4.634
11,76,perceptual,0.03,0.2,target,target,1,3.286
11,77,perceptual,0.1,0.2,competitor,competitor,0,6.495
11,78,numeric,0.03,0.2,target,competitor,0,5.353
11,79,perceptual,0.03,0.2,target,target,1,16.503
11,80,numeric,0.03,0.05,target,target,1,10.699
11,81,perceptual,0.1,0.2,target,competitor,0,4.114
11,82,perceptual,0.1,0.2,target,competitor,0,6.592
11,83,numeric,0.1,0.05,competitor,competitor,0,9.291
11,84,perceptual,0.03,0.2,target,decoy,0,6.538
11,85,perceptual,0.1,0.05,competitor,decoy,0,6.015
11,86,numeric,0.03,0.2,competitor,target,1,10.175
11,87,numeric,0.03,0.2,target,target,1,8.181
11,88,perceptual,0.1,0.2,competitor,target,1,5.461
11,89,numeric,0.1,0.05,target,target,1,6.606
11,90,numeric,0.1,0.2,competitor,target,1,11.908
11,91,numeric,0.03,0.05,competitor,competitor,0,8.703
11,92,perceptual,0.03,0.05,target,competitor,0,4.542
11,93,numeric,0.03,0.2,target,target,1,6.27
11,94,numeric,0.1,0.2,target,target,1,14.2
11,95,numeric,0.1,0.05,competitor,target,1,6.757
11,96,numeric,0.1,0.05,target,target,1,6.357
11,97,perceptual,0.03,0.05,competitor,competitor,0,6.727
11,98,numeric,0.03,0.05,target,target,1,7.225
11,99,numeric,0.03,0.2,competitor,competitor,0,5.664
11,100,numeric,0.1,0.05,target,target,1,14.498
11,101,numeric,0.03,0.05,target,target,1,7.369
11,102,perceptual,0.03,0.2,target,target,1,4.019
11,103,perceptual,0.03,0.2,competitor,competitor,0,5.04
11,104,numeric,0.1,0.05,target,target,1,6.426
11,105,perceptual,0.03,0.2,target,competitor,0,3.889
11,106,numeric,0.03,0.05,competitor,competitor,0,9.921
11,107,numeric,0.1,0.2,target,target,1,10.93
11,108,perceptual,0.1,0.05,competitor,decoy,0,5.238
11,109,perceptual,0.03,0.05,target,decoy,0,5.791
11,110,perceptual,0.1,0.2,competitor,decoy,0,5.524
11,111,numeric,0.03,0.2,target,target,1,7.869
11,112,numeric,0.03,0.2,competitor,target,1,6.524
11,113,perceptual,0.1,0.05,competitor,target,1,9.53
11,114,perceptual,0.1,0.2,competitor,decoy,0,6.169
11,115,numeric,0.03,0.05,target,target,1,6.44
11,116,perceptual,0.03,0.05,competitor,target,1,6.574
11,117,numeric,0.03,0.2,competitor,competitor,0,11.061
11,118,perceptual,0.03,0.2,target,competitor,0,3.488
11,119,numeric,0.1,0.2,target,target,1,10.502
11,120,numeric,0.1,0.05,competitor,target,1,8.048
11,121,numeric,0.1,0.2,competitor,competitor,0,14.122
11,122,numeric,0.1,0.05,competitor,target,1,6.53
11,123,numeric,0.1,0.2,competitor,competitor,0,10.139
