participant,trial_counter,condition,target_to_competitor,decoy_reduction,decoy_on,chosen_item,correct,rt
1,1,perceptual,0.1,0.05,competitor,target,1,11.289
1,3,numeric,0.03,0.05,target,target,1,0.185
1,4,perceptual,0.1,0.05,target,target,1,6.052
1,5,numeric,0.03,0.05,target,competitor,0,4.371
1,6,perceptual,0.1,0.2,target,competitor,0,4.804
1,7,perceptual,0.1,0.05,competitor,target,1,3.256
1,8,numeric,0.1,0.05,competitor,target,1,13.249
1,9,numeric,0.03,0.05,competitor,competitor,0,14.071
1,10,numeric,0.1,0.05,target,competitor,0,11.951
1,11,perceptual,0.03,0.05,competitor,target,1,3.126
1,12,numeric,0.03,0.2,competitor,target,1,4.292
1,13,numeric,0.1,0.05,target,target,1,11.358
1,14,numeric,0.03,0.2,target,competitor,0,4.244
1,15,perceptual,0.1,0.05,competitor,target,1,4.562
1,16,perceptual,0.03,0.05,target,target,1,8.365
1,17,numeric,0.1,0.2,competitor,target,1,4.651
1,18,numeric,0.1,0.2,target,target,1,9.7
1,19,numeric,0.03,0.05,target,target,1,15.198
1,21,perceptual,0.1,0.2,competitor,decoy,0,0.325
1,22,perceptual,0.03,0.05,competitor,target,1,3.57
1,23,perceptual,0.1,0.2,target,target,1,4.514
1,24,perceptual,0.1,0.2,competitor,target,1,3.254
1,25,numeric,0.1,0.2,competitor,target,1,6.229
1,26,numeric,0.1,0.2,competitor,target,1,8.313
1,27,perceptual,0.03,0.2,competitor,target,1,10.242
1,28,perceptual,0.1,0.2,target,target,1,4.021
1,29,perceptual,0.03,0.2,target,competitor,0,6.401
1,30,perceptual,0.03,0.2,competitor,target,1,4.824
1,31,perceptual,0.1,0.05,competitor,target,1,4.664
1,32,numeric,0.03,0.2,competitor,competitor,0,12.658
1,33,perceptual,0.1,0.05,target,target,1,9.025
1,34,numeric,0.1,0.2,target,target,1,8.509
1,35,perceptual,0.03,0.2,target,target,1,3.497
1,36,perceptual,0.1,0.05,target,target,1,6.848
1,37,perceptual,0.03,0.05,target,competitor,0,6.119
1,38,perceptual,0.03,0.2,competitor,competitor,0,14.3
1,39,perceptual,0.1,0.2,competitor,target,1,7.37
1,40,numeric,0.1,0.05,competitor,target,1,11.432
1,41,numeric,0.1,0.2,competitor,target,1,8.493
1,42,numeric,0.1,0.05,competitor,decoy,0,11.369
1,43,perceptual,0.03,0.05,target,competitor,0,6.469
1,44,perceptual,0.03,0.05,target,target,1,9.889
1,45,perceptual,0.1,0.05,competitor,target,1,8.994
1,46,perceptual,0.03,0.2,competitor,competitor,0,10.048
1,47,numeric,0.1,0.2,competitor,competitor,0,11.476
1,48,perceptual,0.1,0.2,target,target,1,3.212
1,49,numeric,0.03,0.2,target,competitor,0,5.776
1,50,numeric,0.03,0.05,target,target,1,10.129
1,51,perceptual,0.1,0.05,competitor,target,1,5.114
1,52,numeric,0.03,0.2,target,target,1,5.353
1,53,perceptual,0.1,0.05,target,target,1,3.064
1,54,perceptual,0.1,0.05,target,target,1,2.235
1,55,numeric,0.03,0.2,target,target,1,12.102
1,56,perceptual,0.03,0.05,target,competitor,0,3.905
1,57,numeric,0.03,0.2,competitor,competitor,0,14.573
1,58,numeric,0.03,0.05,competitor,competitor,0,17.555
1,59,numeric,0.1,0.05,competitor,target,1,7.748
1,60,numeric,0.1,0.05,target,competitor,0,6.018
1,61,numeric,0.1,0.2,target,competitor,0,6.683
1,62,numeric,0.03,0.2,competitor,competitor,0,10.466
1,63,perceptual,0.03,0.2,competitor,target,1,7.803
1,64,numeric,0.03,0.2,target,target,1,4.638
1,65,perceptual,0.03,0.05,competitor,competitor,0,7.204
1,66,perceptual,0.03,0.2,competitor,competitor,0,6.634
1,67,perceptual,0.03,0.2,competitor,target,1,2.538
1,68,numeric,0.1,0.2,competitor,competitor,0,9.292
1,69,numeric,0.03,0.2,competitor,target,1,3.688
1,70,perceptual,0.1,0.2,competitor,decoy,0,2.318
1,71,numeric,0.03,0.2,target,target,1,2.76
1,72,numeric,0.1,0.2,target,target,1,2.121
1,73,numeric,0.03,0.05,competitor,competitor,0,4.321
1,74,numeric,0.03,0.2,competitor,target,1,2.009
1,75,perceptual,0.03,0.2,target,competitor,0,2
1,76,numeric,0.1,0.05,target,decoy,0,2.196
1,77,perceptual,0.1,0.05,competitor,decoy,0,2.397
1,78,perceptual,0.1,0.2,competitor,target,1,2.722
1,79,perceptual,0.03,0.05,target,decoy,0,2
1,80,perceptual,0.1,0.2,target,target,1,2.224
1,81,perceptual,0.03,0.05,competitor,target,1,2.1
1,82,numeric,0.1,0.05,target,target,1,2.567
1,83,perceptual,0.1,0.2,target,target,1,2.657
1,84,numeric,0.03,0.05,competitor,target,1,1.989
1,85,perceptual,0.1,0.05,target,target,1,3.366
1,86,numeric,0.03,0.05,competitor,decoy,0,2.518
1,87,numeric,0.1,0.05,competitor,competitor,0,2.349
1,88,perceptual,0.03,0.2,target,target,1,2.739
1,89,numeric,0.1,0.05,competitor,decoy,0,1.821
1,90,perceptual,0.03,0.05,target,competitor,0,1.612
1,91,numeric,0.1,0.2,competitor,decoy,0,1.431
1,92,numeric,0.1,0.05,competitor,decoy,0,1.442
1,93,perceptual,0.03,0.05,competitor,competitor,0,1.653
1,94,numeric,0.03,0.05,competitor,decoy,0,1.689
1,95,perceptual,0.1,0.2,competitor,target,1,2.136
1,96,perceptual,0.03,0.2,target,target,1,1.889
1,97,numeric,0.03,0.05,target,decoy,0,1.511
1,98,perceptual,0.1,0.05,target,competitor,0,1.37
1,99,perceptual,0.03,0.05,target,competitor,0,1.449
1,100,perceptual,0.1,0.2,competitor,target,1,1.693
1,101,numeric,0.03,0.05,target,competitor,0,2.069
1,102,numeric,0.1,0.05,competitor,target,1,2.308
1,103,numeric,0.03,0.2,competitor,target,1,5.397
1,104,numeric,0.03,0.2,target,target,1,2.064
1,105,numeric,0.1,0.2,competitor,target,1,2.082
1,106,perceptual,0.1,0.05,competitor,target,1,2.236
1,107,numeric,0.1,0.2,target,target,1,3.399
1,108,numeric,0.1,0.05,target,target,1,5.421
1,109,perceptual,0.03,0.05,competitor,decoy,0,6.374
1,110,perceptual,0.03,0.2,competitor,competitor,0,10.795
1,111,numeric,0.03,0.05,target,decoy,0,3.423
1,112,numeric,0.1,0.2,target,decoy,0,2.027
1,113,perceptual,0.03,0.05,target,target,1,3.055
1,114,numeric,0.1,0.2,target,target,1,2.429
1,115,numeric,0.03,0.2,target,target,1,2.313
1,116,perceptual,0.1,0.2,competitor,target,1,2.199
1,117,perceptual,0.1,0.05,target,competitor,0,5.469
1,118,perceptual,0.03,0.2,competitor,competitor,0,3.721
1,119,perceptual,0.03,0.2,target,target,1,1.8
1,120,numeric,0.03,0.2,target,decoy,0,2.612
1,121,numeric,0.03,0.05,target,decoy,0,2.574
1,122,perceptual,0.1,0.2,target,decoy,0,1.807
1,123,numeric,0.03,0.05,competitor,target,1,2.57
1,124,perceptual,0.1,0.2,target,target,1,2.211
1,125,perceptual,0.1,0.05,target,target,1,2.147
1,126,numeric,0.1,0.2,target,competitor,0,3.223
1,127,perceptual,0.1,0.2,competitor,target,1,2.883
1,128,numeric,0.1,0.2,competitor,competitor,0,3.762
1,129,numeric,0.1,0.2,target,target,1,3.83
1,130,numeric,0.1,0.2,competitor,competitor,0,1.766
1,131,numeric,0.03,0.05,competitor,competitor,0,1.956
1,132,numeric,0.1,0.05,target,target,1,2.399
1,133,perceptual,0.03,0.2,target,competitor,0,3.383
1,134,numeric,0.1,0.05,target,decoy,0,2.252
1,135,perceptual,0.1,0.05,competitor,competitor,0,2.499
1,136,numeric,0.1,0.2,competitor,competitor,0,2.168
1,137,numeric,0.03,0.2,competitor,decoy,0,2.507
1,138,perceptual,0.03,0.05,competitor,target,1,1.854
1,139,numeric,0.1,0.05,target,target,1,1.614
1,140,perceptual,0.03,0.2,target,target,1,1.944
1,141,numeric,0.1,0.2,target,target,1,2.209
1,142,numeric,0.1,0.2,target,target,1,4.343
1,143,perceptual,0.03,0.05,target,target,1,2.258
1,144,perceptual,0.03,0.05,competitor,target,1,2.284
1,145,perceptual,0.03,0.05,competitor,target,1,4.032
1,146,perceptual,0.03,0.2,competitor,target,1,3.153
1,147,perceptual,0.03,0.05,target,target,1,7.99
1,148,numeric,0.1,0.05,target,target,1,2.833
1,149,numeric,0.03,0.05,competitor,competitor,0,2.858
1,150,perceptual,0.1,0.2,target,target,1,2.672
1,151,numeric,0.03,0.05,competitor,competitor,0,11.398
1,152,perceptual,0.1,0.2,competitor,target,1,4.144
1,153,perceptual,0.1,0.05,competitor,target,1,4.286
1,154,numeric,0.03,0.2,target,decoy,0,7.097
1,155,numeric,0.03,0.2,target,competitor,0,0.309
1,156,numeric,0.03,0.05,target,target,1,6.944
1,157,perceptual,0.03,0.05,competitor,competitor,0,3.166
1,158,perceptual,0.1,0.05,competitor,target,1,3.29
1,159,perceptual,0.1,0.2,target,decoy,0,3.8
1,160,numeric,0.03,0.2,competitor,target,1,5.702
1,161,perceptual,0.1,0.2,competitor,target,1,2.26
1,162,numeric,0.03,0.2,competitor,competitor,0,6.478
1,163,perceptual,0.03,0.2,target,target,1,3.207
1,164,perceptual,0.1,0.2,target,target,1,3.301
1,165,numeric,0.03,0.05,target,target,1,3.973
1,166,perceptual,0.03,0.2,competitor,target,1,4.213
1,167,numeric,0.03,0.2,target,competitor,0,3.924
1,168,numeric,0.1,0.2,competitor,competitor,0,3.334
1,169,perceptual,0.03,0.05,target,decoy,0,4.748
1,170,numeric,0.1,0.05,competitor,competitor,0,2.485
1,171,perceptual,0.1,0.05,target,target,1,6.273
1,172,numeric,0.1,0.2,target,target,1,2.02
1,173,perceptual,0.03,0.2,target,target,1,2.146
1,174,perceptual,0.1,0.05,target,competitor,0,1.723
1,175,perceptual,0.03,0.05,competitor,competitor,0,2.625
1,176,perceptual,0.03,0.05,competitor,target,1,3.064
1,177,numeric,0.1,0.05,competitor,target,1,3.212
1,178,numeric,0.1,0.05,target,target,1,1.83
1,179,numeric,0.03,0.2,competitor,target,1,2.16
1,180,numeric,0.03,0.05,competitor,target,1,2.193
1,182,perceptual,0.03,0.2,target,target,1,2.154
1,183,perceptual,0.1,0.2,target,target,1,4.403
1,184,perceptual,0.03,0.2,target,target,1,15.243
1,185,numeric,0.1,0.05,competitor,decoy,0,9.457
1,186,perceptual,0.1,0.05,competitor,target,1,4.631
1,187,perceptual,0.1,0.05,target,target,1,5.307
1,188,numeric,0.1,0.05,competitor,competitor,0,3.08
1,189,numeric,0.03,0.2,competitor,target,1,3.372
1,190,perceptual,0.03,0.2,competitor,target,1,5.739
1,191,perceptual,0.1,0.2,competitor,competitor,0,4.327
1,192,numeric,0.1,0.05,target,target,1,1.718
2,1,perceptual,0.03,0.05,target,decoy,0,5.349
2,2,numeric,0.1,0.2,target,target,1,5.342
2,3,numeric,0.03,0.05,target,target,1,8.585
2,4,numeric,0.1,0.05,competitor,target,1,6.642
2,5,numeric,0.03,0.2,competitor,competitor,0,7.642
2,6,numeric,0.03,0.2,target,target,1,6.527
2,7,numeric,0.03,0.05,target,target,1,9.795
2,8,numeric,0.03,0.2,target,target,1,5.972
2,9,perceptual,0.1,0.2,competitor,target,1,3.214
2,10,numeric,0.1,0.05,target,decoy,0,5.609
2,11,numeric,0.1,0.05,target,target,1,5.1
2,12,perceptual,0.03,0.2,competitor,target,1,7.41
2,13,perceptual,0.1,0.2,target,competitor,0,3.853
2,14,numeric,0.03,0.05,competitor,competitor,0,6.314
2,15,numeric,0.03,0.05,competitor,competitor,0,8.062
2,16,perceptual,0.1,0.05,competitor,competitor,0,4.633
2,17,numeric,0.03,0.2,competitor,target,1,4.668
2,18,perceptual,0.1,0.2,competitor,target,1,3.534
2,19,numeric,0.1,0.05,target,target,1,4.636
2,20,numeric,0.03,0.2,competitor,target,1,7.596
2,21,perceptual,0.1,0.05,competitor,decoy,0,3.889
2,22,numeric,0.1,0.2,competitor,target,1,5.69
2,23,perceptual,0.1,0.05,target,target,1,5.117
2,24,perceptual,0.03,0.05,competitor,target,1,3.425
2,25,perceptual,0.1,0.2,target,decoy,0,5.278
2,26,perceptual,0.03,0.05,competitor,decoy,0,6.642
2,27,numeric,0.1,0.2,competitor,target,1,3.903
2,28,perceptual,0.03,0.2,competitor,target,1,3.878
2,29,numeric,0.03,0.05,competitor,competitor,0,5.938
2,30,numeric,0.1,0.05,target,target,1,6.475
2,31,perceptual,0.03,0.05,competitor,target,1,2.569
2,32,numeric,0.03,0.05,competitor,target,1,6.352
2,33,numeric,0.1,0.2,competitor,target,1,6.495
2,34,numeric,0.1,0.2,competitor,competitor,0,5.609
2,35,perceptual,0.03,0.2,target,decoy,0,3.091
2,36,numeric,0.1,0.05,competitor,target,1,4.101
2,37,perceptual,0.1,0.2,competitor,competitor,0,3.159
2,38,numeric,0.1,0.2,competitor,target,1,7.758
2,39,perceptual,0.1,0.2,target,target,1,3.417
2,40,perceptual,0.03,0.05,target,target,1,5.806
2,41,numeric,0.1,0.05,target,target,1,6.206
2,42,numeric,0.1,0.2,target,target,1,4.792
2,43,perceptual,0.03,0.2,competitor,target,1,4.651
2,44,perceptual,0.03,0.05,target,competitor,0,5.392
2,45,perceptual,0.03,0.05,target,competitor,0,3.527
2,46,perceptual,0.1,0.05,competitor,decoy,0,3.881
2,47,perceptual,0.1,0.05,target,competitor,0,2.612
2,48,perceptual,0.1,0.2,target,decoy,0,3.181
2,49,numeric,0.03,0.05,competitor,target,1,5.304
2,50,perceptual,0.03,0.2,competitor,competitor,0,3.247
2,51,numeric,0.03,0.2,target,target,1,4.292
2,52,perceptual,0.1,0.2,competitor,competitor,0,2.787
2,53,perceptual,0.1,0.05,target,decoy,0,2.883
2,54,perceptual,0.03,0.05,target,decoy,0,2.861
2,55,numeric,0.03,0.2,competitor,target,1,4.841
2,56,numeric,0.03,0.05,competitor,competitor,0,8.176
2,57,numeric,0.03,0.05,competitor,target,1,6.139
2,58,perceptual,0.1,0.05,target,decoy,0,3.68
2,59,numeric,0.03,0.2,target,target,1,6.779
2,60,numeric,0.1,0.2,target,target,1,7.08
2,61,perceptual,0.03,0.05,target,target,1,3.513
2,62,perceptual,0.1,0.2,target,competitor,0,3.155
2,63,perceptual,0.03,0.2,target,competitor,0,3.302
2,64,perceptual,0.1,0.05,target,target,1,3.242
2,65,numeric,0.03,0.05,target,target,1,6.584
2,66,numeric,0.03,0.05,competitor,competitor,0,9.858
2,67,perceptual,0.03,0.05,competitor,competitor,0,2.926
2,68,perceptual,0.03,0.2,competitor,target,1,3.783
2,69,perceptual,0.03,0.2,competitor,decoy,0,3.225
2,70,numeric,0.1,0.2,competitor,target,1,4.136
2,71,numeric,0.1,0.2,target,target,1,3.974
2,72,numeric,0.03,0.05,target,target,1,8.881
2,73,perceptual,0.03,0.05,target,decoy,0,3.362
2,74,numeric,0.03,0.2,competitor,competitor,0,6.012
2,75,perceptual,0.03,0.2,target,competitor,0,2.621
2,76,perceptual,0.03,0.2,target,target,1,5.685
2,77,perceptual,0.03,0.05,competitor,decoy,0,4.561
2,78,perceptual,0.1,0.05,target,decoy,0,4.906
2,79,numeric,0.1,0.05,competitor,target,1,4.713
2,80,numeric,0.1,0.2,target,target,1,6.522
2,81,numeric,0.1,0.2,target,decoy,0,4.28
2,82,numeric,0.1,0.05,competitor,competitor,0,3.812
2,83,numeric,0.03,0.2,competitor,target,1,6.774
2,84,perceptual,0.1,0.2,target,decoy,0,2.316
2,85,perceptual,0.03,0.2,target,competitor,0,3.884
2,86,perceptual,0.03,0.05,target,competitor,0,2.962
2,87,perceptual,0.1,0.2,target,decoy,0,3.51
2,88,numeric,0.1,0.05,target,target,1,5.28
2,89,numeric,0.03,0.2,competitor,target,1,7.827
2,90,numeric,0.03,0.05,competitor,competitor,0,7.081
2,91,numeric,0.1,0.2,target,target,1,5.187
2,92,perceptual,0.1,0.05,competitor,target,1,3.758
2,93,numeric,0.1,0.05,competitor,target,1,4.622
2,94,perceptual,0.1,0.05,competitor,decoy,0,6.934
2,95,numeric,0.1,0.05,target,target,1,5.885
2,96,numeric,0.1,0.05,competitor,target,1,6.594
2,97,numeric,0.03,0.2,target,competitor,0,3.599
2,98,numeric,0.03,0.2,target,target,1,8.501
2,99,numeric,0.03,0.2,target,competitor,0,5.408
2,100,numeric,0.03,0.05,target,target,1,4.778
2,101,numeric,0.1,0.2,target,target,1,4.003
2,102,perceptual,0.03,0.05,target,competitor,0,3.437
2,103,perceptual,0.03,0.2,competitor,target,1,2.239
2,104,numeric,0.1,0.05,target,competitor,0,3.05
2,105,numeric,0.1,0.05,target,competitor,0,2.901
2,106,perceptual,0.03,0.2,competitor,target,1,2.095
2,107,numeric,0.03,0.2,target,target,1,4.843
2,108,perceptual,0.03,0.2,target,target,1,2.965
2,109,perceptual,0.1,0.2,competitor,competitor,0,6.379
2,110,perceptual,0.1,0.05,competitor,competitor,0,4.112
2,111,numeric,0.03,0.05,target,target,1,7.127
2,112,perceptual,0.1,0.2,target,decoy,0,2.548
2,113,perceptual,0.1,0.2,competitor,target,1,2.5
2,114,numeric,0.03,0.05,target,competitor,0,2.404
2,115,perceptual,0.1,0.2,target,decoy,0,2.407
2,116,perceptual,0.1,0.05,competitor,decoy,0,2.372
2,117,perceptual,0.03,0.2,competitor,competitor,0,4.965
2,118,perceptual,0.1,0.2,competitor,decoy,0,3.347
2,119,perceptual,0.1,0.2,competitor,competitor,0,6.875
2,120,numeric,0.03,0.2,competitor,competitor,0,3.201
2,121,numeric,0.1,0.05,competitor,target,1,2.896
2,122,numeric,0.1,0.05,target,target,1,4.878
2,123,perceptual,0.1,0.2,competitor,decoy,0,4.282
2,124,perceptual,0.1,0.2,target,target,1,3.185
2,125,numeric,0.1,0.2,competitor,competitor,0,4.046
2,126,numeric,0.03,0.05,target,target,1,5.85
2,127,perceptual,0.03,0.05,target,decoy,0,2.381
2,128,perceptual,0.1,0.05,competitor,decoy,0,2.612
2,129,numeric,0.03,0.2,competitor,competitor,0,6.161
2,130,perceptual,0.1,0.05,target,target,1,4.266
2,131,numeric,0.1,0.2,competitor,target,1,5.336
2,132,numeric,0.1,0.2,target,target,1,6.977
2,133,numeric,0.1,0.2,target,target,1,8.737
2,134,perceptual,0.1,0.2,competitor,decoy,0,2.636
2,135,perceptual,0.03,0.2,target,target,1,3.146
2,136,numeric,0.03,0.2,competitor,competitor,0,8.17
2,137,numeric,0.03,0.2,target,target,1,5.121
2,138,perceptual,0.1,0.2,competitor,target,1,2.807
2,139,numeric,0.03,0.05,competitor,competitor,0,4.447
2,140,numeric,0.1,0.2,competitor,target,1,5.379
2,141,perceptual,0.1,0.05,target,competitor,0,2.49
2,142,perceptual,0.1,0.05,target,competitor,0,2.896
2,143,perceptual,0.03,0.05,target,decoy,0,4.846
2,144,numeric,0.1,0.2,target,target,1,3.997
2,145,numeric,0.03,0.2,competitor,target,1,5.298
2,146,numeric,0.1,0.05,competitor,target,1,3.965
2,147,numeric,0.1,0.05,competitor,target,1,4.282
2,148,numeric,0.03,0.05,target,target,1,5.228
2,149,perceptual,0.03,0.05,competitor,target,1,4.652
2,150,numeric,0.03,0.2,competitor,competitor,0,6.315
2,151,perceptual,0.1,0.05,competitor,decoy,0,3.469
2,152,perceptual,0.03,0.05,competitor,target,1,4.402
2,153,numeric,0.03,0.05,target,target,1,4.774
2,154,numeric,0.03,0.05,target,target,1,5.805
2,155,numeric,0.03,0.05,target,target,1,5.451
2,156,perceptual,0.03,0.2,competitor,target,1,3.298
2,157,perceptual,0.03,0.2,competitor,competitor,0,2.294
2,158,perceptual,0.03,0.05,competitor,target,1,3.37
2,159,numeric,0.03,0.05,competitor,competitor,0,5.919
2,160,numeric,0.1,0.05,target,target,1,4.931
2,161,perceptual,0.03,0.2,target,competitor,0,5.935
2,162,perceptual,0.03,0.2,target,target,1,2.511
2,163,numeric,0.1,0.05,competitor,target,1,5.116
2,164,numeric,0.1,0.2,competitor,target,1,3.643
2,165,perceptual,0.03,0.2,target,competitor,0,2.504
2,166,perceptual,0.03,0.05,competitor,competitor,0,3.843
2,167,perceptual,0.1,0.05,competitor,competitor,0,3.268
2,168,numeric,0.1,0.05,target,target,1,6.648
2,169,perceptual,0.1,0.05,target,target,1,5.898
2,170,perceptual,0.1,0.05,competitor,target,1,2.888
2,171,numeric,0.1,0.2,target,competitor,0,4.912
2,172,perceptual,0.03,0.05,competitor,target,1,2.744
2,173,perceptual,0.03,0.2,target,competitor,0,2.277
2,174,numeric,0.1,0.05,competitor,target,1,3.951
2,175,perceptual,0.1,0.05,target,decoy,0,3.474
2,176,perceptual,0.03,0.05,competitor,decoy,0,4.159
2,177,numeric,0.1,0.05,competitor,target,1,5.197
2,178,numeric,0.03,0.2,target,competitor,0,5.036
2,179,numeric,0.03,0.2,target,target,1,6.981
2,180,perceptual,0.1,0.05,target,competitor,0,3.426
2,181,perceptual,0.03,0.05,competitor,target,1,3.299
2,182,perceptual,0.03,0.2,competitor,decoy,0,3.478
2,183,perceptual,0.03,0.05,target,target,1,2.779
2,184,perceptual,0.1,0.05,competitor,competitor,0,3.38
2,185,perceptual,0.1,0.2,target,target,1,2.442
2,186,numeric,0.03,0.05,competitor,competitor,0,4.407
2,187,numeric,0.1,0.2,competitor,competitor,0,3.885
2,188,numeric,0.03,0.2,target,target,1,3.498
2,189,perceptual,0.1,0.2,target,target,1,2.703
2,190,perceptual,0.1,0.2,competitor,target,1,2.085
2,191,perceptual,0.03,0.2,target,target,1,3.042
2,192,numeric,0.1,0.2,competitor,competitor,0,4.908
3,1,numeric,0.1,0.05,competitor,target,1,6.772
3,2,perceptual,0.03,0.2,competitor,target,1,5.324
3,3,numeric,0.03,0.05,target,target,1,8.249
3,4,numeric,0.03,0.05,target,competitor,0,9.264
3,5,numeric,0.03,0.05,competitor,competitor,0,9.867
3,6,perceptual,0.03,0.2,competitor,competitor,0,5.314
3,7,perceptual,0.03,0.05,target,decoy,0,5.234
3,8,perceptual,0.03,0.2,competitor,target,1,4.923
3,9,numeric,0.03,0.05,target,target,1,8.568
3,10,perceptual,0.1,0.05,competitor,target,1,4.749
3,11,numeric,0.03,0.05,target,target,1,8.012
3,12,numeric,0.1,0.2,target,target,1,10.795
3,13,perceptual,0.03,0.05,competitor,target,1,2.866
3,14,perceptual,0.1,0.2,competitor,competitor,0,4.186
3,15,perceptual,0.1,0.05,competitor,target,1,3.745
3,16,perceptual,0.1,0.05,target,competitor,0,2.474
3,17,numeric,0.03,0.2,competitor,competitor,0,7.788
3,18,numeric,0.1,0.2,target,target,1,5.429
3,19,numeric,0.03,0.05,target,target,1,6.33
3,20,perceptual,0.1,0.05,competitor,target,1,5.864
3,21,numeric,0.1,0.05,target,competitor,0,9.912
3,22,numeric,0.03,0.2,target,target,1,7.551
3,23,numeric,0.1,0.05,competitor,target,1,8.113
3,24,numeric,0.1,0.05,target,decoy,0,3.442
3,25,perceptual,0.1,0.2,competitor,target,1,2.16
3,26,numeric,0.03,0.05,competitor,target,1,4.546
3,27,perceptual,0.03,0.2,target,target,1,3.147
3,28,perceptual,0.03,0.05,competitor,target,1,6.003
3,29,numeric,0.03,0.2,competitor,target,1,7.74
3,30,numeric,0.03,0.2,target,target,1,7.052
3,31,numeric,0.1,0.2,competitor,target,1,8.604
3,32,numeric,0.1,0.05,competitor,target,1,4.123
3,33,perceptual,0.03,0.05,competitor,target,1,3.649
3,34,perceptual,0.03,0.2,target,competitor,0,3.446
3,35,numeric,0.03,0.2,competitor,target,1,5.898
3,36,perceptual,0.1,0.05,target,target,1,5.532
3,37,numeric,0.1,0.05,target,target,1,7.674
3,38,perceptual,0.1,0.2,competitor,target,1,4.761
3,39,numeric,0.1,0.05,competitor,target,1,8.451
3,40,numeric,0.1,0.2,competitor,competitor,0,6.867
3,41,numeric,0.03,0.2,competitor,competitor,0,5.274
3,42,numeric,0.1,0.05,target,competitor,0,4.833
3,43,numeric,0.1,0.2,competitor,competitor,0,3.928
3,44,numeric,0.03,0.2,competitor,competitor,0,4.577
3,45,numeric,0.1,0.2,target,target,1,7.92
3,46,perceptual,0.1,0.05,competitor,competitor,0,5.283
3,47,numeric,0.1,0.2,target,target,1,5.452
3,48,perceptual,0.1,0.2,competitor,target,1,4.731
3,49,perceptual,0.1,0.05,competitor,target,1,4.829
3,50,perceptual,0.1,0.05,target,target,1,4.6
3,51,perceptual,0.1,0.2,target,competitor,0,3.737
3,52,perceptual,0.03,0.2,competitor,competitor,0,4.915
3,53,perceptual,0.1,0.05,competitor,decoy,0,5.85
3,54,numeric,0.03,0.2,target,target,1,6.719
3,55,perceptual,0.1,0.05,target,target,1,6.636
3,56,perceptual,0.1,0.05,target,decoy,0,2.996
3,57,numeric,0.1,0.2,competitor,target,1,5.502
3,58,perceptual,0.03,0.05,target,decoy,0,5.652
3,59,perceptual,0.03,0.2,competitor,competitor,0,3.849
3,60,perceptual,0.03,0.2,target,competitor,0,4.489
3,61,perceptual,0.03,0.2,target,target,1,2.908
3,62,numeric,0.03,0.05,competitor,target,1,8.85
3,63,numeric,0.03,0.2,target,target,1,11.656
3,64,perceptual,0.03,0.2,target,competitor,0,4.289
3,65,numeric,0.1,0.2,competitor,competitor,0,7.064
3,66,perceptual,0.03,0.05,target,target,1,6.76
3,67,perceptual,0.1,0.2,target,target,1,2.942
3,68,numeric,0.1,0.05,target,target,1,6.678
3,69,numeric,0.03,0.2,competitor,competitor,0,10.003
3,70,perceptual,0.03,0.05,target,competitor,0,5.532
3,71,perceptual,0.03,0.2,competitor,decoy,0,6.824
3,72,numeric,0.1,0.05,target,decoy,0,11.049
3,73,numeric,0.1,0.05,competitor,target,1,9.03
3,74,numeric,0.1,0.2,target,target,1,4.587
3,75,perceptual,0.1,0.2,competitor,target,1,6.502
3,76,numeric,0.1,0.05,target,target,1,6.808
3,77,numeric,0.03,0.05,competitor,decoy,0,10.022
3,78,numeric,0.1,0.2,competitor,competitor,0,6.146
3,79,numeric,0.03,0.2,target,target,1,9.645
3,80,perceptual,0.1,0.05,competitor,competitor,0,6.449
3,81,perceptual,0.1,0.05,target,target,1,5.351
3,82,numeric,0.03,0.05,competitor,target,1,7.945
3,83,perceptual,0.1,0.05,competitor,competitor,0,4.003
3,84,perceptual,0.03,0.2,target,target,1,3.055
3,85,perceptual,0.1,0.05,target,decoy,0,5.217
3,86,numeric,0.03,0.05,target,target,1,5.302
3,87,numeric,0.03,0.05,competitor,target,1,6.758
3,88,perceptual,0.1,0.2,target,target,1,7.436
3,89,perceptual,0.03,0.2,target,competitor,0,5.398
3,90,perceptual,0.1,0.2,competitor,target,1,5.924
3,91,perceptual,0.03,0.2,competitor,target,1,3.377
3,92,perceptual,0.03,0.2,target,competitor,0,5.975
3,93,perceptual,0.03,0.05,competitor,target,1,6.294
3,94,perceptual,0.1,0.2,target,target,1,6.99
3,95,numeric,0.1,0.05,target,target,1,9.661
3,96,numeric,0.03,0.05,competitor,competitor,0,10.462
3,97,perceptual,0.03,0.2,competitor,target,1,5.698
3,98,perceptual,0.03,0.2,target,target,1,4.538
3,99,numeric,0.1,0.2,target,competitor,0,4.97
3,100,numeric,0.1,0.05,target,target,1,8.657
3,101,numeric,0.03,0.05,target,target,1,9.629
3,102,numeric,0.1,0.2,target,target,1,10.11
3,103,perceptual,0.03,0.2,competitor,target,1,5.387
3,104,perceptual,0.1,0.2,competitor,decoy,0,8.555
3,105,numeric,0.03,0.05,competitor,competitor,0,10.301
3,106,perceptual,0.03,0.05,target,decoy,0,5.797
3,107,numeric,0.03,0.05,competitor,decoy,0,5.813
3,108,perceptual,0.1,0.2,target,competitor,0,5.559
3,109,numeric,0.1,0.2,competitor,competitor,0,6.261
3,110,numeric,0.1,0.05,target,target,1,7.69
3,111,numeric,0.03,0.05,target,target,1,4.023
3,112,perceptual,0.1,0.2,competitor,competitor,0,3.896
3,113,perceptual,0.03,0.05,target,target,1,7.14
3,114,numeric,0.03,0.05,competitor,target,1,5.744
3,115,perceptual,0.1,0.05,target,competitor,0,4.326
3,116,numeric,0.03,0.2,target,target,1,7.078
3,117,numeric,0.03,0.2,competitor,competitor,0,7.308
3,118,numeric,0.1,0.2,competitor,competitor,0,3.268
3,119,perceptual,0.1,0.05,target,competitor,0,4.588
3,120,perceptual,0.03,0.2,competitor,target,1,3.281
3,121,perceptual,0.03,0.05,competitor,target,1,6.426
3,122,numeric,0.1,0.2,competitor,competitor,0,3.876
3,123,perceptual,0.03,0.05,competitor,target,1,3.527
3,124,numeric,0.03,0.2,target,decoy,0,3.581
3,125,numeric,0.1,0.05,target,target,1,9.078
3,126,numeric,0.03,0.2,competitor,target,1,7.484
3,127,perceptual,0.1,0.05,target,target,1,3.485
3,128,perceptual,0.03,0.2,target,competitor,0,3.564
3,129,perceptual,0.03,0.05,competitor,competitor,0,3.705
3,130,perceptual,0.03,0.05,target,decoy,0,3.686
3,131,numeric,0.1,0.2,competitor,target,1,5.363
3,132,numeric,0.1,0.05,target,target,1,3.747
3,133,perceptual,0.1,0.2,competitor,target,1,3.313
3,134,numeric,0.1,0.05,competitor,competitor,0,6.446
3,135,numeric,0.1,0.05,competitor,target,1,3.655
3,136,perceptual,0.03,0.05,competitor,decoy,0,5.198
3,137,perceptual,0.03,0.05,competitor,target,1,2.747
3,138,numeric,0.1,0.2,target,decoy,0,3.897
3,139,numeric,0.03,0.2,target,target,1,4.29
3,140,numeric,0.03,0.05,competitor,target,1,11.246
3,141,numeric,0.1,0.05,competitor,target,1,4.28
3,142,perceptual,0.03,0.05,competitor,target,1,3.496
3,143,numeric,0.03,0.2,target,competitor,0,4.638
3,144,perceptual,0.1,0.05,competitor,target,1,3.144
3,145,numeric,0.1,0.05,competitor,target,1,3.848
3,148,perceptual,0.03,0.2,competitor,competitor,0,0.413
3,149,perceptual,0.1,0.2,competitor,target,1,4.023
3,150,perceptual,0.1,0.05,competitor,decoy,0,4.1
3,151,perceptual,0.03,0.05,competitor,target,1,8.078
3,152,numeric,0.1,0.2,competitor,target,1,2.594
3,153,perceptual,0.03,0.2,competitor,target,1,2.791
3,154,numeric,0.03,0.2,competitor,target,1,4.382
3,155,numeric,0.03,0.05,competitor,competitor,0,2.79
3,156,perceptual,0.03,0.05,target,target,1,3.35
3,157,numeric,0.03,0.05,target,target,1,18.202
3,158,numeric,0.03,0.05,target,target,1,5.632
3,159,perceptual,0.1,0.2,target,target,1,4.188
3,160,numeric,0.1,0.05,competitor,competitor,0,4.67
3,161,numeric,0.03,0.2,target,target,1,4.215
3,162,numeric,0.1,0.2,target,target,1,4.483
3,163,numeric,0.03,0.2,competitor,decoy,0,3.562
3,164,numeric,0.1,0.2,target,target,1,3.777
3,165,perceptual,0.03,0.2,target,competitor,0,2.935
3,166,numeric,0.03,0.05,target,decoy,0,6.628
3,167,perceptual,0.1,0.2,target,competitor,0,5.149
3,168,perceptual,0.1,0.2,target,competitor,0,4.063
3,169,perceptual,0.03,0.05,competitor,competitor,0,4.301
3,170,perceptual,0.1,0.05,competitor,target,1,3.366
3,171,numeric,0.1,0.05,competitor,competitor,0,4.38
3,172,perceptual,0.03,0.05,target,target,1,4.281
3,173,numeric,0.03,0.05,target,target,1,8.226
3,174,numeric,0.03,0.2,competitor,competitor,0,7.049
3,175,perceptual,0.1,0.05,target,target,1,4.035
3,176,numeric,0.03,0.2,competitor,target,1,7.469
3,177,perceptual,0.03,0.05,target,decoy,0,3.166
3,178,numeric,0.03,0.2,target,target,1,5.916
3,179,perceptual,0.1,0.2,competitor,competitor,0,4.065
3,180,perceptual,0.1,0.2,competitor,target,1,5.455
3,181,numeric,0.1,0.05,competitor,target,1,10.652
3,182,perceptual,0.1,0.2,target,decoy,0,3.687
3,183,perceptual,0.1,0.2,target,competitor,0,4.239
3,184,perceptual,0.1,0.05,competitor,competitor,0,4.33
3,185,numeric,0.1,0.2,competitor,target,1,5.965
3,186,perceptual,0.1,0.05,target,decoy,0,4.604
3,187,perceptual,0.1,0.2,target,decoy,0,2.778
3,188,numeric,0.1,0.2,target,target,1,5.249
3,189,perceptual,0.1,0.2,target,competitor,0,3.579
3,190,perceptual,0.03,0.2,target,decoy,0,2.233
3,191,numeric,0.03,0.2,target,target,1,3.536
3,192,perceptual,0.03,0.05,target,competitor,0,4.902
4,1,numeric,0.1,0.05,target,decoy,0,17.251
4,2,numeric,0.1,0.2,target,target,1,10.023
4,3,perceptual,0.1,0.05,target,target,1,5.688
4,4,perceptual,0.1,0.05,target,target,1,8.87
4,5,numeric,0.1,0.2,target,competitor,0,8.052
4,6,numeric,0.03,0.2,competitor,target,1,12.814
4,7,numeric,0.1,0.2,competitor,target,1,6.044
4,8,numeric,0.03,0.2,competitor,decoy,0,9.863
4,9,perceptual,0.03,0.2,target,competitor,0,7.2
4,10,perceptual,0.1,0.05,competitor,target,1,5.344
4,11,numeric,0.03,0.05,competitor,target,1,12.064
4,12,perceptual,0.1,0.2,competitor,target,1,6.336
4,13,perceptual,0.1,0.2,competitor,competitor,0,4.116
4,14,numeric,0.03,0.05,target,decoy,0,9.206
4,15,numeric,0.1,0.05,competitor,target,1,8.693
4,16,numeric,0.03,0.05,target,target,1,7.244
4,17,numeric,0.03,0.05,competitor,target,1,3.152
4,18,numeric,0.03,0.05,target,competitor,0,1.558
4,19,perceptual,0.03,0.2,target,target,1,1.604
4,20,numeric,0.03,0.2,target,competitor,0,4.27
4,21,perceptual,0.03,0.05,competitor,decoy,0,3.862
4,22,perceptual,0.1,0.2,target,competitor,0,4.092
4,23,perceptual,0.1,0.2,target,target,1,4.556
4,24,numeric,0.1,0.05,target,decoy,0,7.326
4,25,perceptual,0.1,0.05,target,target,1,3.958
4,26,numeric,0.03,0.05,competitor,competitor,0,4.537
4,27,numeric,0.03,0.2,target,target,1,3.433
4,28,numeric,0.1,0.2,competitor,target,1,4.168
4,29,numeric,0.03,0.05,target,competitor,0,5.453
4,30,perceptual,0.03,0.05,target,target,1,4.462
4,31,perceptual,0.1,0.2,competitor,target,1,3.661
4,32,numeric,0.03,0.2,competitor,target,1,2.457
4,33,perceptual,0.03,0.2,competitor,decoy,0,2.313
4,34,perceptual,0.1,0.2,target,target,1,3.334
4,35,perceptual,0.03,0.2,target,competitor,0,3.409
4,36,perceptual,0.1,0.2,competitor,competitor,0,2.276
4,37,perceptual,0.03,0.05,target,decoy,0,3.401
4,38,numeric,0.1,0.05,competitor,competitor,0,3.035
4,39,perceptual,0.1,0.2,competitor,competitor,0,3.687
4,40,numeric,0.1,0.2,competitor,target,1,4.397
4,41,numeric,0.03,0.2,competitor,target,1,3.754
4,42,numeric,0.1,0.05,competitor,decoy,0,2.312
4,43,perceptual,0.03,0.2,target,competitor,0,2.393
4,44,perceptual,0.03,0.05,competitor,target,1,2.188
4,45,numeric,0.03,0.05,target,target,1,3.721
4,46,numeric,0.1,0.2,competitor,target,1,2.253
4,47,perceptual,0.1,0.2,competitor,target,1,2.322
4,48,numeric,0.03,0.05,competitor,target,1,2.308
4,49,numeric,0.03,0.05,competitor,decoy,0,3.176
4,50,perceptual,0.1,0.05,competitor,competitor,0,4.389
4,51,numeric,0.1,0.2,competitor,competitor,0,2.902
4,52,perceptual,0.1,0.2,target,target,1,2.597
4,53,numeric,0.03,0.2,target,competitor,0,3.107
4,54,numeric,0.1,0.2,target,competitor,0,2.589
4,55,numeric,0.03,0.2,competitor,decoy,0,2.291
4,56,numeric,0.1,0.05,target,decoy,0,3.074
4,57,perceptual,0.1,0.05,competitor,target,1,2.313
4,58,perceptual,0.03,0.05,competitor,target,1,3.036
4,59,perceptual,0.03,0.05,target,target,1,3.241
4,60,perceptual,0.03,0.05,target,decoy,0,3.036
4,61,numeric,0.03,0.2,competitor,competitor,0,2.104
4,62,numeric,0.1,0.05,competitor,target,1,4.929
4,63,numeric,0.03,0.05,target,target,1,2.077
4,64,numeric,0.1,0.05,competitor,target,1,3.398
4,65,perceptual,0.03,0.05,target,decoy,0,2.173
4,66,perceptual,0.03,0.2,target,competitor,0,2.607
4,67,perceptual,0.1,0.05,target,decoy,0,2.042
4,68,perceptual,0.03,0.05,competitor,competitor,0,2.195
4,69,perceptual,0.1,0.05,competitor,target,1,1.972
4,70,numeric,0.03,0.2,target,competitor,0,2.04
4,71,perceptual,0.1,0.2,competitor,competitor,0,2.98
4,72,perceptual,0.1,0.2,target,competitor,0,1.969
4,73,numeric,0.03,0.2,target,target,1,2.809
4,74,perceptual,0.1,0.05,target,target,1,2.163
4,75,numeric,0.1,0.2,competitor,competitor,0,2.507
4,76,numeric,0.03,0.2,target,decoy,0,2.016
4,77,numeric,0.03,0.2,competitor,target,1,1.977
4,78,perceptual,0.03,0.05,target,target,1,2.401
4,79,perceptual,0.03,0.2,target,target,1,2.114
4,80,numeric,0.1,0.05,target,decoy,0,1.906
4,81,perceptual,0.1,0.2,target,competitor,0,2.233
4,82,numeric,0.1,0.2,competitor,competitor,0,2.188
4,83,numeric,0.1,0.05,target,competitor,0,2.881
4,84,numeric,0.03,0.2,competitor,competitor,0,2.729
4,85,numeric,0.1,0.2,competitor,competitor,0,3.425
4,86,numeric,0.03,0.2,competitor,target,1,2.902
4,87,perceptual,0.1,0.05,target,target,1,6.455
4,88,perceptual,0.03,0.2,target,decoy,0,7.061
4,89,perceptual,0.1,0.05,competitor,target,1,3.902
4,90,numeric,0.03,0.05,competitor,competitor,0,2.609
4,91,numeric,0.03,0.2,target,target,1,3.863
4,92,numeric,0.03,0.2,target,target,1,3.568
4,93,perceptual,0.03,0.05,target,target,1,2.599
4,94,numeric,0.1,0.05,target,competitor,0,3.415
4,95,perceptual,0.03,0.2,competitor,decoy,0,2.018
4,96,numeric,0.1,0.05,target,decoy,0,2.195
4,97,perceptual,0.1,0.05,target,competitor,0,2.658
4,98,numeric,0.03,0.05,target,decoy,0,2.879
4,99,numeric,0.03,0.2,target,target,1,2.557
4,100,perceptual,0.1,0.2,target,competitor,0,2.685
4,101,perceptual,0.03,0.2,target,target,1,2.204
4,102,perceptual,0.1,0.2,target,target,1,5.649
4,103,perceptual,0.03,0.2,target,target,1,3.293
4,104,perceptual,0.03,0.05,competitor,target,1,7.047
4,105,numeric,0.1,0.2,target,competitor,0,4.251
4,106,perceptual,0.1,0.05,competitor,target,1,3.453
4,107,perceptual,0.03,0.2,competitor,competitor,0,3.936
4,108,numeric,0.03,0.05,competitor,target,1,2.216
4,109,numeric,0.1,0.2,competitor,target,1,2.077
4,110,perceptual,0.1,0.05,target,target,1,2.341
4,111,numeric,0.1,0.2,competitor,target,1,2.495
4,112,numeric,0.1,0.05,competitor,decoy,0,2.296
4,113,perceptual,0.03,0.05,competitor,competitor,0,2.02
4,114,perceptual,0.1,0.2,competitor,competitor,0,3.668
4,115,numeric,0.1,0.05,target,target,1,2.274
4,116,numeric,0.03,0.05,competitor,target,1,2.469
4,117,perceptual,0.1,0.05,target,decoy,0,2.151
4,118,perceptual,0.03,0.2,competitor,target,1,3.5
4,119,perceptual,0.1,0.05,competitor,target,1,7.563
4,120,perceptual,0.1,0.2,competitor,target,1,5.402
4,121,numeric,0.03,0.2,target,competitor,0,3.412
4,122,numeric,0.03,0.05,competitor,target,1,6.312
4,123,numeric,0.1,0.05,target,decoy,0,2.815
4,124,numeric,0.03,0.05,competitor,decoy,0,2.541
4,125,numeric,0.03,0.2,target,target,1,3.913
4,126,perceptual,0.03,0.05,competitor,target,1,2.98
4,127,numeric,0.03,0.05,target,target,1,2.832
4,128,numeric,0.1,0.2,target,target,1,4.061
4,129,numeric,0.03,0.05,target,target,1,2.617
4,130,numeric,0.1,0.05,target,decoy,0,3.31
4,131,perceptual,0.03,0.2,competitor,target,1,2.791
4,132,perceptual,0.03,0.05,target,decoy,0,3.971
4,133,perceptual,0.1,0.05,competitor,target,1,4.429
4,134,numeric,0.1,0.2,target,target,1,3.051
4,135,perceptual,0.1,0.05,target,decoy,0,2.996
4,136,numeric,0.03,0.2,competitor,target,1,2.297
4,137,perceptual,0.03,0.2,competitor,target,1,2.075
4,138,perceptual,0.1,0.05,competitor,target,1,2.776
4,139,perceptual,0.1,0.05,competitor,target,1,2.141
4,140,numeric,0.1,0.2,target,target,1,2.819
4,141,perceptual,0.1,0.05,competitor,target,1,3.451
4,142,numeric,0.1,0.2,target,target,1,3.639
4,143,perceptual,0.1,0.05,target,target,1,3.906
4,144,numeric,0.1,0.05,target,target,1,3.271
4,145,perceptual,0.03,0.05,competitor,target,1,3.78
4,146,numeric,0.1,0.2,competitor,target,1,2.391
4,147,numeric,0.03,0.05,competitor,target,1,3.394
4,148,perceptual,0.1,0.2,competitor,target,1,6.015
4,149,numeric,0.1,0.2,competitor,target,1,6.821
4,150,perceptual,0.03,0.2,competitor,competitor,0,5.44
4,151,numeric,0.1,0.05,competitor,target,1,5.687
4,152,numeric,0.03,0.2,target,target,1,4.307
4,153,numeric,0.03,0.2,competitor,target,1,4.104
4,154,perceptual,0.03,0.2,competitor,competitor,0,8.394
4,155,numeric,0.1,0.2,target,target,1,5.194
4,156,numeric,0.1,0.05,competitor,competitor,0,3.532
4,157,numeric,0.03,0.05,competitor,target,1,5.11
4,158,numeric,0.03,0.2,competitor,target,1,4.515
4,159,perceptual,0.1,0.2,target,target,1,4.158
4,160,perceptual,0.03,0.2,competitor,target,1,5.195
4,161,perceptual,0.1,0.05,target,target,1,2.692
4,162,numeric,0.1,0.2,target,target,1,3.764
4,163,perceptual,0.03,0.05,target,target,1,3.164
4,164,perceptual,0.03,0.2,competitor,competitor,0,3.381
4,165,numeric,0.03,0.05,target,competitor,0,3.639
4,166,perceptual,0.03,0.05,competitor,target,1,5.47
4,167,numeric,0.1,0.2,target,target,1,4.338
4,168,perceptual,0.03,0.2,competitor,target,1,8.166
4,169,numeric,0.1,0.05,competitor,target,1,5.472
4,170,perceptual,0.03,0.05,target,target,1,7.451
4,171,perceptual,0.1,0.2,target,decoy,0,5.004
4,172,perceptual,0.03,0.2,target,target,1,5.368
4,173,perceptual,0.03,0.05,target,target,1,4.69
4,174,numeric,0.1,0.2,target,competitor,0,6.825
4,175,perceptual,0.03,0.2,competitor,target,1,4.744
4,176,perceptual,0.1,0.2,target,competitor,0,4.73
4,177,perceptual,0.1,0.2,competitor,target,1,5.266
4,178,numeric,0.1,0.05,competitor,target,1,4.712
4,179,perceptual,0.03,0.05,competitor,competitor,0,5.012
4,180,perceptual,0.03,0.2,target,target,1,4.197
4,181,numeric,0.1,0.05,target,target,1,3.141
4,182,perceptual,0.1,0.2,target,target,1,3.333
4,183,perceptual,0.03,0.2,target,target,1,4.101
4,184,numeric,0.03,0.05,target,decoy,0,6.241
4,185,numeric,0.1,0.05,competitor,competitor,0,2.643
4,186,perceptual,0.03,0.05,competitor,target,1,2.762
4,187,perceptual,0.03,0.05,target,decoy,0,5.65
4,188,perceptual,0.1,0.05,competitor,target,1,4.257
4,189,numeric,0.1,0.05,competitor,target,1,4.78
4,190,numeric,0.03,0.05,target,decoy,0,6.374
4,191,perceptual,0.03,0.05,competitor,competitor,0,6.383
4,192,perceptual,0.1,0.2,competitor,target,1,5.096
5,1,numeric,0.1,0.05,target,target,1,10.139
5,2,numeric,0.03,0.05,target,target,1,7.916
5,3,numeric,0.03,0.2,target,target,1,7.49
5,4,perceptual,0.03,0.2,target,competitor,0,10.768
5,5,numeric,0.1,0.05,competitor,target,1,8.773
5,6,perceptual,0.03,0.05,competitor,target,1,6.561
5,7,numeric,0.03,0.05,competitor,target,1,11.181
5,8,numeric,0.1,0.05,target,target,1,8.463
5,9,perceptual,0.1,0.05,target,target,1,4.486
5,10,perceptual,0.03,0.2,competitor,target,1,6.113
5,11,perceptual,0.1,0.2,competitor,competitor,0,5.579
5,12,numeric,0.1,0.05,competitor,target,1,10.589
5,13,perceptual,0.1,0.05,competitor,target,1,4.667
5,14,perceptual,0.1,0.2,competitor,target,1,5.746
5,15,numeric,0.03,0.2,target,target,1,6.228
5,16,perceptual,0.03,0.2,competitor,target,1,8.069
5,17,perceptual,0.03,0.2,competitor,target,1,4.368
5,18,numeric,0.1,0.2,target,target,1,8.743
5,19,numeric,0.03,0.05,target,target,1,9.462
5,20,perceptual,0.1,0.2,target,target,1,6.176
5,21,perceptual,0.03,0.05,competitor,target,1,5.73
5,22,numeric,0.1,0.2,target,target,1,8.497
5,23,numeric,0.1,0.2,target,target,1,7.998
5,24,numeric,0.03,0.05,target,target,1,6.769
5,25,numeric,0.1,0.05,target,target,1,6.514
5,26,numeric,0.03,0.2,target,target,1,7.625
5,27,perceptual,0.1,0.2,target,target,1,4.725
5,28,numeric,0.1,0.2,competitor,target,1,7.477
5,29,perceptual,0.1,0.2,target,target,1,5.146
5,30,numeric,0.03,0.05,competitor,target,1,6.731
5,31,perceptual,0.1,0.2,competitor,target,1,5.348
5,32,perceptual,0.1,0.05,competitor,target,1,6.955
5,33,perceptual,0.03,0.05,target,competitor,0,7.519
5,34,perceptual,0.1,0.2,competitor,target,1,4.749
5,35,numeric,0.1,0.2,target,target,1,5.974
5,36,perceptual,0.03,0.05,target,target,1,8.009
5,37,numeric,0.1,0.2,competitor,target,1,8.776
5,38,perceptual,0.03,0.05,competitor,target,1,9.089
5,39,perceptual,0.1,0.2,target,target,1,5.569
5,40,numeric,0.03,0.2,competitor,competitor,0,8.3
5,41,numeric,0.1,0.2,target,target,1,5.868
5,42,numeric,0.1,0.05,target,target,1,6.235
5,43,perceptual,0.03,0.05,target,target,1,8.219
5,44,perceptual,0.1,0.2,competitor,target,1,3.721
5,45,perceptual,0.03,0.2,target,target,1,3.309
5,46,perceptual,0.1,0.05,competitor,target,1,4.226
5,47,perceptual,0.1,0.2,target,target,1,6.622
5,48,perceptual,0.03,0.2,target,target,1,4.777
5,49,numeric,0.1,0.2,competitor,target,1,5.254
5,50,perceptual,0.1,0.05,competitor,target,1,3.345
5,51,perceptual,0.1,0.2,target,target,1,6.351
5,52,numeric,0.03,0.2,competitor,target,1,8.205
5,53,perceptual,0.03,0.05,target,competitor,0,8.623
5,54,numeric,0.03,0.05,target,target,1,6.667
5,55,perceptual,0.1,0.2,competitor,target,1,4.813
5,56,perceptual,0.03,0.2,target,competitor,0,5.25
5,57,numeric,0.1,0.05,target,target,1,7.817
5,58,numeric,0.1,0.2,target,target,1,9.046
5,59,perceptual,0.1,0.2,competitor,target,1,3.978
5,60,numeric,0.03,0.2,competitor,competitor,0,6.614
5,61,numeric,0.03,0.2,target,target,1,8.995
5,62,perceptual,0.03,0.2,competitor,target,1,6.511
5,63,numeric,0.03,0.2,target,target,1,7.79
5,64,perceptual,0.1,0.05,competitor,target,1,3.063
5,65,numeric,0.1,0.05,target,target,1,5.701
5,66,numeric,0.03,0.2,competitor,target,1,7.923
5,67,perceptual,0.1,0.05,competitor,target,1,6.981
5,68,numeric,0.1,0.2,competitor,target,1,7.424
5,69,perceptual,0.03,0.2,competitor,competitor,0,7.335
5,70,numeric,0.03,0.05,competitor,target,1,7.457
5,71,perceptual,0.1,0.2,target,target,1,6.823
5,72,numeric,0.1,0.2,competitor,target,1,7.887
5,73,numeric,0.1,0.05,target,competitor,0,10.804
5,74,perceptual,0.1,0.05,target,decoy,0,8.766
5,75,perceptual,0.1,0.2,target,target,1,5.664
5,76,perceptual,0.03,0.05,competitor,competitor,0,9.325
5,77,perceptual,0.1,0.05,target,target,1,8.284
5,78,numeric,0.03,0.05,competitor,target,1,8.745
5,79,perceptual,0.03,0.05,competitor,target,1,9.205
5,80,numeric,0.03,0.05,target,target,1,7.321
5,81,numeric,0.03,0.2,target,target,1,6.358
5,82,numeric,0.1,0.05,target,competitor,0,8.804
5,83,perceptual,0.1,0.2,target,target,1,4.988
5,84,numeric,0.1,0.2,competitor,competitor,0,6.625
5,85,numeric,0.03,0.05,competitor,target,1,8.835
5,86,perceptual,0.03,0.05,competitor,target,1,7.669
5,87,perceptual,0.1,0.2,target,target,1,5.085
5,88,perceptual,0.03,0.05,target,target,1,6.792
5,89,numeric,0.1,0.05,competitor,target,1,6.264
5,90,numeric,0.03,0.2,target,target,1,4.278
5,91,numeric,0.1,0.05,competitor,competitor,0,8.684
5,92,perceptual,0.03,0.2,target,competitor,0,4.32
5,93,numeric,0.1,0.05,target,target,1,8.212
5,94,perceptual,0.1,0.05,competitor,target,1,6.29
5,95,perceptual,0.03,0.2,target,target,1,4.306
5,96,perceptual,0.1,0.05,target,target,1,7.755
5,97,numeric,0.1,0.2,competitor,target,1,4.998
5,98,perceptual,0.1,0.05,target,target,1,7.103
5,99,numeric,0.03,0.05,competitor,target,1,6.239
5,100,numeric,0.03,0.2,target,target,1,7.047
5,101,numeric,0.03,0.2,competitor,target,1,10.716
5,102,perceptual,0.1,0.05,competitor,target,1,3.916
5,103,numeric,0.1,0.05,target,target,1,11.188
5,104,numeric,0.03,0.2,competitor,target,1,8.045
5,105,numeric,0.03,0.2,target,competitor,0,8.43
5,106,perceptual,0.03,0.05,target,target,1,7.455
5,107,numeric,0.1,0.05,competitor,decoy,0,4.398
5,108,numeric,0.1,0.2,competitor,target,1,6.47
5,109,numeric,0.1,0.05,competitor,target,1,4.609
5,110,numeric,0.03,0.05,competitor,competitor,0,10.357
5,111,numeric,0.1,0.05,competitor,target,1,4.819
5,112,perceptual,0.03,0.05,competitor,competitor,0,3.654
5,113,numeric,0.03,0.2,competitor,competitor,0,4.622
5,114,perceptual,0.1,0.05,target,target,1,6.82
5,115,numeric,0.03,0.05,target,target,1,5.406
5,116,numeric,0.03,0.2,competitor,target,1,6.979
5,117,perceptual,0.1,0.05,target,target,1,3.846
5,118,perceptual,0.1,0.2,target,competitor,0,4.262
5,119,perceptual,0.03,0.05,competitor,target,1,5.759
5,120,perceptual,0.03,0.05,target,target,1,8.628
5,121,perceptual,0.03,0.05,target,target,1,8.43
5,122,perceptual,0.03,0.05,competitor,competitor,0,6.767
5,123,numeric,0.1,0.05,competitor,competitor,0,7.997
5,124,numeric,0.03,0.05,competitor,target,1,9.494
5,125,numeric,0.1,0.2,competitor,target,1,6.571
5,126,perceptual,0.1,0.2,competitor,target,1,4.755
5,127,perceptual,0.1,0.2,competitor,target,1,5.025
5,128,numeric,0.03,0.05,competitor,target,1,9.261
5,129,perceptual,0.03,0.2,target,target,1,5.485
5,130,numeric,0.03,0.05,target,competitor,0,12.835
5,131,perceptual,0.03,0.05,target,target,1,7.946
5,132,perceptual,0.1,0.2,competitor,target,1,7.193
5,133,perceptual,0.03,0.05,target,competitor,0,9.514
5,134,numeric,0.03,0.05,target,target,1,5.12
5,135,perceptual,0.03,0.2,competitor,target,1,6.974
5,136,perceptual,0.03,0.2,competitor,competitor,0,8.733
5,137,numeric,0.03,0.05,competitor,target,1,6.532
5,138,numeric,0.1,0.2,target,target,1,6.939
5,139,numeric,0.03,0.05,competitor,target,1,7.59
5,140,perceptual,0.1,0.2,competitor,target,1,5.093
5,141,numeric,0.03,0.2,competitor,competitor,0,4.494
5,142,perceptual,0.03,0.2,competitor,target,1,6.797
5,143,numeric,0.1,0.05,competitor,target,1,11.104
5,144,perceptual,0.1,0.05,competitor,target,1,7.789
5,145,numeric,0.1,0.05,competitor,competitor,0,7.943
5,146,numeric,0.1,0.05,target,target,1,10.234
5,147,numeric,0.1,0.2,competitor,target,1,8.834
5,148,numeric,0.1,0.05,target,target,1,6.492
5,149,numeric,0.1,0.2,competitor,competitor,0,8.374
5,150,perceptual,0.03,0.2,competitor,target,1,6.79
5,151,numeric,0.03,0.2,target,competitor,0,10.964
5,152,perceptual,0.1,0.05,competitor,target,1,5.323
5,153,numeric,0.03,0.05,target,competitor,0,10.897
5,154,perceptual,0.1,0.2,competitor,target,1,6.093
5,155,numeric,0.03,0.05,target,target,1,10.546
5,156,perceptual,0.03,0.2,target,competitor,0,5.933
5,157,perceptual,0.03,0.2,competitor,target,1,3.618
5,158,perceptual,0.03,0.2,target,target,1,7.526
5,159,numeric,0.1,0.2,target,target,1,5.052
5,160,perceptual,0.03,0.05,competitor,target,1,10.87
5,161,perceptual,0.03,0.05,target,decoy,0,4.729
5,162,numeric,0.03,0.2,competitor,target,1,7.234
5,163,numeric,0.1,0.05,competitor,target,1,13.94
5,164,numeric,0.1,0.2,target,competitor,0,2.61
5,165,perceptual,0.1,0.05,target,target,1,5.333
5,166,perceptual,0.03,0.05,competitor,target,1,5.606
5,167,perceptual,0.03,0.05,competitor,target,1,5.31
5,168,numeric,0.03,0.2,competitor,target,1,5.137
5,169,perceptual,0.03,0.2,target,target,1,5.436
5,170,perceptual,0.03,0.2,target,target,1,5.41
5,171,perceptual,0.1,0.2,target,target,1,4.794
5,172,numeric,0.1,0.2,target,target,1,6.801
5,173,perceptual,0.03,0.2,target,target,1,6.271
5,174,numeric,0.1,0.05,competitor,target,1,9.714
5,175,perceptual,0.1,0.05,competitor,competitor,0,6.443
5,176,numeric,0.1,0.2,competitor,target,1,6.122
5,177,perceptual,0.1,0.05,target,target,1,6.548
5,178,perceptual,0.03,0.05,target,competitor,0,7.05
5,179,numeric,0.03,0.05,competitor,competitor,0,7.535
5,180,perceptual,0.03,0.2,competitor,target,1,8.55
5,181,numeric,0.03,0.05,target,target,1,7.069
5,182,perceptual,0.1,0.05,target,target,1,5.477
5,183,perceptual,0.1,0.05,target,target,1,4.969
5,184,perceptual,0.1,0.05,competitor,target,1,6.494
5,185,numeric,0.03,0.2,target,target,1,4.722
5,186,numeric,0.1,0.2,target,target,1,9.406
5,187,numeric,0.03,0.2,competitor,target,1,5.519
5,188,numeric,0.1,0.2,target,target,1,9.5
5,189,numeric,0.03,0.05,target,competitor,0,6.419
5,190,numeric,0.03,0.2,target,competitor,0,12.482
5,191,perceptual,0.1,0.05,target,target,1,5.261
5,192,perceptual,0.03,0.2,competitor,competitor,0,9.289
6,1,numeric,0.03,0.05,target,target,1,6.345
6,2,numeric,0.03,0.05,competitor,competitor,0,7.18
6,3,numeric,0.1,0.2,target,target,1,4.658
6,4,perceptual,0.1,0.2,target,target,1,4.168
6,5,numeric,0.1,0.2,target,target,1,5.263
6,6,perceptual,0.03,0.2,target,target,1,3.46
6,7,perceptual,0.03,0.05,target,competitor,0,3.074
6,8,numeric,0.1,0.2,target,target,1,5.573
6,9,perceptual,0.1,0.2,competitor,target,1,3.103
6,10,numeric,0.03,0.05,competitor,competitor,0,5.253
6,11,numeric,0.03,0.2,competitor,competitor,0,8.617
6,12,perceptual,0.03,0.2,target,target,1,4.218
6,13,perceptual,0.03,0.05,competitor,target,1,3.058
6,14,numeric,0.1,0.05,competitor,target,1,9.478
6,15,perceptual,0.1,0.05,target,competitor,0,4.149
6,16,perceptual,0.03,0.05,target,target,1,2.892
6,17,perceptual,0.03,0.2,competitor,competitor,0,2.961
6,18,numeric,0.03,0.2,target,target,1,4.308
6,19,numeric,0.03,0.05,target,target,1,6.61
6,20,numeric,0.03,0.2,competitor,target,1,7.279
6,21,numeric,0.1,0.2,competitor,target,1,8.209
6,22,numeric,0.03,0.05,competitor,target,1,3.872
6,23,perceptual,0.1,0.05,competitor,target,1,4.308
6,24,numeric,0.1,0.05,target,target,1,7.569
6,25,perceptual,0.1,0.2,competitor,target,1,6.6
6,26,perceptual,0.03,0.05,competitor,competitor,0,4.301
6,27,perceptual,0.03,0.05,competitor,decoy,0,4.08
6,28,perceptual,0.03,0.2,competitor,competitor,0,2.912
6,29,perceptual,0.03,0.05,competitor,competitor,0,4.451
6,30,perceptual,0.03,0.2,target,competitor,0,3.295
6,31,perceptual,0.1,0.05,target,target,1,5.795
6,32,numeric,0.03,0.2,target,target,1,7.277
6,33,numeric,0.03,0.05,target,target,1,4.148
6,34,numeric,0.03,0.05,competitor,competitor,0,7.642
6,35,numeric,0.03,0.05,competitor,target,1,10.892
6,36,perceptual,0.03,0.05,target,decoy,0,4.518
6,37,numeric,0.1,0.2,target,target,1,5.065
6,38,numeric,0.1,0.05,target,competitor,0,13.343
6,39,numeric,0.03,0.05,competitor,target,1,7.13
6,40,perceptual,0.03,0.2,target,target,1,4.737
6,41,numeric,0.1,0.2,target,target,1,6.486
6,42,perceptual,0.1,0.2,target,target,1,3.408
6,43,perceptual,0.03,0.05,competitor,target,1,3.985
6,44,perceptual,0.03,0.2,target,competitor,0,3.529
6,45,perceptual,0.1,0.2,competitor,target,1,4.56
6,46,perceptual,0.1,0.05,competitor,target,1,3.158
6,47,perceptual,0.03,0.2,competitor,target,1,2.856
6,48,perceptual,0.1,0.05,target,target,1,5.713
6,49,numeric,0.1,0.2,competitor,target,1,5.818
6,50,numeric,0.03,0.2,target,competitor,0,6.392
6,51,perceptual,0.03,0.2,competitor,target,1,3.208
6,52,numeric,0.1,0.05,target,target,1,9.806
6,53,numeric,0.03,0.2,target,competitor,0,6.559
6,54,numeric,0.1,0.05,competitor,target,1,4.423
6,55,numeric,0.03,0.2,target,competitor,0,3.347
6,56,numeric,0.1,0.2,target,target,1,8.4
6,57,perceptual,0.03,0.05,target,target,1,5.637
6,58,numeric,0.03,0.05,target,competitor,0,6.771
6,59,numeric,0.1,0.2,competitor,target,1,7.667
6,60,numeric,0.1,0.05,target,target,1,7.357
6,61,numeric,0.1,0.05,competitor,target,1,8.947
6,62,perceptual,0.03,0.2,competitor,competitor,0,3.798
6,63,perceptual,0.03,0.2,competitor,competitor,0,2.857
6,64,numeric,0.1,0.05,target,target,1,5.992
6,65,perceptual,0.03,0.05,competitor,target,1,4.409
6,66,perceptual,0.1,0.05,competitor,target,1,5.318
6,67,numeric,0.03,0.2,competitor,target,1,6.255
6,68,numeric,0.1,0.05,competitor,target,1,4.573
6,69,perceptual,0.03,0.05,target,target,1,5.128
6,70,perceptual,0.1,0.2,target,target,1,4.307
6,71,perceptual,0.03,0.05,competitor,target,1,3.151
6,72,perceptual,0.03,0.2,competitor,target,1,5.027
6,73,numeric,0.1,0.2,target,target,1,8.835
6,74,perceptual,0.03,0.2,competitor,competitor,0,3.072
6,75,numeric,0.1,0.2,target,target,1,12.99
6,76,perceptual,0.1,0.05,competitor,target,1,3.265
6,77,numeric,0.1,0.2,target,target,1,6.917
6,78,numeric,0.03,0.05,target,target,1,6.308
6,79,perceptual,0.03,0.2,target,competitor,0,5.436
6,80,perceptual,0.03,0.05,target,decoy,0,4.589
6,81,numeric,0.03,0.05,target,target,1,7.436
6,82,numeric,0.03,0.2,competitor,target,1,6.173
6,83,perceptual,0.1,0.05,target,target,1,6.893
6,84,perceptual,0.1,0.05,target,target,1,3.451
6,85,numeric,0.1,0.2,competitor,target,1,7.064
6,86,perceptual,0.1,0.2,competitor,target,1,2.614
6,87,numeric,0.03,0.2,target,target,1,8.253
6,88,perceptual,0.1,0.05,competitor,target,1,3.836
6,89,perceptual,0.1,0.05,competitor,competitor,0,5.792
6,90,perceptual,0.1,0.2,target,target,1,4.101
6,91,perceptual,0.1,0.2,competitor,target,1,3.16
6,92,perceptual,0.03,0.05,target,competitor,0,4.209
6,93,numeric,0.1,0.2,target,target,1,6.581
6,94,perceptual,0.1,0.2,target,target,1,4.357
6,95,numeric,0.03,0.2,competitor,target,1,6.997
6,96,numeric,0.03,0.2,target,target,1,8.943
6,97,numeric,0.1,0.2,target,competitor,0,8.516
6,98,perceptual,0.03,0.05,competitor,target,1,6.114
6,99,numeric,0.1,0.2,competitor,target,1,5.262
6,100,numeric,0.03,0.2,competitor,competitor,0,10.726
6,101,numeric,0.03,0.2,target,target,1,10.633
6,102,numeric,0.1,0.2,competitor,target,1,6.816
6,103,perceptual,0.1,0.2,target,target,1,5.325
6,104,numeric,0.1,0.05,competitor,target,1,6.907
6,105,numeric,0.03,0.2,competitor,target,1,8.034
6,106,numeric,0.1,0.05,competitor,target,1,5.652
6,107,perceptual,0.03,0.2,target,target,1,5.1
6,108,perceptual,0.1,0.05,target,target,1,7.212
6,109,perceptual,0.03,0.2,target,target,1,5.835
6,110,perceptual,0.1,0.05,competitor,competitor,0,3.603
6,111,perceptual,0.1,0.05,target,decoy,0,4.16
6,112,perceptual,0.03,0.05,target,target,1,3.044
6,113,numeric,0.03,0.2,target,target,1,5.718
6,114,perceptual,0.1,0.05,competitor,target,1,5.55
6,115,numeric,0.1,0.2,competitor,target,1,5.333
6,116,numeric,0.1,0.2,competitor,target,1,4.341
6,117,numeric,0.03,0.05,target,target,1,7.886
6,118,perceptual,0.03,0.05,competitor,target,1,2.992
6,119,perceptual,0.1,0.05,target,target,1,3.056
6,120,perceptual,0.03,0.05,competitor,decoy,0,4.48
6,121,perceptual,0.03,0.05,target,target,1,4.215
6,122,perceptual,0.1,0.05,competitor,target,1,3.009
6,123,numeric,0.03,0.2,competitor,competitor,0,10.119
6,124,perceptual,0.03,0.2,competitor,competitor,0,3.856
6,125,numeric,0.03,0.05,competitor,competitor,0,8.242
6,126,numeric,0.03,0.05,competitor,competitor,0,6.259
6,127,perceptual,0.1,0.2,competitor,target,1,3.64
6,128,numeric,0.1,0.2,target,target,1,7.879
6,129,numeric,0.03,0.05,target,target,1,7.714
6,130,perceptual,0.03,0.2,target,competitor,0,3.241
6,131,numeric,0.1,0.05,competitor,target,1,4.797
6,132,numeric,0.03,0.2,competitor,target,1,8.488
6,133,numeric,0.03,0.2,competitor,target,1,5.266
6,134,perceptual,0.1,0.2,competitor,target,1,3.287
6,135,perceptual,0.03,0.05,competitor,target,1,3.736
6,136,numeric,0.03,0.05,competitor,target,1,8.95
6,137,numeric,0.1,0.05,target,target,1,3.934
6,138,numeric,0.1,0.05,competitor,target,1,9.093
6,139,perceptual,0.1,0.2,competitor,target,1,3.139
6,140,numeric,0.03,0.2,target,target,1,8.025
6,141,numeric,0.1,0.2,competitor,target,1,9.812
6,142,numeric,0.03,0.2,target,target,1,4.783
6,143,perceptual,0.1,0.05,competitor,decoy,0,4.039
6,144,numeric,0.1,0.05,competitor,competitor,0,7.336
6,145,perceptual,0.03,0.05,competitor,competitor,0,4.468
6,146,numeric,0.1,0.2,competitor,target,1,4.507
6,147,perceptual,0.1,0.2,competitor,target,1,3.539
6,148,perceptual,0.03,0.2,target,target,1,5.617
6,149,numeric,0.1,0.2,competitor,decoy,0,9.323
6,150,numeric,0.03,0.05,competitor,target,1,5.336
6,151,perceptual,0.03,0.2,target,target,1,5.192
6,152,numeric,0.03,0.05,target,competitor,0,7.457
6,153,perceptual,0.03,0.2,competitor,target,1,7.085
6,154,numeric,0.03,0.05,competitor,target,1,5.174
6,155,numeric,0.1,0.05,target,target,1,6.203
6,156,perceptual,0.1,0.2,competitor,target,1,3.205
6,157,numeric,0.1,0.05,competitor,target,1,5.635
6,158,perceptual,0.03,0.05,target,target,1,3.499
6,159,perceptual,0.1,0.2,target,target,1,3.011
6,160,numeric,0.03,0.2,competitor,competitor,0,10.401
6,161,numeric,0.03,0.2,target,target,1,6.881
6,162,numeric,0.1,0.05,target,target,1,11.117
6,163,perceptual,0.1,0.2,target,target,1,2.758
6,164,perceptual,0.1,0.2,target,competitor,0,4.757
6,165,perceptual,0.1,0.2,target,competitor,0,3.88
6,166,perceptual,0.1,0.05,target,target,1,5.856
6,167,numeric,0.03,0.05,target,target,1,4.254
6,168,perceptual,0.1,0.05,target,competitor,0,0.152
6,169,perceptual,0.1,0.2,competitor,target,1,3.516
6,170,perceptual,0.1,0.2,target,target,1,5.134
6,171,numeric,0.1,0.05,target,target,1,6.356
6,172,numeric,0.1,0.2,competitor,competitor,0,9.248
6,173,numeric,0.1,0.05,target,target,1,5.011
6,174,numeric,0.1,0.05,target,target,1,5.746
6,175,numeric,0.03,0.05,competitor,competitor,0,12.207
6,176,perceptual,0.1,0.2,target,target,1,4.83
6,177,perceptual,0.03,0.05,target,target,1,4.744
6,178,numeric,0.1,0.05,target,target,1,5.775
6,179,perceptual,0.1,0.05,target,decoy,0,5.254
6,180,perceptual,0.1,0.05,target,target,1,2.71
6,181,numeric,0.1,0.05,competitor,competitor,0,5.277
6,182,perceptual,0.1,0.05,competitor,competitor,0,3.627
6,183,perceptual,0.03,0.05,target,target,1,5.022
6,184,numeric,0.03,0.05,target,competitor,0,9.124
6,185,numeric,0.1,0.05,competitor,target,1,7.653
6,186,perceptual,0.03,0.2,competitor,target,1,3.488
6,187,perceptual,0.1,0.05,competitor,target,1,2.872
6,188,numeric,0.03,0.05,target,competitor,0,8.408
6,189,perceptual,0.03,0.2,target,target,1,3.68
6,190,perceptual,0.03,0.2,competitor,target,1,5.012
6,191,perceptual,0.1,0.2,competitor,target,1,2.718
6,192,numeric,0.03,0.2,competitor,competitor,0,11.096
7,1,perceptual,0.03,0.05,target,target,1,8.223
7,2,perceptual,0.1,0.05,target,target,1,4.552
7,3,numeric,0.1,0.2,target,target,1,5.882
7,4,perceptual,0.1,0.2,competitor,target,1,5.027
7,5,numeric,0.03,0.05,target,target,1,6.473
7,6,numeric,0.1,0.2,target,target,1,7.816
7,7,perceptual,0.1,0.2,target,target,1,5.036
7,8,perceptual,0.03,0.2,target,target,1,7.865
7,9,numeric,0.03,0.2,target,target,1,6.283
7,10,numeric,0.1,0.2,competitor,target,1,7.5
7,11,numeric,0.1,0.2,competitor,target,1,5.149
7,12,numeric,0.03,0.2,target,competitor,0,10.17
7,13,numeric,0.03,0.05,target,target,1,7.757
7,14,numeric,0.1,0.05,competitor,target,1,7.516
7,15,numeric,0.1,0.05,target,target,1,9.553
7,16,perceptual,0.1,0.05,competitor,target,1,5.733
7,17,perceptual,0.1,0.05,target,target,1,4.24
7,18,perceptual,0.1,0.2,competitor,target,1,4.764
7,19,perceptual,0.03,0.05,target,target,1,4.973
7,20,perceptual,0.03,0.2,target,target,1,3.915
7,21,numeric,0.1,0.05,competitor,target,1,6.566
7,22,numeric,0.1,0.2,target,target,1,7.373
7,23,perceptual,0.03,0.05,competitor,target,1,7.713
7,24,numeric,0.03,0.05,competitor,target,1,8.084
7,25,perceptual,0.1,0.2,competitor,target,1,6.1
7,26,perceptual,0.03,0.05,competitor,target,1,10.371
7,27,numeric,0.1,0.05,competitor,competitor,0,7.013
7,28,numeric,0.1,0.05,target,competitor,0,10.15
7,29,numeric,0.03,0.05,target,target,1,8.254
7,30,perceptual,0.03,0.05,target,target,1,6.566
7,31,perceptual,0.1,0.2,competitor,competitor,0,5.932
7,32,perceptual,0.03,0.05,competitor,target,1,5.723
7,33,perceptual,0.03,0.2,target,target,1,5.489
7,34,numeric,0.03,0.2,target,target,1,8.917
7,35,numeric,0.03,0.2,competitor,competitor,0,10.589
7,36,perceptual,0.03,0.2,competitor,competitor,0,6.982
7,37,numeric,0.1,0.05,competitor,target,1,5.832
7,38,perceptual,0.03,0.05,competitor,target,1,8.509
7,39,perceptual,0.03,0.05,target,decoy,0,8.241
7,40,perceptual,0.03,0.05,competitor,competitor,0,7.897
7,41,numeric,0.03,0.05,target,target,1,8.055
7,42,perceptual,0.03,0.2,competitor,target,1,9.633
7,43,perceptual,0.03,0.2,target,competitor,0,7.127
7,44,perceptual,0.1,0.2,target,target,1,8.515
7,45,perceptual,0.1,0.05,competitor,target,1,5.916
7,46,perceptual,0.1,0.05,target,target,1,5.834
7,47,perceptual,0.1,0.2,target,competitor,0,9.051
7,48,numeric,0.03,0.2,target,target,1,6.548
7,49,perceptual,0.03,0.2,target,target,1,3.572
7,50,perceptual,0.1,0.05,competitor,decoy,0,3.531
7,51,perceptual,0.03,0.05,target,decoy,0,9.068
7,52,perceptual,0.03,0.05,target,target,1,11.55
7,53,perceptual,0.1,0.2,target,decoy,0,6.11
7,54,perceptual,0.03,0.05,target,competitor,0,8.567
7,55,numeric,0.1,0.2,competitor,competitor,0,7.046
7,56,perceptual,0.03,0.2,competitor,target,1,9.782
7,57,perceptual,0.1,0.05,competitor,target,1,5.183
7,58,numeric,0.1,0.05,target,target,1,7.073
7,59,numeric,0.1,0.2,competitor,competitor,0,8.868
7,60,perceptual,0.1,0.2,target,target,1,4.947
7,61,perceptual,0.03,0.2,target,competitor,0,4.425
7,62,numeric,0.1,0.2,target,target,1,11.048
7,63,perceptual,0.1,0.05,target,target,1,6.157
7,64,numeric,0.1,0.2,target,target,1,4.571
7,65,numeric,0.03,0.05,competitor,target,1,4.587
7,66,perceptual,0.03,0.2,competitor,target,1,5.406
7,67,perceptual,0.1,0.2,competitor,target,1,5.048
7,68,numeric,0.1,0.2,target,target,1,6.552
7,69,perceptual,0.1,0.2,target,target,1,4.144
7,70,numeric,0.1,0.05,competitor,target,1,6.28
7,71,numeric,0.1,0.05,target,target,1,7.332
7,72,numeric,0.03,0.05,competitor,target,1,5.632
7,73,numeric,0.03,0.2,competitor,competitor,0,8.97
7,74,numeric,0.1,0.2,competitor,competitor,0,8.585
7,75,numeric,0.03,0.2,target,target,1,11.853
7,76,numeric,0.03,0.05,target,competitor,0,8.433
7,77,numeric,0.03,0.05,target,target,1,10.098
7,78,perceptual,0.03,0.05,target,target,1,10.765
7,79,perceptual,0.1,0.2,target,target,1,6.741
7,80,perceptual,0.03,0.2,competitor,competitor,0,6.387
7,81,perceptual,0.03,0.05,competitor,decoy,0,9.009
7,82,perceptual,0.03,0.2,target,competitor,0,8.267
7,83,numeric,0.03,0.2,competitor,competitor,0,4.9
7,84,perceptual,0.1,0.2,competitor,target,1,3.706
7,85,numeric,0.03,0.2,competitor,target,1,5.897
7,86,perceptual,0.1,0.2,target,target,1,6.022
7,87,perceptual,0.1,0.2,competitor,target,1,9.89
7,88,perceptual,0.1,0.2,target,target,1,7.382
7,89,numeric,0.1,0.05,competitor,target,1,4.832
7,90,numeric,0.03,0.2,target,competitor,0,8.878
7,91,perceptual,0.03,0.05,target,target,1,10.046
7,92,perceptual,0.1,0.05,target,target,1,8.615
7,93,numeric,0.1,0.05,competitor,target,1,5.151
7,94,perceptual,0.1,0.05,target,decoy,0,7.982
7,95,numeric,0.03,0.05,competitor,competitor,0,11.715
7,96,perceptual,0.1,0.2,target,target,1,7.632
7,97,perceptual,0.1,0.2,competitor,target,1,4.839
7,98,perceptual,0.1,0.05,competitor,target,1,5.337
7,99,perceptual,0.1,0.05,competitor,target,1,7.866
7,100,perceptual,0.1,0.05,target,decoy,0,9.836
7,101,perceptual,0.03,0.05,competitor,target,1,15.931
7,102,perceptual,0.1,0.05,competitor,target,1,4.384
7,103,perceptual,0.1,0.05,target,target,1,11.724
7,104,numeric,0.03,0.05,competitor,target,1,4.92
7,105,perceptual,0.03,0.2,target,target,1,4.564
7,106,numeric,0.1,0.05,competitor,target,1,4.348
7,107,perceptual,0.03,0.05,competitor,target,1,4.43
7,108,numeric,0.1,0.05,target,target,1,5.502
7,109,numeric,0.03,0.2,target,target,1,5.019
7,110,numeric,0.03,0.2,target,target,1,7.433
7,111,perceptual,0.1,0.05,competitor,target,1,4.099
7,112,perceptual,0.1,0.2,target,target,1,3.435
7,113,numeric,0.1,0.2,target,target,1,7.389
7,114,perceptual,0.03,0.2,competitor,target,1,6.052
7,115,numeric,0.1,0.05,target,target,1,5.707
7,116,numeric,0.1,0.2,target,target,1,3.949
7,117,perceptual,0.1,0.2,competitor,target,1,4.399
7,118,numeric,0.1,0.05,competitor,target,1,6.777
7,119,perceptual,0.03,0.2,target,competitor,0,2.748
7,120,numeric,0.03,0.05,target,competitor,0,7.984
7,121,perceptual,0.1,0.2,competitor,target,1,4.117
7,122,perceptual,0.1,0.05,target,target,1,9.683
7,123,numeric,0.03,0.2,competitor,target,1,16.697
7,124,numeric,0.03,0.2,competitor,target,1,13.995
7,125,numeric,0.03,0.05,competitor,target,1,13.321
7,126,numeric,0.1,0.2,competitor,target,1,7.038
7,127,perceptual,0.03,0.2,competitor,competitor,0,10.202
7,128,numeric,0.03,0.05,competitor,target,1,7.15
7,129,perceptual,0.03,0.2,competitor,target,1,4.589
7,130,numeric,0.1,0.05,competitor,target,1,5.8
7,131,numeric,0.1,0.2,target,competitor,0,7.891
7,132,numeric,0.1,0.2,target,target,1,8.719
7,133,numeric,0.03,0.2,competitor,competitor,0,9.55
7,134,numeric,0.1,0.05,target,target,1,8.514
7,135,numeric,0.03,0.05,target,target,1,14.571
7,136,numeric,0.1,0.2,competitor,target,1,10.38
7,137,numeric,0.03,0.2,target,target,1,6.209
7,138,numeric,0.1,0.2,competitor,target,1,6.218
7,139,perceptual,0.1,0.05,competitor,target,1,5.334
7,140,perceptual,0.03,0.05,target,competitor,0,5.92
7,141,numeric,0.1,0.2,target,target,1,10.67
7,142,numeric,0.03,0.05,competitor,target,1,12.132
7,143,numeric,0.03,0.2,target,competitor,0,6.716
7,144,numeric,0.03,0.05,target,target,1,16.32
7,145,perceptual,0.1,0.05,target,target,1,7.376
7,146,numeric,0.1,0.05,target,target,1,5.673
7,147,numeric,0.03,0.2,competitor,target,1,6.507
7,148,numeric,0.03,0.05,target,target,1,10.235
7,149,perceptual,0.1,0.2,target,target,1,7.184
7,150,numeric,0.03,0.2,target,target,1,14.174
7,151,perceptual,0.1,0.05,target,target,1,4.354
7,152,numeric,0.1,0.2,competitor,target,1,9.316
7,153,numeric,0.03,0.05,target,target,1,15.221
7,154,perceptual,0.03,0.2,target,competitor,0,11.732
7,155,numeric,0.1,0.05,target,target,1,5.015
7,156,perceptual,0.03,0.2,target,target,1,10.783
7,157,perceptual,0.03,0.05,target,target,1,8.805
7,158,perceptual,0.03,0.05,target,target,1,6.633
7,159,numeric,0.03,0.05,competitor,target,1,12.865
7,160,perceptual,0.03,0.05,competitor,competitor,0,11.957
7,161,perceptual,0.1,0.05,target,decoy,0,7.928
7,162,numeric,0.03,0.05,competitor,target,1,6.365
7,163,perceptual,0.03,0.2,target,competitor,0,7.016
7,164,numeric,0.1,0.05,target,target,1,8.088
7,165,perceptual,0.1,0.2,competitor,competitor,0,6.998
7,166,numeric,0.03,0.05,target,target,1,6.904
7,167,numeric,0.03,0.05,competitor,competitor,0,8.337
7,168,numeric,0.03,0.2,competitor,target,1,10.551
7,169,numeric,0.03,0.2,competitor,competitor,0,9.415
7,170,perceptual,0.1,0.05,competitor,target,1,5.95
7,171,perceptual,0.1,0.2,competitor,target,1,6.772
7,172,numeric,0.1,0.2,competitor,target,1,10.79
7,173,numeric,0.03,0.05,competitor,competitor,0,9.994
7,174,numeric,0.1,0.05,target,target,1,11.417
7,175,perceptual,0.03,0.2,competitor,competitor,0,6.249
7,176,perceptual,0.03,0.05,competitor,target,1,7.215
7,177,perceptual,0.03,0.2,competitor,target,1,8.429
7,178,numeric,0.1,0.05,competitor,target,1,6.563
7,179,numeric,0.1,0.05,competitor,target,1,6.479
7,180,perceptual,0.1,0.05,competitor,target,1,6.289
7,181,perceptual,0.03,0.2,competitor,competitor,0,6.288
7,182,numeric,0.03,0.2,target,target,1,15.24
7,183,perceptual,0.03,0.2,competitor,target,1,8.155
7,184,numeric,0.1,0.2,competitor,target,1,14.065
7,185,perceptual,0.03,0.05,competitor,competitor,0,6.585
7,186,numeric,0.1,0.2,competitor,target,1,9.049
7,187,perceptual,0.03,0.05,competitor,competitor,0,7.513
7,188,numeric,0.1,0.2,target,target,1,8.176
7,189,numeric,0.1,0.05,target,target,1,8.17
7,190,perceptual,0.1,0.05,competitor,target,1,6.873
7,191,numeric,0.03,0.2,competitor,target,1,7.789
7,192,numeric,0.03,0.2,competitor,target,1,17.549
8,1,perceptual,0.1,0.05,competitor,target,1,6.122
8,2,perceptual,0.1,0.05,competitor,target,1,6.457
8,3,perceptual,0.03,0.05,target,decoy,0,9.319
8,4,numeric,0.1,0.2,target,target,1,8.163
8,5,perceptual,0.03,0.2,target,target,1,8.829
8,6,perceptual,0.03,0.2,competitor,competitor,0,5.74
8,7,numeric,0.1,0.05,competitor,target,1,5.129
8,8,numeric,0.03,0.05,target,decoy,0,5.691
8,9,perceptual,0.1,0.2,target,target,1,5.718
8,10,perceptual,0.03,0.05,target,target,1,5.843
8,11,perceptual,0.03,0.2,target,competitor,0,4.012
8,12,perceptual,0.1,0.2,target,target,1,4.711
8,13,perceptual,0.1,0.2,target,target,1,6.169
8,14,perceptual,0.1,0.2,competitor,target,1,3.987
8,15,numeric,0.1,0.05,competitor,target,1,4.8
8,16,numeric,0.1,0.2,target,target,1,7.046
8,17,perceptual,0.03,0.2,competitor,target,1,6.062
8,18,numeric,0.1,0.05,competitor,target,1,4.501
8,19,perceptual,0.1,0.2,target,target,1,3.789
8,20,perceptual,0.03,0.05,competitor,target,1,4.861
8,21,numeric,0.03,0.2,competitor,competitor,0,18.293
8,22,numeric,0.03,0.2,target,target,1,4.026
8,23,perceptual,0.1,0.05,competitor,target,1,3.409
8,24,numeric,0.03,0.05,competitor,target,1,6.623
8,25,numeric,0.03,0.2,competitor,competitor,0,9.827
8,26,perceptual,0.1,0.05,target,target,1,6.552
8,27,perceptual,0.1,0.05,competitor,target,1,4.924
8,28,perceptual,0.03,0.2,target,competitor,0,5.264
8,29,perceptual,0.03,0.05,target,competitor,0,5.733
8,30,perceptual,0.03,0.2,competitor,target,1,5.937
8,31,perceptual,0.03,0.05,competitor,target,1,3.364
8,32,perceptual,0.1,0.2,target,target,1,4.54
8,33,numeric,0.03,0.2,competitor,target,1,11.256
8,34,numeric,0.1,0.2,competitor,competitor,0,7.498
8,35,numeric,0.03,0.05,target,target,1,11.188
8,36,numeric,0.03,0.05,target,target,1,2.954
8,37,perceptual,0.1,0.05,target,decoy,0,4.28
8,38,numeric,0.1,0.05,competitor,competitor,0,2.96
8,39,perceptual,0.03,0.05,target,competitor,0,2.952
8,40,numeric,0.03,0.05,competitor,decoy,0,2.457
8,41,perceptual,0.03,0.05,competitor,target,1,2.724
8,42,perceptual,0.03,0.2,target,target,1,3.053
8,43,numeric,0.03,0.2,competitor,competitor,0,12.453
8,44,numeric,0.03,0.2,competitor,competitor,0,6.776
8,45,perceptual,0.1,0.2,competitor,competitor,0,3.167
8,46,numeric,0.03,0.2,target,target,1,6.685
8,47,perceptual,0.03,0.2,competitor,target,1,4.449
8,48,numeric,0.03,0.05,competitor,target,1,13.663
8,49,numeric,0.1,0.05,target,target,1,10.18
8,50,perceptual,0.1,0.2,competitor,competitor,0,7.428
8,51,numeric,0.1,0.2,target,target,1,7.098
8,52,numeric,0.1,0.2,target,target,1,9.213
8,53,numeric,0.03,0.2,target,target,1,6.955
8,54,perceptual,0.1,0.05,competitor,target,1,6.347
8,55,perceptual,0.03,0.05,target,target,1,5.469
8,56,numeric,0.03,0.05,target,target,1,8.285
8,57,perceptual,0.03,0.05,target,target,1,3.477
8,58,numeric,0.03,0.2,target,target,1,7.648
8,59,perceptual,0.03,0.05,target,target,1,7.274
8,60,perceptual,0.1,0.2,competitor,target,1,3.263
8,61,numeric,0.03,0.2,competitor,target,1,4.277
8,62,perceptual,0.1,0.05,target,decoy,0,3.963
8,63,numeric,0.1,0.05,target,target,1,8.112
8,64,numeric,0.03,0.05,target,target,1,8.535
8,65,perceptual,0.03,0.2,competitor,target,1,6.287
8,66,numeric,0.03,0.05,target,target,1,5.842
8,67,numeric,0.03,0.2,target,target,1,8.939
8,68,numeric,0.1,0.2,target,target,1,3.417
8,69,perceptual,0.03,0.05,competitor,competitor,0,2.647
8,70,perceptual,0.1,0.2,target,target,1,2.943
8,71,numeric,0.1,0.05,competitor,target,1,3.679
8,72,perceptual,0.03,0.05,competitor,target,1,4.002
8,73,numeric,0.03,0.05,competitor,decoy,0,5.189
8,74,numeric,0.1,0.2,competitor,target,1,3.028
8,75,numeric,0.1,0.2,competitor,target,1,8.231
8,76,perceptual,0.03,0.05,target,target,1,4.866
8,77,perceptual,0.03,0.05,competitor,target,1,2.78
8,78,perceptual,0.1,0.05,competitor,target,1,3.36
8,79,perceptual,0.03,0.05,competitor,competitor,0,8.94
8,80,perceptual,0.03,0.2,competitor,decoy,0,0.013
8,81,numeric,0.03,0.05,target,target,1,7.011
8,82,numeric,0.1,0.2,target,target,1,6.246
8,83,numeric,0.03,0.05,competitor,target,1,11.199
8,84,numeric,0.03,0.2,target,target,1,3.352
8,85,perceptual,0.1,0.05,target,competitor,0,4.664
8,86,perceptual,0.1,0.05,competitor,target,1,2.968
8,87,numeric,0.1,0.2,target,target,1,3.244
8,88,numeric,0.03,0.2,competitor,target,1,3.455
8,89,numeric,0.1,0.05,target,target,1,8.368
8,90,perceptual,0.03,0.2,target,target,1,3.258
8,91,numeric,0.1,0.2,competitor,competitor,0,9.321
8,92,numeric,0.1,0.2,competitor,decoy,0,3.979
8,93,numeric,0.1,0.05,competitor,competitor,0,8.995
8,94,numeric,0.1,0.05,target,target,1,7.101
8,95,perceptual,0.1,0.05,competitor,target,1,2.725
8,96,numeric,0.03,0.2,target,competitor,0,6.746
8,97,perceptual,0.03,0.2,target,target,1,3.551
8,98,numeric,0.1,0.2,target,target,1,5.14
8,99,numeric,0.1,0.2,target,target,1,3.93
8,100,perceptual,0.03,0.2,competitor,target,1,4.375
8,101,numeric,0.03,0.05,target,target,1,4.895
8,102,perceptual,0.03,0.2,target,competitor,0,4.285
8,103,numeric,0.03,0.2,competitor,competitor,0,6.193
8,104,numeric,0.03,0.2,target,target,1,4.281
8,105,perceptual,0.1,0.2,competitor,target,1,2.853
8,106,perceptual,0.03,0.2,competitor,competitor,0,5.55
8,107,perceptual,0.1,0.05,target,target,1,3.298
8,108,numeric,0.03,0.05,target,target,1,7.537
8,109,perceptual,0.1,0.2,competitor,target,1,3.327
8,110,perceptual,0.1,0.05,competitor,target,1,2.98
8,111,numeric,0.03,0.05,competitor,competitor,0,6.847
8,112,perceptual,0.1,0.2,competitor,target,1,2.818
8,113,numeric,0.1,0.2,competitor,target,1,6.882
8,114,numeric,0.03,0.2,competitor,target,1,5.714
8,115,numeric,0.1,0.2,competitor,target,1,5.317
8,116,numeric,0.03,0.2,competitor,target,1,6.289
8,117,perceptual,0.03,0.2,competitor,competitor,0,3.15
8,118,perceptual,0.03,0.05,target,decoy,0,3.372
8,119,numeric,0.03,0.05,competitor,target,1,4.315
8,120,perceptual,0.03,0.2,target,competitor,0,6.113
8,121,numeric,0.1,0.2,target,target,1,12.156
8,122,numeric,0.1,0.05,competitor,target,1,7.315
8,123,numeric,0.03,0.05,target,target,1,8.351
8,124,perceptual,0.1,0.2,competitor,competitor,0,2.823
8,125,numeric,0.03,0.2,target,target,1,7.491
8,126,perceptual,0.03,0.05,competitor,competitor,0,3.515
8,127,numeric,0.03,0.2,competitor,target,1,7.679
8,128,numeric,0.1,0.05,competitor,target,1,7.292
8,129,perceptual,0.03,0.2,competitor,competitor,0,3.195
8,130,numeric,0.1,0.05,target,target,1,6.213
8,131,perceptual,0.03,0.2,competitor,target,1,3.469
8,132,numeric,0.03,0.05,competitor,target,1,6.151
8,133,perceptual,0.1,0.2,target,target,1,3.499
8,134,perceptual,0.03,0.05,target,competitor,0,3.249
8,135,perceptual,0.1,0.2,target,target,1,4.059
8,136,numeric,0.1,0.05,competitor,target,1,6.179
8,137,numeric,0.1,0.05,target,target,1,7.03
8,138,numeric,0.1,0.05,target,target,1,6.168
8,139,perceptual,0.1,0.2,target,target,1,3.228
8,140,perceptual,0.1,0.05,target,target,1,5.471
8,141,perceptual,0.1,0.05,competitor,target,1,4.547
8,142,numeric,0.1,0.2,competitor,target,1,6.467
8,143,perceptual,0.1,0.2,competitor,competitor,0,3.044
8,144,perceptual,0.1,0.2,competitor,target,1,2.582
8,145,numeric,0.1,0.05,competitor,target,1,5.359
8,146,numeric,0.03,0.2,competitor,competitor,0,4.819
8,147,numeric,0.1,0.2,competitor,target,1,6.486
8,148,perceptual,0.1,0.05,competitor,target,1,2.694
8,149,perceptual,0.1,0.05,competitor,target,1,6.824
8,150,numeric,0.1,0.05,target,target,1,8.516
8,151,perceptual,0.1,0.05,target,target,1,7.75
8,152,numeric,0.03,0.05,target,target,1,7.157
8,153,numeric,0.03,0.05,competitor,target,1,5.719
8,154,perceptual,0.03,0.05,target,target,1,3.052
8,155,perceptual,0.1,0.2,target,target,1,3.469
8,156,perceptual,0.1,0.05,target,decoy,0,2.825
8,157,perceptual,0.1,0.05,target,target,1,5.048
8,158,numeric,0.1,0.05,target,target,1,8.923
8,159,numeric,0.1,0.05,target,target,1,9.438
8,160,numeric,0.1,0.05,competitor,target,1,5.91
8,161,numeric,0.03,0.05,competitor,competitor,0,10.128
8,162,perceptual,0.03,0.2,target,target,1,3.742
8,163,numeric,0.1,0.2,target,target,1,7.849
8,164,numeric,0.1,0.05,competitor,competitor,0,4.864
8,165,perceptual,0.03,0.05,competitor,target,1,5.506
8,166,numeric,0.03,0.2,target,competitor,0,4.405
8,167,perceptual,0.1,0.2,target,target,1,8.487
8,168,numeric,0.03,0.05,competitor,target,1,6.966
8,169,numeric,0.1,0.05,target,target,1,7.565
8,170,numeric,0.1,0.2,competitor,target,1,7.974
8,171,numeric,0.03,0.2,target,target,1,8.07
8,172,perceptual,0.1,0.05,target,target,1,4.257
8,173,perceptual,0.03,0.05,competitor,target,1,3.913
8,174,numeric,0.03,0.2,target,competitor,0,8.859
8,175,numeric,0.1,0.2,target,target,1,12.934
8,176,perceptual,0.03,0.05,competitor,competitor,0,3.289
8,177,numeric,0.1,0.2,competitor,target,1,7.645
8,178,perceptual,0.1,0.2,competitor,competitor,0,2.594
8,179,perceptual,0.1,0.05,target,target,1,3.845
8,180,numeric,0.1,0.05,target,target,1,11.397
8,181,perceptual,0.03,0.2,target,competitor,0,3.115
8,182,perceptual,0.1,0.2,competitor,target,1,5.127
8,183,perceptual,0.1,0.2,target,target,1,3.684
8,184,perceptual,0.03,0.05,competitor,decoy,0,4.358
8,185,perceptual,0.1,0.05,target,decoy,0,3.858
8,186,numeric,0.03,0.05,competitor,competitor,0,19.235
8,187,numeric,0.1,0.2,competitor,target,1,5.314
8,188,perceptual,0.03,0.2,target,competitor,0,2.933
8,189,numeric,0.03,0.05,target,target,1,6.525
8,190,perceptual,0.03,0.2,competitor,target,1,5.159
8,191,perceptual,0.03,0.2,target,target,1,4.334
8,192,perceptual,0.03,0.05,target,competitor,0,5.987
9,1,perceptual,0.1,0.05,target,target,1,11.206
9,2,perceptual,0.03,0.2,target,decoy,0,12.097
9,3,numeric,0.1,0.2,competitor,target,1,8.41
9,4,perceptual,0.03,0.05,competitor,target,1,8.313
9,5,perceptual,0.1,0.05,target,competitor,0,10.328
9,6,numeric,0.1,0.2,target,target,1,18.981
9,7,numeric,0.1,0.2,competitor,competitor,0,12.611
9,8,numeric,0.03,0.05,competitor,competitor,0,12.367
9,9,numeric,0.03,0.05,competitor,competitor,0,11.434
9,10,numeric,0.03,0.05,target,target,1,12.887
9,11,numeric,0.1,0.2,target,target,1,10.796
9,12,perceptual,0.03,0.2,target,competitor,0,9.093
9,13,numeric,0.1,0.05,target,target,1,14.211
9,14,perceptual,0.03,0.2,competitor,target,1,4.743
9,15,numeric,0.03,0.2,target,target,1,4.178
9,16,numeric,0.1,0.05,target,target,1,5.412
9,17,perceptual,0.1,0.05,competitor,decoy,0,13.547
9,18,numeric,0.03,0.05,competitor,decoy,0,11.395
9,21,numeric,0.1,0.05,competitor,competitor,0,14.61
9,22,perceptual,0.03,0.05,target,target,1,12.142
9,23,numeric,0.1,0.05,competitor,target,1,17.925
9,24,numeric,0.1,0.2,target,target,1,13.219
9,25,numeric,0.03,0.2,competitor,competitor,0,8.198
9,26,perceptual,0.03,0.2,competitor,target,1,13.919
9,28,numeric,0.03,0.05,target,target,1,0.645
9,29,numeric,0.1,0.05,competitor,competitor,0,8.711
9,30,numeric,0.1,0.05,target,target,1,11.496
9,31,numeric,0.03,0.2,competitor,competitor,0,15.347
9,32,perceptual,0.03,0.2,target,competitor,0,9.986
9,33,perceptual,0.03,0.2,competitor,competitor,0,12.761
9,34,numeric,0.1,0.05,target,competitor,0,11.923
9,35,perceptual,0.03,0.05,competitor,competitor,0,4.994
9,36,numeric,0.1,0.2,target,target,1,11.101
9,37,numeric,0.1,0.05,target,target,1,5.422
9,38,perceptual,0.1,0.2,target,target,1,6.362
9,39,numeric,0.1,0.2,competitor,decoy,0,6.207
9,40,numeric,0.03,0.2,target,target,1,7.294
9,41,numeric,0.1,0.05,competitor,target,1,6.317
9,42,numeric,0.1,0.2,competitor,target,1,3.096
9,43,numeric,0.03,0.2,target,target,1,5.232
9,44,perceptual,0.03,0.05,target,target,1,5.496
9,45,perceptual,0.03,0.2,target,target,1,4.976
9,46,numeric,0.03,0.2,target,target,1,6.928
9,47,perceptual,0.1,0.2,target,target,1,4.28
9,48,perceptual,0.1,0.2,competitor,target,1,2.374
9,49,perceptual,0.1,0.2,target,target,1,4.385
9,52,numeric,0.1,0.2,target,target,1,5.676
9,53,perceptual,0.03,0.2,target,target,1,5.164
9,54,numeric,0.1,0.2,target,target,1,4.145
9,55,numeric,0.03,0.2,competitor,target,1,5.767
9,56,perceptual,0.03,0.2,target,target,1,9.227
9,57,perceptual,0.1,0.2,target,target,1,6.896
9,58,numeric,0.1,0.2,target,target,1,5.278
9,59,perceptual,0.1,0.05,competitor,target,1,4.428
9,60,perceptual,0.03,0.05,target,decoy,0,7.694
9,61,perceptual,0.1,0.05,target,target,1,2.408
9,62,numeric,0.03,0.05,target,decoy,0,4.829
9,63,perceptual,0.1,0.2,target,target,1,5.101
9,64,numeric,0.03,0.2,competitor,target,1,7.423
9,65,perceptual,0.03,0.2,competitor,target,1,5.351
9,66,numeric,0.03,0.05,competitor,target,1,6.697
9,67,perceptual,0.1,0.2,competitor,target,1,16.691
9,68,numeric,0.03,0.05,target,decoy,0,6.2
9,69,numeric,0.03,0.05,target,competitor,0,2.505
9,70,numeric,0.1,0.2,target,competitor,0,3.166
9,71,numeric,0.03,0.2,competitor,target,1,2.671
9,72,numeric,0.03,0.2,target,competitor,0,2.832
9,73,perceptual,0.03,0.05,competitor,competitor,0,4.265
9,74,numeric,0.1,0.05,competitor,target,1,3.995
9,75,perceptual,0.03,0.05,target,target,1,4.875
9,76,perceptual,0.03,0.2,target,target,1,5.691
9,77,perceptual,0.03,0.05,target,decoy,0,5.425
9,78,numeric,0.1,0.05,target,decoy,0,4.796
9,79,numeric,0.1,0.05,competitor,target,1,4.465
9,80,numeric,0.03,0.05,target,target,1,16.767
9,81,numeric,0.1,0.05,competitor,target,1,7.164
9,82,numeric,0.03,0.05,target,decoy,0,4.729
9,83,perceptual,0.03,0.2,competitor,target,1,4.951
9,84,numeric,0.1,0.05,target,decoy,0,7.14
9,85,perceptual,0.03,0.2,competitor,competitor,0,3.207
9,86,numeric,0.03,0.2,competitor,target,1,2.203
9,87,perceptual,0.1,0.2,target,decoy,0,4.238
9,88,perceptual,0.03,0.2,competitor,competitor,0,3.729
9,89,numeric,0.03,0.2,target,target,1,5.858
9,90,numeric,0.1,0.05,target,decoy,0,5.092
9,91,numeric,0.03,0.05,competitor,decoy,0,6.741
9,92,numeric,0.1,0.2,target,target,1,9.161
9,93,perceptual,0.03,0.2,competitor,target,1,5.728
9,94,numeric,0.1,0.2,target,target,1,5.347
9,95,perceptual,0.03,0.05,target,decoy,0,12.749
9,96,perceptual,0.1,0.2,competitor,decoy,0,4.259
9,97,perceptual,0.03,0.05,competitor,target,1,3.817
9,98,perceptual,0.03,0.05,competitor,target,1,5.178
9,99,numeric,0.03,0.05,competitor,target,1,9.246
9,100,perceptual,0.03,0.2,target,target,1,7.906
9,101,numeric,0.1,0.05,competitor,target,1,5.303
9,102,numeric,0.03,0.05,target,target,1,5.372
9,103,perceptual,0.1,0.05,competitor,target,1,5.468
9,104,numeric,0.1,0.05,target,decoy,0,4.121
9,105,perceptual,0.03,0.2,target,target,1,3.469
9,106,numeric,0.03,0.2,target,competitor,0,3.932
9,107,perceptual,0.1,0.05,competitor,target,1,4.067
9,108,numeric,0.1,0.05,competitor,target,1,3.904
9,109,perceptual,0.1,0.05,competitor,target,1,4.747
9,110,perceptual,0.03,0.05,competitor,competitor,0,4.822
9,111,numeric,0.1,0.2,competitor,target,1,8.832
9,112,perceptual,0.1,0.05,competitor,competitor,0,5.482
9,113,perceptual,0.1,0.2,target,target,1,3.699
9,114,perceptual,0.03,0.05,target,target,1,7.839
9,115,perceptual,0.03,0.05,target,target,1,3.826
9,116,perceptual,0.03,0.2,competitor,competitor,0,3.88
9,117,numeric,0.03,0.05,competitor,competitor,0,4.984
9,118,perceptual,0.1,0.05,competitor,decoy,0,7.961
9,119,perceptual,0.1,0.05,competitor,target,1,8.147
9,120,numeric,0.1,0.2,competitor,target,1,3.543
9,121,numeric,0.1,0.2,competitor,decoy,0,3.985
9,122,numeric,0.03,0.05,target,decoy,0,4.431
9,123,numeric,0.03,0.05,competitor,decoy,0,8.253
9,124,numeric,0.03,0.05,target,decoy,0,10.387
9,125,numeric,0.1,0.2,competitor,target,1,4.083
9,126,perceptual,0.1,0.2,target,target,1,5.326
9,127,numeric,0.03,0.05,competitor,target,1,3.309
9,128,numeric,0.03,0.2,target,competitor,0,5.124
9,129,perceptual,0.03,0.2,target,competitor,0,4.732
9,130,perceptual,0.1,0.05,target,target,1,5.046
9,131,numeric,0.1,0.2,target,target,1,5.215
9,132,perceptual,0.03,0.2,competitor,target,1,2.327
9,133,numeric,0.03,0.05,competitor,decoy,0,4.501
9,134,perceptual,0.1,0.2,competitor,target,1,3.008
9,135,perceptual,0.1,0.2,competitor,target,1,4.643
9,136,perceptual,0.03,0.05,competitor,decoy,0,3.061
9,137,perceptual,0.03,0.05,target,competitor,0,5.885
9,138,numeric,0.1,0.05,competitor,competitor,0,4.742
9,139,perceptual,0.03,0.05,target,target,1,5.346
9,140,perceptual,0.03,0.05,competitor,competitor,0,5.201
9,144,numeric,0.1,0.05,competitor,target,1,14.407
9,145,perceptual,0.1,0.2,competitor,target,1,3.925
9,146,perceptual,0.03,0.05,competitor,decoy,0,4.255
9,147,perceptual,0.1,0.2,competitor,target,1,3.621
9,148,perceptual,0.1,0.05,target,target,1,4.007
9,149,numeric,0.03,0.2,competitor,competitor,0,4.046
9,150,perceptual,0.1,0.05,target,decoy,0,2.568
9,151,numeric,0.1,0.2,competitor,target,1,4.69
9,152,numeric,0.03,0.05,competitor,decoy,0,2.214
9,153,numeric,0.03,0.05,target,competitor,0,3.54
9,154,perceptual,0.03,0.05,target,competitor,0,6.03
9,155,perceptual,0.1,0.2,competitor,target,1,2.111
9,156,perceptual,0.1,0.2,competitor,target,1,3.614
9,157,perceptual,0.03,0.2,target,target,1,3.086
9,158,numeric,0.1,0.05,target,target,1,5.256
9,159,perceptual,0.1,0.05,target,target,1,2.693
9,160,numeric,0.1,0.05,target,target,1,3.011
9,161,numeric,0.03,0.05,target,decoy,0,5.317
9,162,perceptual,0.1,0.2,target,decoy,0,3.589
9,163,numeric,0.1,0.05,competitor,target,1,4.108
9,164,perceptual,0.1,0.05,competitor,decoy,0,7.261
9,165,numeric,0.03,0.05,competitor,target,1,3.918
9,166,numeric,0.03,0.2,target,target,1,3.008
9,167,numeric,0.1,0.2,competitor,competitor,0,2.625
9,168,numeric,0.1,0.2,competitor,target,1,3.568
9,169,numeric,0.03,0.2,target,target,1,6.19
9,170,perceptual,0.1,0.05,competitor,target,1,4.923
9,171,perceptual,0.1,0.05,target,decoy,0,3.179
9,172,perceptual,0.1,0.2,competitor,target,1,3.658
9,173,numeric,0.03,0.2,competitor,competitor,0,3.255
9,174,perceptual,0.1,0.2,competitor,competitor,0,3.421
9,175,perceptual,0.03,0.2,competitor,target,1,4.356
9,176,numeric,0.03,0.2,competitor,competitor,0,3.257
9,177,numeric,0.03,0.2,target,target,1,4.304
9,178,numeric,0.1,0.2,target,competitor,0,2.898
9,179,numeric,0.03,0.2,competitor,target,1,4.046
9,180,numeric,0.1,0.05,target,target,1,2.654
9,181,perceptual,0.03,0.2,target,competitor,0,2.677
9,182,perceptual,0.03,0.2,competitor,target,1,6.911
9,183,numeric,0.03,0.2,competitor,target,1,4.553
9,184,perceptual,0.03,0.05,competitor,target,1,2.989
9,185,perceptual,0.1,0.2,target,target,1,3.267
9,186,numeric,0.03,0.2,competitor,target,1,5.799
9,187,numeric,0.03,0.2,target,decoy,0,5.469
9,188,perceptual,0.1,0.2,target,target,1,6.68
9,189,perceptual,0.1,0.05,competitor,target,1,3.65
9,190,perceptual,0.03,0.05,target,competitor,0,3.639
9,191,perceptual,0.03,0.05,competitor,target,1,3.26
9,192,perceptual,0.1,0.05,target,target,1,3.571
10,2,perceptual,0.1,0.2,target,decoy,0,0.246
10,3,perceptual,0.1,0.2,competitor,competitor,0,8.426
10,4,numeric,0.03,0.2,competitor,competitor,0,10.899
10,5,perceptual,0.1,0.05,competitor,competitor,0,9.362
10,6,numeric,0.1,0.05,target,target,1,7.938
10,7,perceptual,0.1,0.2,competitor,competitor,0,7.129
10,9,perceptual,0.1,0.2,target,target,1,7.629
10,10,perceptual,0.1,0.05,target,decoy,0,11.682
10,11,perceptual,0.1,0.2,target,decoy,0,8.034
10,12,numeric,0.1,0.05,target,target,1,18.031
10,13,perceptual,0.03,0.05,competitor,target,1,4.415
10,14,perceptual,0.03,0.2,competitor,target,1,7.232
10,15,perceptual,0.03,0.2,target,target,1,5.967
10,16,numeric,0.1,0.2,competitor,competitor,0,16.688
10,17,perceptual,0.03,0.2,competitor,competitor,0,6.385
10,18,perceptual,0.1,0.2,competitor,decoy,0,7.652
10,19,perceptual,0.03,0.05,target,decoy,0,5.64
10,20,perceptual,0.03,0.2,target,target,1,6.383
10,21,perceptual,0.03,0.05,target,competitor,0,9.1
10,22,perceptual,0.03,0.05,competitor,competitor,0,6.55
10,23,numeric,0.1,0.2,target,competitor,0,8.21
10,24,numeric,0.03,0.05,competitor,competitor,0,10.063
10,25,perceptual,0.03,0.05,competitor,target,1,6.101
10,26,perceptual,0.03,0.05,target,target,1,11.721
10,27,numeric,0.1,0.05,target,target,1,5.496
10,28,perceptual,0.1,0.05,competitor,competitor,0,8.152
10,29,perceptual,0.1,0.05,target,target,1,5.929
10,30,numeric,0.03,0.05,target,target,1,6.911
10,31,numeric,0.03,0.05,target,target,1,11.828
10,32,perceptual,0.1,0.05,competitor,target,1,9.029
10,33,numeric,0.03,0.2,target,target,1,9.008
10,34,perceptual,0.1,0.05,competitor,decoy,0,9.662
10,35,numeric,0.03,0.2,competitor,target,1,7.766
10,36,numeric,0.03,0.2,competitor,target,1,9.679
10,37,perceptual,0.1,0.2,target,target,1,7.636
10,38,perceptual,0.1,0.2,target,target,1,6.231
10,39,numeric,0.1,0.2,competitor,target,1,17.111
10,40,perceptual,0.1,0.05,target,target,1,8.077
10,41,perceptual,0.03,0.2,target,target,1,7.425
10,42,perceptual,0.03,0.2,competitor,target,1,7.816
10,43,numeric,0.1,0.2,competitor,target,1,5.329
10,44,perceptual,0.03,0.05,target,target,1,5.313
10,45,perceptual,0.1,0.2,competitor,target,1,5.486
10,46,perceptual,0.1,0.2,competitor,target,1,4.632
10,47,perceptual,0.1,0.05,competitor,target,1,6.724
10,48,perceptual,0.03,0.05,competitor,target,1,13.825
10,49,numeric,0.03,0.2,competitor,target,1,8.233
10,50,perceptual,0.03,0.2,target,competitor,0,7.985
10,51,numeric,0.03,0.2,competitor,target,1,8.995
10,52,numeric,0.1,0.2,target,target,1,6.195
10,53,numeric,0.1,0.2,target,target,1,6.236
10,54,numeric,0.03,0.05,competitor,target,1,10.916
10,55,perceptual,0.03,0.2,competitor,target,1,5.609
10,56,perceptual,0.03,0.2,competitor,competitor,0,9.566
10,57,numeric,0.1,0.2,target,target,1,6.544
10,58,perceptual,0.1,0.05,target,target,1,5.559
10,59,numeric,0.03,0.05,target,target,1,6.901
10,60,perceptual,0.03,0.05,target,competitor,0,6.939
10,61,numeric,0.03,0.05,target,target,1,10.234
10,62,perceptual,0.1,0.2,competitor,target,1,7.127
10,63,perceptual,0.1,0.05,target,decoy,0,9.97
10,64,perceptual,0.03,0.05,competitor,competitor,0,7.869
10,65,perceptual,0.03,0.2,competitor,competitor,0,5.909
10,66,numeric,0.1,0.05,competitor,target,1,4.587
10,67,numeric,0.03,0.2,competitor,competitor,0,5.22
10,68,numeric,0.03,0.05,competitor,target,1,8.776
10,69,numeric,0.1,0.05,competitor,competitor,0,5.744
10,70,numeric,0.03,0.2,target,target,1,5.569
10,71,perceptual,0.1,0.2,competitor,target,1,3.855
10,72,perceptual,0.1,0.05,competitor,target,1,3.872
10,73,numeric,0.03,0.05,competitor,target,1,5.986
10,74,numeric,0.1,0.2,competitor,target,1,8.051
10,75,numeric,0.1,0.2,competitor,competitor,0,6.197
10,76,numeric,0.1,0.05,competitor,target,1,6.399
10,77,numeric,0.03,0.05,target,target,1,6.901
10,78,perceptual,0.1,0.05,target,target,1,7.695
10,79,perceptual,0.1,0.05,competitor,target,1,6.245
10,80,numeric,0.1,0.2,target,target,1,4.913
10,81,numeric,0.1,0.05,target,target,1,5.617
10,82,perceptual,0.03,0.05,target,target,1,10.578
10,83,numeric,0.1,0.2,competitor,competitor,0,11.691
10,84,numeric,0.1,0.05,target,target,1,7.336
10,85,perceptual,0.1,0.05,target,target,1,7.369
10,86,numeric,0.03,0.05,competitor,competitor,0,7.83
10,87,perceptual,0.1,0.2,target,target,1,9.831
10,88,numeric,0.03,0.05,target,target,1,6.355
10,89,numeric,0.03,0.2,competitor,competitor,0,4.909
10,90,numeric,0.1,0.2,target,competitor,0,9.479
10,91,numeric,0.1,0.2,target,target,1,11.318
10,92,numeric,0.03,0.05,competitor,target,1,6.789
10,93,numeric,0.1,0.05,competitor,target,1,6.315
10,94,numeric,0.1,0.05,target,competitor,0,13.705
10,95,perceptual,0.03,0.05,competitor,target,1,7.955
10,96,perceptual,0.03,0.2,target,target,1,4.707
10,97,perceptual,0.03,0.2,target,target,1,6.593
10,98,numeric,0.03,0.05,competitor,target,1,4.205
10,99,perceptual,0.03,0.2,competitor,competitor,0,3.043
10,100,numeric,0.03,0.05,target,target,1,4.799
10,101,perceptual,0.03,0.2,competitor,target,1,4.66
10,102,numeric,0.1,0.05,competitor,target,1,8.136
10,103,numeric,0.03,0.05,competitor,decoy,0,8.346
10,104,numeric,0.1,0.05,competitor,target,1,5.685
10,105,perceptual,0.03,0.05,target,competitor,0,12.825
10,106,perceptual,0.03,0.2,competitor,target,1,4.352
10,107,numeric,0.03,0.2,competitor,target,1,6.458
10,108,numeric,0.03,0.2,target,target,1,9.881
10,109,numeric,0.1,0.2,target,target,1,8.55
10,110,perceptual,0.03,0.05,target,target,1,6.671
10,111,perceptual,0.1,0.05,competitor,target,1,4.72
10,112,perceptual,0.1,0.05,competitor,competitor,0,7.518
10,113,numeric,0.1,0.05,target,target,1,7.966
10,114,numeric,0.03,0.2,target,target,1,7.654
10,115,perceptual,0.1,0.2,competitor,target,1,7.265
10,116,perceptual,0.03,0.2,competitor,target,1,5.931
10,117,numeric,0.03,0.05,target,target,1,4.478
10,118,numeric,0.1,0.05,competitor,target,1,11.242
10,119,numeric,0.03,0.2,target,target,1,8.495
10,120,numeric,0.03,0.2,competitor,competitor,0,6.14
10,121,numeric,0.1,0.05,target,target,1,9.873
10,122,perceptual,0.03,0.2,target,target,1,5.205
10,123,numeric,0.1,0.05,competitor,target,1,5.137
10,124,perceptual,0.03,0.05,competitor,decoy,0,9.126
10,125,numeric,0.1,0.2,competitor,competitor,0,9.597
10,126,perceptual,0.03,0.05,target,competitor,0,7.313
10,127,perceptual,0.1,0.2,target,target,1,6.345
10,128,numeric,0.03,0.2,target,target,1,4.693
10,129,numeric,0.1,0.2,target,competitor,0,11.094
10,130,perceptual,0.03,0.05,competitor,target,1,5.626
10,131,perceptual,0.1,0.2,target,target,1,5.686
10,132,perceptual,0.1,0.05,competitor,target,1,5.509
10,133,numeric,0.1,0.05,target,competitor,0,6.575
10,134,perceptual,0.1,0.2,target,target,1,3.57
10,135,numeric,0.03,0.2,target,target,1,11.976
10,136,perceptual,0.1,0.05,target,target,1,4.708
10,137,perceptual,0.1,0.05,competitor,target,1,4.567
10,138,perceptual,0.1,0.05,competitor,target,1,5.71
10,139,numeric,0.1,0.2,target,target,1,6.467
10,140,numeric,0.1,0.2,competitor,target,1,7.923
10,141,perceptual,0.03,0.2,target,target,1,3.175
10,142,perceptual,0.03,0.2,target,target,1,4.265
10,143,numeric,0.1,0.2,competitor,competitor,0,6.355
10,144,perceptual,0.03,0.05,competitor,competitor,0,3.299
10,145,numeric,0.1,0.05,target,target,1,5.079
10,146,numeric,0.1,0.05,competitor,target,1,5.715
10,147,numeric,0.03,0.2,target,target,1,5.109
10,148,numeric,0.1,0.2,competitor,competitor,0,9.695
10,149,numeric,0.1,0.05,target,decoy,0,5.179
10,150,perceptual,0.03,0.05,target,competitor,0,5.778
10,151,numeric,0.03,0.05,target,target,1,16.057
10,152,perceptual,0.1,0.05,target,decoy,0,5.33
10,153,numeric,0.03,0.2,competitor,target,1,5.241
10,154,numeric,0.03,0.2,competitor,target,1,6.982
10,155,perceptual,0.03,0.2,target,competitor,0,3.095
10,156,numeric,0.03,0.2,competitor,competitor,0,6.779
10,157,numeric,0.1,0.2,competitor,target,1,5.644
10,158,numeric,0.03,0.2,target,target,1,7.279
10,159,perceptual,0.03,0.05,competitor,target,1,3.086
10,160,numeric,0.03,0.05,competitor,competitor,0,7.503
10,161,numeric,0.1,0.05,target,target,1,6.631
10,162,numeric,0.1,0.2,target,target,1,2.904
10,163,perceptual,0.1,0.05,target,target,1,2.698
10,164,perceptual,0.03,0.2,competitor,competitor,0,3.248
10,165,perceptual,0.03,0.2,target,target,1,2.776
10,166,perceptual,0.1,0.2,target,target,1,3.016
10,167,numeric,0.03,0.2,target,competitor,0,3.993
10,168,numeric,0.1,0.05,competitor,target,1,5.25
10,169,perceptual,0.1,0.2,target,target,1,2.608
10,170,perceptual,0.03,0.05,competitor,competitor,0,4.579
10,171,numeric,0.1,0.2,competitor,decoy,0,5.566
10,172,numeric,0.1,0.05,competitor,target,1,6.223
10,173,perceptual,0.03,0.05,target,target,1,5.501
10,174,numeric,0.1,0.05,competitor,target,1,9.145
10,175,perceptual,0.1,0.2,competitor,target,1,5.382
10,176,numeric,0.03,0.05,target,target,1,3.464
10,177,perceptual,0.1,0.2,competitor,target,1,2.777
10,178,perceptual,0.03,0.2,target,target,1,3.686
10,179,perceptual,0.03,0.2,competitor,target,1,3.376
10,180,numeric,0.03,0.2,target,competitor,0,6.818
10,181,numeric,0.1,0.2,target,target,1,5.807
10,182,numeric,0.03,0.05,target,competitor,0,8.117
10,183,numeric,0.03,0.2,target,target,1,5.849
10,184,perceptual,0.03,0.05,target,target,1,2.729
10,185,perceptual,0.1,0.05,target,target,1,3.336
10,186,numeric,0.03,0.05,competitor,decoy,0,2.709
10,187,perceptual,0.03,0.05,competitor,decoy,0,3.085
10,188,perceptual,0.1,0.2,competitor,target,1,4.304
10,189,numeric,0.03,0.05,competitor,target,1,7.958
10,190,perceptual,0.1,0.2,target,competitor,0,3.68
10,191,perceptual,0.1,0.2,competitor,competitor,0,2.639
10,192,perceptual,0.1,0.05,target,decoy,0,2.677
11,1,numeric,0.1,0.05,target,competitor,0,8.545
11,2,perceptual,0.1,0.05,competitor,target,1,6.388
11,3,perceptual,0.03,0.05,target,target,1,9.68
11,4,perceptual,0.03,0.2,competitor,competitor,0,7.358
11,5,numeric,0.03,0.05,target,target,1,8.042
11,6,numeric,0.1,0.2,target,target,1,5.797
11,7,numeric,0.03,0.2,competitor,competitor,0,9.622
11,8,perceptual,0.1,0.2,competitor,decoy,0,5.94
11,9,perceptual,0.1,0.2,competitor,target,1,8.737
11,10,numeric,0.1,0.05,target,target,1,9.966
11,11,perceptual,0.03,0.05,competitor,competitor,0,8.727
11,12,numeric,0.1,0.2,target,target,1,10.429
11,13,numeric,0.03,0.2,target,competitor,0,7.993
11,14,perceptual,0.1,0.05,target,competitor,0,5.134
11,15,numeric,0.03,0.2,competitor,competitor,0,8.351
11,16,numeric,0.03,0.2,competitor,competitor,0,13.189
11,17,numeric,0.1,0.05,competitor,target,1,7.711
11,18,numeric,0.03,0.2,competitor,decoy,0,12.012
11,19,perceptual,0.03,0.05,competitor,target,1,6.189
11,20,perceptual,0.1,0.2,target,competitor,0,4.81
11,21,perceptual,0.03,0.05,target,target,1,7.507
11,22,perceptual,0.03,0.05,competitor,competitor,0,7.578
11,23,numeric,0.1,0.05,target,target,1,10.039
11,24,numeric,0.1,0.05,competitor,competitor,0,8.644
11,25,perceptual,0.1,0.05,competitor,competitor,0,6.646
11,26,perceptual,0.03,0.05,target,target,1,8.539
11,27,numeric,0.1,0.2,competitor,target,1,6.466
11,28,perceptual,0.03,0.05,target,target,1,9.036
11,29,perceptual,0.1,0.2,competitor,decoy,0,5.455
11,30,numeric,0.1,0.2,target,competitor,0,12.371
11,31,numeric,0.1,0.05,target,decoy,0,8.279
11,32,perceptual,0.03,0.2,target,decoy,0,4.427
11,33,numeric,0.1,0.2,competitor,competitor,0,5.889
11,34,numeric,0.03,0.05,competitor,competitor,0,10.661
11,35,perceptual,0.1,0.2,target,target,1,4.204
11,36,perceptual,0.1,0.2,target,decoy,0,6.561
11,37,numeric,0.1,0.2,competitor,target,1,7.021
11,38,perceptual,0.03,0.2,competitor,competitor,0,7.127
11,39,numeric,0.03,0.05,target,target,1,7.195
11,40,numeric,0.1,0.05,target,target,1,8.032
11,41,numeric,0.03,0.2,target,target,1,8.435
11,42,numeric,0.03,0.05,target,target,1,15.076
11,43,numeric,0.03,0.2,target,target,1,8.363
11,44,numeric,0.03,0.2,target,target,1,7.094
11,45,numeric,0.03,0.05,target,competitor,0,5.043
11,46,numeric,0.1,0.2,competitor,target,1,11.115
11,47,perceptual,0.1,0.05,competitor,target,1,5.818
11,48,perceptual,0.1,0.2,target,target,1,6.738
11,49,perceptual,0.03,0.05,target,decoy,0,5.238
11,50,perceptual,0.1,0.05,target,decoy,0,5.778
11,51,perceptual,0.1,0.05,competitor,decoy,0,4.845
11,52,numeric,0.1,0.2,target,competitor,0,6.26
11,53,numeric,0.03,0.2,target,target,1,9.966
11,54,numeric,0.03,0.05,competitor,target,1,8.093
11,55,perceptual,0.1,0.05,target,decoy,0,4.855
11,56,perceptual,0.03,0.2,competitor,decoy,0,5.309
11,57,numeric,0.03,0.05,competitor,target,1,11.291
11,58,numeric,0.1,0.05,target,target,1,8.196
11,59,numeric,0.03,0.2,target,competitor,0,6.449
11,60,numeric,0.03,0.2,target,target,1,14.003
11,61,perceptual,0.03,0.05,target,target,1,5.904
11,62,perceptual,0.03,0.2,competitor,target,1,4.324
11,63,perceptual,0.03,0.05,competitor,target,1,3.584
11,64,numeric,0.1,0.2,competitor,target,1,12.457
11,65,perceptual,0.03,0.05,competitor,competitor,0,6.22
11,66,perceptual,0.1,0.2,competitor,competitor,0,6.841
11,67,perceptual,0.1,0.05,target,decoy,0,5.212
11,68,numeric,0.03,0.2,competitor,competitor,0,5.849
11,69,numeric,0.03,0.2,target,target,1,4.256
11,70,numeric,0.03,0.05,competitor,target,1,12.032
11,71,perceptual,0.03,0.2,target,target,1,6.626
11,72,perceptual,0.1,0.2,target,target,1,9.792
11,73,numeric,0.03,0.05,competitor,competitor,0,6.589
11,74,perceptual,0.03,0.05,competitor,decoy,0,4.383
11,75,perceptual,0.1,0.2,competitor,target,1,3.506
11,76,numeric,0.03,0.2,competitor,target,1,6.893
11,77,numeric,0.03,0.2,target,target,1,9.093
11,78,numeric,0.03,0.2,competitor,target,1,6.134
11,79,numeric,0.1,0.05,competitor,target,1,10.987
11,80,perceptual,0.1,0.05,target,decoy,0,6.938
11,81,numeric,0.1,0.05,competitor,target,1,5.719
11,82,numeric,0.03,0.05,target,competitor,0,5.665
11,83,perceptual,0.1,0.2,target,target,1,8.937
11,84,perceptual,0.03,0.2,target,target,1,4.296
11,85,numeric,0.1,0.2,target,target,1,6.297
11,86,numeric,0.1,0.05,competitor,target,1,10.109
11,87,perceptual,0.1,0.05,competitor,target,1,7.179
11,88,perceptual,0.03,0.2,competitor,target,1,5.291
11,89,perceptual,0.1,0.05,competitor,target,1,9.689
11,90,perceptual,0.1,0.05,competitor,target,1,7.925
11,91,perceptual,0.03,0.05,competitor,target,1,11.615
11,92,numeric,0.03,0.05,target,competitor,0,7.454
11,93,perceptual,0.03,0.2,competitor,target,1,13.968
11,94,perceptual,0.1,0.2,competitor,target,1,4.173
11,95,perceptual,0.03,0.2,competitor,competitor,0,6.455
11,96,numeric,0.03,0.2,target,competitor,0,5.194
11,97,numeric,0.1,0.2,competitor,competitor,0,8.586
11,98,numeric,0.1,0.05,target,competitor,0,9.904
11,99,perceptual,0.03,0.05,target,target,1,5.567
11,100,perceptual,0.1,0.05,target,target,1,5.28
11,101,perceptual,0.03,0.2,target,competitor,0,6.553
11,102,numeric,0.03,0.05,competitor,competitor,0,9.32
11,103,numeric,0.03,0.2,competitor,competitor,0,5.98
11,104,perceptual,0.03,0.05,target,target,1,4.04
11,105,numeric,0.1,0.2,target,target,1,13.142
11,106,numeric,0.03,0.2,competitor,competitor,0,8.697
11,107,numeric,0.1,0.05,competitor,target,1,5.565
11,108,numeric,0.1,0.2,competitor,competitor,0,11.707
11,109,perceptual,0.1,0.2,competitor,target,1,6.052
11,110,numeric,0.03,0.05,target,target,1,6.733
11,111,numeric,0.03,0.05,target,target,1,11.063
11,112,perceptual,0.1,0.05,competitor,target,1,8.293
11,113,perceptual,0.03,0.05,target,competitor,0,6.351
11,114,perceptual,0.1,0.05,target,target,1,8.939
11,115,numeric,0.1,0.05,competitor,decoy,0,9.826
11,116,perceptual,0.03,0.05,competitor,decoy,0,4.482
11,117,numeric,0.1,0.05,competitor,target,1,7.735
11,118,perceptual,0.1,0.2,competitor,target,1,8.185
11,119,perceptual,0.1,0.05,target,target,1,9.142
11,120,numeric,0.1,0.05,target,target,1,5.06
11,121,numeric,0.1,0.2,target,competitor,0,15.421
11,122,perceptual,0.1,0.2,target,target,1,3.946
11,123,perceptual,0.03,0.2,target,competitor,0,7.281
11,124,perceptual,0.03,0.2,target,target,1,7.092
11,125,perceptual,0.03,0.05,competitor,competitor,0,4.565
11,126,perceptual,0.1,0.05,competitor,target,1,3.459
11,127,numeric,0.1,0.05,competitor,target,1,6.141
11,128,numeric,0.03,0.2,competitor,competitor,0,10.506
11,129,numeric,0.03,0.2,target,competitor,0,10.961
11,130,numeric,0.03,0.05,competitor,target,1,5.536
11,131,numeric,0.03,0.05,target,target,1,8.906
11,132,numeric,0.1,0.05,competitor,target,1,9.509
11,133,numeric,0.03,0.2,competitor,target,1,7.351
11,134,numeric,0.03,0.05,competitor,competitor,0,5.124
11,135,perceptual,0.1,0.05,target,target,1,5.383
11,136,perceptual,0.03,0.05,target,target,1,5.926
