participant,trial_counter,condition,target_to_competitor,decoy_reduction,decoy_on,chosen_item,correct,rt
1,1,perceptual,0.03,0.2,target,target,1,12.436
1,2,perceptual,0.1,0.2,target,target,1,5.71
1,3,numeric,0.1,0.2,target,competitor,0,5.404
1,4,numeric,0.03,0.05,target,competitor,0,6.808
1,5,perceptual,0.03,0.2,target,decoy,0,5.199
1,6,numeric,0.1,0.2,competitor,competitor,0,5.078
1,8,numeric,0.1,0.05,target,target,1,6.364
1,9,numeric,0.03,0.05,target,target,1,5.944
1,10,numeric,0.1,0.2,target,target,1,5.355
1,11,perceptual,0.03,0.2,target,competitor,0,4.483
1,12,perceptual,0.03,0.2,competitor,competitor,0,3.152
1,13,numeric,0.1,0.2,target,target,1,5.348
1,14,perceptual,0.1,0.05,target,decoy,0,4.237
1,15,perceptual,0.03,0.2,target,competitor,0,3.26
1,16,numeric,0.03,0.2,target,decoy,0,5.256
1,17,perceptual,0.1,0.05,competitor,target,1,3.036
1,18,perceptual,0.03,0.2,target,target,1,3.453
1,19,perceptual,0.03,0.2,competitor,competitor,0,3.754
1,20,numeric,0.03,0.05,target,competitor,0,3.634
1,21,numeric,0.03,0.05,target,competitor,0,5.102
1,22,perceptual,0.1,0.2,competitor,target,1,3.251
1,23,numeric,0.1,0.2,competitor,target,1,4.313
1,24,numeric,0.1,0.05,competitor,target,1,3.632
1,25,perceptual,0.1,0.2,competitor,target,1,2.67
1,26,numeric,0.03,0.2,competitor,competitor,0,2.997
1,27,perceptual,0.1,0.2,competitor,competitor,0,2.849
1,28,perceptual,0.1,0.2,target,target,1,3.99
1,29,numeric,0.1,0.2,target,target,1,4.545
1,30,numeric,0.03,0.2,target,target,1,3.636
1,31,numeric,0.03,0.2,competitor,decoy,0,6.863
1,32,numeric,0.03,0.2,target,competitor,0,3.407
1,33,perceptual,0.03,0.05,target,competitor,0,2.181
1,34,perceptual,0.03,0.2,target,decoy,0,1.935
1,35,numeric,0.1,0.2,target,target,1,4.196
1,36,numeric,0.1,0.2,target,competitor,0,3.321
1,37,perceptual,0.1,0.2,competitor,target,1,3.138
1,38,numeric,0.1,0.05,target,decoy,0,6.544
1,39,perceptual,0.03,0.2,competitor,competitor,0,3.384
1,40,perceptual,0.1,0.05,target,target,1,3.101
1,41,numeric,0.1,0.2,target,decoy,0,3.63
1,42,numeric,0.03,0.2,target,target,1,3.739
1,43,perceptual,0.03,0.05,competitor,decoy,0,2.61
1,44,perceptual,0.1,0.05,target,target,1,3.411
1,45,numeric,0.1,0.05,competitor,target,1,6.866
1,46,perceptual,0.1,0.05,competitor,competitor,0,3.044
1,47,perceptual,0.1,0.05,competitor,competitor,0,4.736
1,48,perceptual,0.1,0.05,competitor,target,1,4.961
1,49,numeric,0.1,0.05,competitor,target,1,3.358
1,50,perceptual,0.1,0.05,competitor,competitor,0,1.924
1,51,perceptual,0.03,0.05,target,competitor,0,3.274
1,52,numeric,0.03,0.05,target,target,1,4.914
1,53,numeric,0.03,0.2,target,target,1,4.941
1,54,numeric,0.1,0.2,competitor,competitor,0,3.076
1,55,numeric,0.1,0.05,target,competitor,0,3.242
1,56,perceptual,0.03,0.05,competitor,decoy,0,3.789
1,57,numeric,0.03,0.2,competitor,target,1,4.685
1,58,numeric,0.1,0.05,competitor,target,1,3.427
1,59,perceptual,0.1,0.05,target,target,1,3.239
1,60,numeric,0.03,0.2,competitor,decoy,0,5.712
1,61,numeric,0.03,0.05,competitor,decoy,0,7.069
1,62,numeric,0.03,0.2,competitor,target,1,9.622
1,63,perceptual,0.03,0.2,competitor,target,1,3.527
1,64,numeric,0.1,0.05,target,competitor,0,4.076
1,65,perceptual,0.1,0.05,competitor,competitor,0,2.98
1,66,perceptual,0.03,0.05,competitor,target,1,2.986
1,67,numeric,0.1,0.05,target,decoy,0,4.071
1,68,numeric,0.1,0.2,target,target,1,3.258
1,69,numeric,0.1,0.2,competitor,target,1,3.787
1,70,numeric,0.03,0.05,competitor,target,1,4.052
1,71,numeric,0.03,0.05,competitor,decoy,0,6.755
1,72,numeric,0.03,0.05,competitor,decoy,0,4.101
1,73,perceptual,0.1,0.2,competitor,target,1,2.784
1,74,perceptual,0.03,0.05,competitor,target,1,2.801
1,75,numeric,0.1,0.05,competitor,target,1,4.323
1,76,numeric,0.03,0.2,target,competitor,0,3.757
1,77,perceptual,0.1,0.05,target,decoy,0,2.888
1,78,numeric,0.1,0.2,competitor,competitor,0,3.781
1,79,perceptual,0.03,0.05,target,competitor,0,2.794
1,80,perceptual,0.1,0.05,competitor,target,1,5.761
1,81,numeric,0.03,0.05,competitor,decoy,0,2.923
1,82,numeric,0.1,0.05,competitor,target,1,3.107
1,83,numeric,0.1,0.05,target,target,1,4.959
1,84,perceptual,0.1,0.2,target,competitor,0,5.562
1,85,perceptual,0.03,0.05,competitor,decoy,0,3.282
1,86,numeric,0.1,0.05,competitor,target,1,3.378
1,87,perceptual,0.1,0.2,target,decoy,0,3.382
1,88,numeric,0.03,0.05,competitor,target,1,2.97
1,89,perceptual,0.03,0.2,competitor,target,1,3.422
1,90,perceptual,0.03,0.05,target,decoy,0,3.099
1,91,perceptual,0.1,0.2,target,target,1,6.439
1,92,numeric,0.1,0.2,competitor,competitor,0,4.338
1,93,perceptual,0.03,0.05,competitor,competitor,0,3.588
1,94,numeric,0.03,0.2,target,competitor,0,4.151
1,95,numeric,0.1,0.05,target,decoy,0,4.616
1,96,numeric,0.03,0.05,target,competitor,0,5.013
1,97,perceptual,0.03,0.05,competitor,decoy,0,2.798
1,98,numeric,0.03,0.2,competitor,decoy,0,4.157
1,99,perceptual,0.03,0.05,target,competitor,0,2.55
1,100,perceptual,0.03,0.05,competitor,competitor,0,3.708
1,101,numeric,0.03,0.2,target,target,1,4.067
1,102,perceptual,0.1,0.2,target,competitor,0,4.465
1,103,numeric,0.03,0.2,competitor,target,1,4.25
1,104,numeric,0.1,0.05,target,decoy,0,5.34
1,105,numeric,0.1,0.2,competitor,target,1,4.491
1,106,perceptual,0.1,0.05,target,target,1,2.491
1,107,perceptual,0.03,0.05,target,decoy,0,4.112
1,108,perceptual,0.1,0.2,competitor,target,1,3.419
1,109,perceptual,0.1,0.05,target,target,1,2.452
1,110,perceptual,0.1,0.2,target,competitor,0,3.424
1,111,perceptual,0.03,0.05,competitor,decoy,0,2.71
1,112,numeric,0.1,0.2,competitor,decoy,0,5.05
1,113,numeric,0.03,0.2,target,competitor,0,5.547
1,114,perceptual,0.03,0.2,target,target,1,4.092
1,115,numeric,0.1,0.2,target,competitor,0,3.468
1,116,perceptual,0.1,0.05,target,target,1,1.977
1,117,perceptual,0.1,0.2,competitor,target,1,3.442
1,118,numeric,0.03,0.2,target,competitor,0,5.301
1,119,numeric,0.1,0.2,target,target,1,4.073
1,120,perceptual,0.03,0.05,competitor,target,1,5.149
1,121,numeric,0.1,0.05,competitor,competitor,0,5.618
1,122,perceptual,0.1,0.05,competitor,target,1,2.919
1,123,perceptual,0.1,0.05,target,target,1,3.183
1,124,numeric,0.03,0.05,competitor,target,1,8.269
1,125,perceptual,0.03,0.2,target,target,1,2.972
1,126,numeric,0.1,0.05,competitor,target,1,7.323
1,127,perceptual,0.1,0.2,competitor,target,1,4.5
1,128,numeric,0.03,0.05,target,target,1,4.117
1,129,perceptual,0.03,0.2,competitor,competitor,0,3.204
1,130,numeric,0.03,0.05,competitor,target,1,4.01
1,131,perceptual,0.1,0.2,target,target,1,2.89
1,132,perceptual,0.03,0.2,competitor,target,1,5.959
1,133,perceptual,0.1,0.05,competitor,competitor,0,3.291
1,134,numeric,0.1,0.05,target,competitor,0,3.491
1,135,numeric,0.1,0.2,target,target,1,5.304
1,136,numeric,0.1,0.2,competitor,target,1,3.956
1,137,perceptual,0.03,0.05,competitor,competitor,0,3.643
1,138,numeric,0.03,0.2,competitor,target,1,4.302
1,139,perceptual,0.03,0.05,target,competitor,0,4.094
1,140,numeric,0.03,0.2,competitor,target,1,3.783
1,141,perceptual,0.1,0.05,target,target,1,5.719
1,142,numeric,0.03,0.05,target,decoy,0,6.605
1,143,perceptual,0.03,0.05,target,decoy,0,4.834
1,144,perceptual,0.03,0.2,target,target,1,3.264
1,145,numeric,0.1,0.05,target,competitor,0,4.076
1,146,perceptual,0.1,0.05,target,target,1,3.607
1,147,perceptual,0.1,0.05,competitor,target,1,3.34
1,148,perceptual,0.03,0.2,competitor,competitor,0,3.25
1,149,numeric,0.1,0.05,competitor,decoy,0,7.455
1,150,perceptual,0.03,0.2,target,competitor,0,3.979
1,151,numeric,0.03,0.2,target,target,1,5.599
1,152,perceptual,0.03,0.05,target,decoy,0,3.334
1,153,perceptual,0.03,0.2,competitor,target,1,2.695
1,154,perceptual,0.03,0.2,competitor,target,1,3.699
1,155,numeric,0.03,0.2,competitor,competitor,0,4.59
1,156,perceptual,0.03,0.2,competitor,competitor,0,6.05
1,157,numeric,0.03,0.05,target,decoy,0,6.529
1,158,numeric,0.03,0.05,competitor,competitor,0,5.427
1,159,numeric,0.03,0.2,target,decoy,0,6.284
1,160,numeric,0.03,0.05,competitor,decoy,0,7.364
1,161,perceptual,0.1,0.2,target,target,1,2.538
1,162,numeric,0.1,0.2,competitor,target,1,7.38
1,163,numeric,0.03,0.2,competitor,target,1,6.196
1,164,numeric,0.1,0.05,target,target,1,5.04
1,165,numeric,0.1,0.2,target,competitor,0,3.65
1,166,numeric,0.1,0.2,competitor,decoy,0,4.807
1,167,perceptual,0.1,0.2,target,target,1,3.191
1,168,perceptual,0.1,0.2,competitor,target,1,3.434
1,169,perceptual,0.03,0.2,target,target,1,5.305
1,170,numeric,0.1,0.05,competitor,target,1,5.974
1,171,perceptual,0.03,0.2,competitor,competitor,0,2.935
1,172,numeric,0.1,0.05,competitor,target,1,7.116
1,173,perceptual,0.1,0.2,competitor,competitor,0,2.931
1,174,perceptual,0.1,0.2,target,competitor,0,3.5
1,175,perceptual,0.03,0.05,target,competitor,0,5.495
1,176,perceptual,0.03,0.05,target,target,1,5.781
1,177,numeric,0.1,0.2,competitor,decoy,0,6.012
1,178,perceptual,0.03,0.05,competitor,target,1,2.487
1,179,numeric,0.1,0.05,target,competitor,0,4.722
1,180,numeric,0.03,0.05,competitor,decoy,0,4.828
1,181,perceptual,0.03,0.05,target,decoy,0,4.85
1,182,perceptual,0.1,0.2,target,target,1,2.323
1,183,numeric,0.03,0.2,competitor,decoy,0,5.674
1,184,numeric,0.03,0.05,target,competitor,0,9.52
1,185,perceptual,0.03,0.2,target,target,1,2.904
1,186,perceptual,0.1,0.2,competitor,competitor,0,3.717
1,187,perceptual,0.1,0.05,competitor,target,1,6.593
1,188,perceptual,0.1,0.05,target,target,1,3.744
1,189,perceptual,0.1,0.05,competitor,target,1,5.373
1,190,numeric,0.03,0.05,competitor,target,1,6.798
1,191,perceptual,0.1,0.2,competitor,competitor,0,6.721
1,192,numeric,0.03,0.05,target,competitor,0,4.751
2,1,perceptual,0.03,0.05,target,decoy,0,9.424
2,2,perceptual,0.1,0.05,target,target,1,9.45
2,3,numeric,0.1,0.05,target,decoy,0,10.441
2,4,numeric,0.1,0.05,target,competitor,0,8.637
2,5,numeric,0.03,0.2,target,target,1,15.689
2,6,perceptual,0.1,0.05,competitor,target,1,5.874
2,7,numeric,0.03,0.05,competitor,competitor,0,7.178
2,8,numeric,0.03,0.05,target,target,1,9.003
2,9,perceptual,0.03,0.2,competitor,competitor,0,4.86
2,10,perceptual,0.03,0.2,competitor,target,1,9.861
2,11,numeric,0.1,0.05,competitor,target,1,7.525
2,12,numeric,0.1,0.2,target,target,1,5.848
2,13,perceptual,0.1,0.05,competitor,competitor,0,6.02
2,14,perceptual,0.03,0.2,target,target,1,4.936
2,15,numeric,0.03,0.05,competitor,competitor,0,8.652
2,16,numeric,0.03,0.05,target,decoy,0,6.429
2,17,perceptual,0.1,0.2,competitor,target,1,4.353
2,18,numeric,0.1,0.2,target,competitor,0,4.53
2,19,numeric,0.03,0.2,competitor,target,1,6.304
2,20,perceptual,0.1,0.05,target,competitor,0,5.494
2,21,numeric,0.03,0.05,target,target,1,4.304
2,22,numeric,0.03,0.2,competitor,competitor,0,4.938
2,23,numeric,0.1,0.2,competitor,target,1,4.558
2,24,numeric,0.03,0.2,target,competitor,0,4.478
2,25,numeric,0.03,0.05,competitor,decoy,0,9.285
2,26,perceptual,0.03,0.2,competitor,target,1,4.468
2,27,numeric,0.1,0.05,competitor,target,1,8.221
2,28,perceptual,0.03,0.05,target,competitor,0,4.815
2,29,numeric,0.03,0.2,competitor,target,1,4.913
2,30,numeric,0.1,0.2,target,competitor,0,3.64
2,31,numeric,0.1,0.05,target,competitor,0,4.908
2,32,numeric,0.1,0.2,target,target,1,4.706
2,33,perceptual,0.03,0.05,target,decoy,0,2.978
2,34,perceptual,0.1,0.2,target,competitor,0,3.331
2,35,perceptual,0.03,0.05,competitor,target,1,13.111
2,36,perceptual,0.1,0.2,competitor,target,1,6.715
2,37,numeric,0.03,0.2,target,target,1,6.245
2,38,numeric,0.03,0.05,target,target,1,16.291
2,39,numeric,0.03,0.05,target,competitor,0,7.182
2,40,numeric,0.1,0.2,competitor,competitor,0,9.08
2,41,perceptual,0.1,0.05,target,competitor,0,6.114
2,42,numeric,0.1,0.05,competitor,decoy,0,11.876
2,43,perceptual,0.03,0.05,target,target,1,11.371
2,44,numeric,0.1,0.05,competitor,competitor,0,15.354
2,45,numeric,0.1,0.2,target,target,1,9.037
2,46,numeric,0.03,0.2,competitor,competitor,0,15.564
2,47,perceptual,0.1,0.2,competitor,target,1,6.662
2,48,perceptual,0.1,0.2,competitor,target,1,5.718
2,49,perceptual,0.1,0.2,competitor,target,1,4.518
2,50,perceptual,0.1,0.05,target,decoy,0,7.945
2,51,perceptual,0.03,0.05,competitor,target,1,5.43
2,52,numeric,0.03,0.2,competitor,competitor,0,4.92
2,53,numeric,0.03,0.2,competitor,target,1,5.487
2,54,perceptual,0.03,0.05,competitor,target,1,6.419
2,55,perceptual,0.1,0.05,competitor,target,1,3.185
2,56,perceptual,0.03,0.2,competitor,target,1,9.863
2,57,perceptual,0.03,0.05,target,competitor,0,14.569
2,58,perceptual,0.03,0.05,competitor,competitor,0,3.805
2,59,perceptual,0.03,0.05,target,target,1,3.624
2,60,perceptual,0.03,0.2,target,target,1,3.64
2,61,numeric,0.03,0.2,target,target,1,8.722
2,62,perceptual,0.1,0.2,competitor,target,1,3.532
2,63,numeric,0.1,0.05,target,decoy,0,4.622
2,64,numeric,0.1,0.2,competitor,target,1,3.662
2,65,perceptual,0.1,0.2,target,target,1,3.086
2,66,perceptual,0.03,0.2,competitor,competitor,0,3.588
2,67,perceptual,0.1,0.2,target,competitor,0,3.524
2,68,numeric,0.1,0.05,competitor,competitor,0,4.549
2,69,numeric,0.03,0.2,target,target,1,8.736
2,70,perceptual,0.03,0.2,competitor,target,1,4.808
2,71,perceptual,0.03,0.2,target,target,1,9.33
2,72,perceptual,0.03,0.05,target,competitor,0,6.014
2,73,numeric,0.03,0.2,competitor,target,1,6.229
2,74,numeric,0.03,0.2,competitor,competitor,0,8.801
2,75,perceptual,0.03,0.05,competitor,decoy,0,3.479
2,76,perceptual,0.03,0.05,competitor,target,1,3.611
2,77,perceptual,0.1,0.2,target,target,1,5.427
2,78,perceptual,0.1,0.2,target,competitor,0,4.558
2,79,numeric,0.1,0.2,competitor,competitor,0,4.588
2,80,numeric,0.1,0.05,competitor,target,1,6.88
2,81,numeric,0.1,0.05,target,target,1,3.708
2,82,numeric,0.1,0.05,target,competitor,0,3.257
2,83,perceptual,0.1,0.05,target,decoy,0,9.674
2,84,numeric,0.03,0.05,competitor,competitor,0,4.909
2,85,numeric,0.03,0.05,target,target,1,5.758
2,86,numeric,0.1,0.2,competitor,target,1,8.021
2,87,numeric,0.1,0.05,target,target,1,4.581
2,88,perceptual,0.03,0.05,target,competitor,0,5.391
2,89,perceptual,0.1,0.05,competitor,competitor,0,4.16
2,90,numeric,0.1,0.2,target,target,1,8.448
2,91,numeric,0.03,0.05,competitor,competitor,0,6.928
2,92,perceptual,0.03,0.05,competitor,target,1,4.023
2,93,numeric,0.03,0.05,competitor,target,1,5.041
2,94,perceptual,0.03,0.2,target,competitor,0,4.284
2,95,perceptual,0.03,0.2,competitor,competitor,0,5.963
2,96,numeric,0.03,0.05,competitor,decoy,0,8.509
2,97,numeric,0.03,0.2,target,target,1,5
2,98,numeric,0.1,0.2,target,competitor,0,3.995
2,99,perceptual,0.03,0.2,competitor,competitor,0,3.68
2,100,perceptual,0.1,0.05,competitor,target,1,4.415
2,101,perceptual,0.03,0.05,competitor,target,1,4.882
2,102,perceptual,0.1,0.2,competitor,target,1,3.541
2,103,numeric,0.1,0.2,target,competitor,0,5.37
2,104,numeric,0.1,0.05,competitor,target,1,3.701
2,105,numeric,0.03,0.2,competitor,target,1,8.089
2,106,numeric,0.1,0.05,target,competitor,0,6.446
2,107,perceptual,0.1,0.2,target,competitor,0,2.991
2,108,numeric,0.1,0.05,competitor,target,1,5.421
2,109,numeric,0.03,0.05,competitor,competitor,0,7.366
2,110,perceptual,0.03,0.05,target,target,1,4.368
2,111,numeric,0.03,0.2,target,target,1,8.013
2,112,numeric,0.1,0.2,competitor,target,1,4.835
2,113,perceptual,0.03,0.2,target,competitor,0,3.74
2,114,perceptual,0.03,0.05,competitor,target,1,4.317
2,115,perceptual,0.1,0.05,target,target,1,4.483
2,116,numeric,0.03,0.2,competitor,target,1,7.185
2,117,perceptual,0.03,0.2,target,target,1,4.064
2,118,numeric,0.1,0.2,competitor,target,1,5.035
2,119,numeric,0.03,0.2,target,target,1,15.697
2,120,perceptual,0.03,0.05,target,target,1,5.706
2,121,numeric,0.03,0.2,target,competitor,0,3.678
2,122,perceptual,0.03,0.2,competitor,target,1,3.046
2,123,numeric,0.1,0.2,competitor,competitor,0,5.283
2,124,perceptual,0.1,0.05,target,target,1,3.537
2,125,perceptual,0.1,0.05,target,decoy,0,3.271
2,126,perceptual,0.1,0.2,target,target,1,7.025
2,127,numeric,0.1,0.2,competitor,competitor,0,6.436
2,128,numeric,0.03,0.2,target,target,1,11.247
2,129,numeric,0.1,0.05,target,competitor,0,3.83
2,130,perceptual,0.1,0.05,competitor,decoy,0,3.915
2,131,perceptual,0.1,0.05,competitor,target,1,3.51
2,132,numeric,0.03,0.2,target,target,1,5.413
2,133,perceptual,0.03,0.2,target,competitor,0,5.359
2,134,numeric,0.1,0.2,target,target,1,18.198
2,135,perceptual,0.03,0.2,target,target,1,3.104
2,136,numeric,0.1,0.2,target,target,1,4.997
2,137,numeric,0.03,0.05,target,competitor,0,8.637
2,138,numeric,0.1,0.05,competitor,target,1,8.675
2,139,numeric,0.03,0.2,target,target,1,5.455
2,140,perceptual,0.03,0.2,target,competitor,0,4.33
2,141,perceptual,0.03,0.2,target,target,1,3.332
2,142,perceptual,0.03,0.2,target,competitor,0,6.279
2,143,numeric,0.1,0.2,target,target,1,5.38
2,144,numeric,0.03,0.05,competitor,target,1,7.524
2,145,numeric,0.1,0.05,target,target,1,4.497
2,146,numeric,0.03,0.05,target,competitor,0,4.816
2,147,perceptual,0.03,0.2,target,competitor,0,3.087
2,148,perceptual,0.1,0.2,competitor,competitor,0,3.106
2,149,perceptual,0.1,0.2,target,competitor,0,4.237
2,150,perceptual,0.1,0.05,target,competitor,0,2.758
2,151,perceptual,0.1,0.2,competitor,target,1,3.252
2,152,numeric,0.03,0.05,target,target,1,4.885
2,153,perceptual,0.1,0.2,target,competitor,0,3.913
2,154,perceptual,0.03,0.2,competitor,competitor,0,5.498
2,155,numeric,0.03,0.05,competitor,target,1,4.198
2,156,perceptual,0.1,0.05,competitor,decoy,0,3.474
2,157,perceptual,0.1,0.05,target,target,1,5.254
2,158,numeric,0.1,0.2,competitor,target,1,5.19
2,159,perceptual,0.03,0.05,competitor,competitor,0,4.168
2,160,perceptual,0.1,0.2,target,target,1,3.006
2,161,perceptual,0.1,0.05,target,target,1,3.286
2,162,numeric,0.03,0.05,competitor,competitor,0,4.12
2,163,numeric,0.1,0.2,target,target,1,2.864
2,164,perceptual,0.1,0.05,competitor,target,1,2.931
2,165,perceptual,0.1,0.05,competitor,target,1,2.393
2,166,numeric,0.1,0.2,competitor,target,1,2.393
2,167,numeric,0.1,0.05,competitor,target,1,3.646
2,168,numeric,0.03,0.05,target,target,1,2.612
2,169,numeric,0.03,0.2,competitor,target,1,3.449
2,170,numeric,0.1,0.2,competitor,target,1,3.074
2,171,numeric,0.03,0.05,competitor,competitor,0,2.513
2,172,perceptual,0.03,0.05,competitor,competitor,0,2.237
2,173,numeric,0.1,0.05,target,decoy,0,3.374
2,174,numeric,0.1,0.05,competitor,competitor,0,2.287
2,175,perceptual,0.03,0.05,target,target,1,2.388
2,176,perceptual,0.1,0.2,competitor,decoy,0,2.759
2,177,perceptual,0.1,0.05,competitor,target,1,2.244
2,178,perceptual,0.03,0.05,competitor,decoy,0,1.895
2,179,perceptual,0.03,0.2,competitor,decoy,0,2.196
2,180,perceptual,0.1,0.2,target,competitor,0,2.011
2,181,numeric,0.1,0.05,competitor,competitor,0,4.25
2,182,perceptual,0.1,0.2,competitor,competitor,0,3.441
2,183,numeric,0.1,0.05,target,decoy,0,3.866
2,184,perceptual,0.1,0.2,target,target,1,2.303
2,185,numeric,0.03,0.05,target,competitor,0,3.312
2,186,numeric,0.03,0.2,competitor,target,1,5.603
2,187,perceptual,0.03,0.05,target,decoy,0,2.493
2,188,perceptual,0.1,0.05,competitor,competitor,0,2.362
2,189,numeric,0.03,0.05,target,target,1,6.274
2,190,perceptual,0.1,0.05,target,target,1,4.784
2,191,perceptual,0.03,0.2,competitor,decoy,0,2.375
2,192,perceptual,0.1,0.2,competitor,target,1,2.435
3,1,numeric,0.03,0.05,target,target,1,8.381
3,2,perceptual,0.03,0.05,competitor,decoy,0,5.916
3,3,numeric,0.1,0.2,target,target,1,11.468
3,4,perceptual,0.1,0.05,target,competitor,0,11.423
3,5,numeric,0.1,0.2,competitor,target,1,6.005
3,6,numeric,0.03,0.05,target,decoy,0,1.229
3,7,perceptual,0.03,0.2,target,target,1,5.599
3,8,numeric,0.1,0.2,target,target,1,6.558
3,9,numeric,0.1,0.2,target,target,1,5.122
3,10,perceptual,0.03,0.2,target,target,1,3.68
3,11,perceptual,0.03,0.2,target,competitor,0,4.661
3,12,numeric,0.03,0.05,competitor,target,1,3.029
3,13,perceptual,0.1,0.05,competitor,competitor,0,2.633
3,14,numeric,0.1,0.2,competitor,target,1,3.08
3,15,numeric,0.1,0.05,competitor,target,1,3.479
3,16,numeric,0.1,0.05,target,competitor,0,4.144
3,17,numeric,0.1,0.05,target,target,1,5.629
3,18,numeric,0.03,0.05,target,competitor,0,2.962
3,19,perceptual,0.1,0.05,competitor,competitor,0,4.154
3,20,numeric,0.1,0.05,target,competitor,0,3.562
3,21,numeric,0.1,0.2,competitor,competitor,0,2.776
3,22,numeric,0.1,0.05,target,competitor,0,4.412
3,23,numeric,0.1,0.2,competitor,decoy,0,3.658
3,24,numeric,0.03,0.05,competitor,target,1,2.553
3,25,numeric,0.1,0.2,target,target,1,5.49
3,26,perceptual,0.1,0.05,competitor,target,1,3.548
3,27,perceptual,0.1,0.05,competitor,target,1,4.528
3,28,numeric,0.03,0.05,target,target,1,10.237
3,29,perceptual,0.03,0.2,target,competitor,0,3.35
3,30,numeric,0.1,0.2,target,decoy,0,4.715
3,31,numeric,0.1,0.05,competitor,target,1,2.684
3,32,perceptual,0.1,0.05,target,competitor,0,10.403
3,33,numeric,0.03,0.05,competitor,target,1,4.843
3,34,perceptual,0.03,0.05,competitor,target,1,3.818
3,35,perceptual,0.03,0.2,competitor,decoy,0,6.479
3,36,numeric,0.1,0.2,target,decoy,0,5.391
3,37,perceptual,0.1,0.05,target,decoy,0,7.523
3,38,perceptual,0.1,0.05,competitor,target,1,3.864
3,39,perceptual,0.1,0.05,competitor,target,1,5.121
3,40,numeric,0.1,0.05,competitor,target,1,5.864
3,41,perceptual,0.03,0.2,target,decoy,0,3.651
3,42,perceptual,0.03,0.05,competitor,target,1,4.34
3,43,numeric,0.03,0.2,competitor,competitor,0,5.266
3,44,perceptual,0.03,0.2,competitor,target,1,5.163
3,45,perceptual,0.03,0.2,target,competitor,0,7.362
3,47,perceptual,0.03,0.2,competitor,competitor,0,2.326
3,48,perceptual,0.1,0.2,target,competitor,0,3.559
3,49,perceptual,0.03,0.2,target,target,1,2.406
3,50,numeric,0.03,0.2,competitor,target,1,2.691
3,51,perceptual,0.03,0.05,target,competitor,0,4.776
3,52,perceptual,0.03,0.05,competitor,competitor,0,4.257
3,53,perceptual,0.03,0.05,competitor,target,1,3.574
3,54,numeric,0.1,0.05,target,target,1,3.8
3,55,numeric,0.03,0.2,target,target,1,4.066
3,56,numeric,0.1,0.05,competitor,decoy,0,12.806
3,57,numeric,0.03,0.2,target,target,1,2.956
3,58,perceptual,0.03,0.2,competitor,competitor,0,2.026
3,59,perceptual,0.03,0.05,competitor,competitor,0,2.559
3,60,perceptual,0.1,0.2,target,target,1,3.765
3,61,perceptual,0.03,0.2,target,competitor,0,2.73
3,62,perceptual,0.03,0.05,target,decoy,0,3.408
3,63,numeric,0.03,0.2,target,competitor,0,6.687
3,64,perceptual,0.03,0.05,target,decoy,0,3.105
3,65,numeric,0.1,0.2,competitor,competitor,0,4.368
3,66,numeric,0.1,0.05,competitor,target,1,3.232
3,67,numeric,0.1,0.05,competitor,competitor,0,3.392
3,68,perceptual,0.1,0.05,target,competitor,0,3.033
3,69,numeric,0.03,0.05,competitor,target,1,1.994
3,70,numeric,0.03,0.05,target,competitor,0,4.562
3,71,perceptual,0.1,0.2,competitor,target,1,2.55
3,72,perceptual,0.1,0.05,competitor,target,1,4.187
3,73,perceptual,0.1,0.2,target,target,1,2.998
3,74,perceptual,0.03,0.2,competitor,target,1,2.017
3,75,perceptual,0.03,0.05,target,target,1,3.149
3,76,numeric,0.1,0.2,competitor,target,1,2.719
3,77,perceptual,0.1,0.2,target,target,1,1.867
3,78,numeric,0.1,0.2,target,target,1,4.047
3,79,perceptual,0.03,0.05,target,target,1,3.136
3,80,numeric,0.03,0.05,competitor,competitor,0,4.55
3,81,numeric,0.03,0.05,competitor,decoy,0,4.503
3,82,numeric,0.03,0.2,competitor,competitor,0,3.25
3,83,perceptual,0.1,0.2,competitor,target,1,3.302
3,84,numeric,0.03,0.2,competitor,competitor,0,5.3
3,85,numeric,0.03,0.05,competitor,competitor,0,3.806
3,86,perceptual,0.1,0.2,competitor,target,1,4.498
3,87,perceptual,0.03,0.05,competitor,decoy,0,3.915
3,88,numeric,0.1,0.2,competitor,target,1,6.036
3,89,numeric,0.1,0.2,target,competitor,0,4.259
3,90,numeric,0.1,0.2,competitor,target,1,7.25
3,91,numeric,0.1,0.05,target,competitor,0,4.165
3,92,perceptual,0.1,0.05,target,competitor,0,3.51
3,93,perceptual,0.03,0.2,competitor,target,1,6.005
3,94,numeric,0.1,0.05,competitor,target,1,4.609
3,95,numeric,0.1,0.05,target,target,1,3.724
3,96,perceptual,0.03,0.05,target,target,1,4.097
3,97,numeric,0.1,0.2,target,target,1,5.794
3,98,perceptual,0.1,0.05,target,competitor,0,2.555
3,99,perceptual,0.1,0.2,competitor,target,1,2.697
3,100,perceptual,0.1,0.05,target,target,1,4.505
3,101,perceptual,0.03,0.2,competitor,target,1,5.743
3,102,numeric,0.1,0.05,target,competitor,0,4.111
3,103,perceptual,0.1,0.2,target,competitor,0,2.443
3,104,perceptual,0.1,0.05,target,decoy,0,2.674
3,105,perceptual,0.03,0.2,target,competitor,0,2.112
3,106,numeric,0.03,0.2,target,target,1,4.844
3,107,numeric,0.1,0.2,competitor,target,1,4.166
3,108,perceptual,0.03,0.05,target,target,1,2.614
3,109,perceptual,0.1,0.2,target,decoy,0,3.197
3,110,numeric,0.1,0.05,target,target,1,3.219
3,111,numeric,0.1,0.2,competitor,target,1,3.669
3,112,numeric,0.03,0.05,target,target,1,3.682
3,113,perceptual,0.03,0.2,competitor,target,1,2.608
3,114,numeric,0.1,0.05,competitor,competitor,0,3.206
3,115,perceptual,0.1,0.2,target,decoy,0,3.813
3,116,numeric,0.03,0.2,target,decoy,0,3.138
3,117,numeric,0.03,0.05,target,competitor,0,4.343
3,118,perceptual,0.1,0.05,competitor,target,1,3.646
3,119,numeric,0.1,0.05,competitor,target,1,4.151
3,120,numeric,0.1,0.05,target,target,1,3.228
3,121,perceptual,0.03,0.2,target,competitor,0,2.708
3,122,perceptual,0.03,0.05,target,competitor,0,2.771
3,123,numeric,0.03,0.2,competitor,target,1,5.479
3,124,numeric,0.03,0.2,target,target,1,3.94
3,125,perceptual,0.1,0.05,competitor,target,1,3.977
3,126,perceptual,0.1,0.2,competitor,target,1,2.631
3,127,numeric,0.03,0.2,competitor,competitor,0,3.543
3,128,numeric,0.03,0.05,competitor,target,1,3.456
3,129,numeric,0.1,0.2,target,target,1,2.885
3,130,numeric,0.03,0.2,competitor,target,1,3.121
3,131,perceptual,0.03,0.05,competitor,target,1,2.591
3,132,numeric,0.03,0.2,target,target,1,2.793
3,133,perceptual,0.03,0.2,target,decoy,0,3.195
3,134,perceptual,0.1,0.05,competitor,target,1,2.054
3,135,numeric,0.03,0.05,competitor,competitor,0,5.747
3,136,numeric,0.1,0.05,target,target,1,5.765
3,137,numeric,0.03,0.05,competitor,competitor,0,4.974
3,138,perceptual,0.1,0.2,competitor,decoy,0,3.323
3,139,perceptual,0.03,0.2,competitor,target,1,4.914
3,140,numeric,0.1,0.05,target,decoy,0,2.527
3,141,perceptual,0.1,0.2,competitor,competitor,0,4.466
3,142,perceptual,0.1,0.2,competitor,decoy,0,2.864
3,143,numeric,0.03,0.2,competitor,target,1,3.453
3,144,perceptual,0.1,0.05,target,target,1,4.878
3,145,perceptual,0.1,0.05,competitor,target,1,2.547
3,146,perceptual,0.1,0.2,target,target,1,2.032
3,147,perceptual,0.1,0.05,target,competitor,0,2.47
3,148,numeric,0.1,0.05,competitor,competitor,0,3.464
3,149,numeric,0.1,0.05,competitor,target,1,4.935
3,150,numeric,0.03,0.2,target,competitor,0,2.523
3,151,numeric,0.03,0.2,competitor,target,1,4.195
3,152,perceptual,0.1,0.2,target,target,1,5.032
3,153,numeric,0.1,0.2,target,target,1,4.229
3,154,perceptual,0.03,0.05,competitor,target,1,4.13
3,155,numeric,0.1,0.2,competitor,competitor,0,3.078
3,156,perceptual,0.03,0.05,target,target,1,2.358
3,157,numeric,0.03,0.2,competitor,competitor,0,2.042
3,158,numeric,0.1,0.2,competitor,target,1,3.371
3,159,perceptual,0.1,0.2,competitor,competitor,0,3.478
3,160,numeric,0.03,0.2,target,competitor,0,2.575
3,161,numeric,0.03,0.2,competitor,competitor,0,4.401
3,162,perceptual,0.1,0.2,competitor,target,1,3.187
3,163,perceptual,0.03,0.05,target,target,1,4.317
3,164,numeric,0.03,0.2,target,target,1,3.324
3,165,perceptual,0.1,0.05,competitor,decoy,0,3.818
3,166,numeric,0.03,0.2,competitor,target,1,3.202
3,167,perceptual,0.1,0.05,target,target,1,2.495
3,168,numeric,0.03,0.05,target,decoy,0,3.157
3,169,perceptual,0.03,0.05,competitor,target,1,2.163
3,170,numeric,0.03,0.2,target,target,1,4.135
3,171,perceptual,0.1,0.2,target,target,1,4.527
3,172,perceptual,0.03,0.2,competitor,target,1,2.521
3,173,perceptual,0.03,0.2,competitor,target,1,2.279
3,174,perceptual,0.03,0.2,target,competitor,0,3.557
3,175,perceptual,0.1,0.2,competitor,target,1,2.832
3,176,numeric,0.03,0.2,target,competitor,0,3.619
3,177,perceptual,0.03,0.2,competitor,target,1,2.955
3,178,perceptual,0.03,0.05,target,competitor,0,3.479
3,179,perceptual,0.1,0.05,target,target,1,2.438
3,180,numeric,0.03,0.05,competitor,target,1,3.323
3,181,numeric,0.1,0.05,competitor,target,1,4.579
3,182,numeric,0.03,0.05,target,competitor,0,13.265
3,183,numeric,0.03,0.05,competitor,competitor,0,3.569
3,184,numeric,0.03,0.05,target,competitor,0,2.581
3,185,perceptual,0.1,0.2,competitor,target,1,2.76
3,186,perceptual,0.03,0.05,target,competitor,0,2.677
3,187,numeric,0.03,0.05,target,decoy,0,2.686
3,188,numeric,0.1,0.2,target,target,1,3.128
3,189,perceptual,0.03,0.05,competitor,target,1,3.293
3,190,perceptual,0.1,0.2,target,target,1,3.34
3,191,perceptual,0.1,0.2,target,decoy,0,4.855
3,192,numeric,0.03,0.05,target,target,1,3.58
4,1,perceptual,0.1,0.2,competitor,decoy,0,7.954
4,2,perceptual,0.1,0.2,target,competitor,0,4.994
4,3,numeric,0.03,0.05,target,competitor,0,7.401
4,4,numeric,0.1,0.05,target,target,1,9.566
4,5,perceptual,0.1,0.2,competitor,target,1,4.765
4,6,numeric,0.1,0.2,target,target,1,7.363
4,7,numeric,0.1,0.05,competitor,competitor,0,7.274
4,8,numeric,0.03,0.2,target,target,1,6.648
4,9,numeric,0.1,0.05,target,target,1,5.229
4,10,perceptual,0.1,0.05,target,target,1,6.505
4,11,numeric,0.03,0.05,target,target,1,6.367
4,12,perceptual,0.03,0.05,target,target,1,5.582
4,13,numeric,0.03,0.05,target,competitor,0,3.923
4,14,perceptual,0.03,0.2,target,competitor,0,3.809
4,15,perceptual,0.03,0.05,target,competitor,0,4.146
4,16,perceptual,0.03,0.2,target,target,1,5.724
4,17,perceptual,0.1,0.05,target,decoy,0,4.367
4,18,numeric,0.1,0.05,competitor,target,1,7.537
4,19,perceptual,0.1,0.05,competitor,competitor,0,4.373
4,20,numeric,0.03,0.2,competitor,competitor,0,5.101
4,21,numeric,0.1,0.05,competitor,target,1,7.312
4,22,numeric,0.1,0.05,competitor,target,1,6.941
4,23,numeric,0.1,0.05,target,target,1,6.501
4,24,numeric,0.1,0.05,target,target,1,5.264
4,25,perceptual,0.1,0.05,competitor,target,1,4.175
4,26,perceptual,0.03,0.05,competitor,target,1,4.168
4,27,perceptual,0.1,0.2,target,target,1,9.849
4,28,perceptual,0.1,0.2,competitor,target,1,3.696
4,29,numeric,0.03,0.05,target,target,1,5.205
4,30,numeric,0.03,0.2,competitor,target,1,3.305
4,31,perceptual,0.03,0.2,competitor,target,1,3.64
4,32,perceptual,0.03,0.2,competitor,target,1,3.135
4,33,perceptual,0.1,0.2,competitor,target,1,2.916
4,34,numeric,0.03,0.05,target,target,1,7.2
4,35,numeric,0.1,0.2,target,competitor,0,5.674
4,36,perceptual,0.1,0.2,target,decoy,0,9.709
4,37,numeric,0.1,0.2,competitor,target,1,5.207
4,38,numeric,0.03,0.05,competitor,target,1,6.213
4,39,numeric,0.03,0.2,competitor,target,1,4.277
4,40,perceptual,0.03,0.05,competitor,competitor,0,4.251
4,41,numeric,0.03,0.05,competitor,target,1,2.863
4,42,perceptual,0.1,0.2,target,target,1,4.767
4,43,numeric,0.03,0.05,competitor,target,1,5.339
4,44,perceptual,0.03,0.2,target,target,1,7.061
4,45,perceptual,0.03,0.05,competitor,competitor,0,3.962
4,46,numeric,0.1,0.2,competitor,competitor,0,12.797
4,47,perceptual,0.1,0.2,target,target,1,3.911
4,48,numeric,0.1,0.2,target,target,1,4.523
4,49,numeric,0.03,0.2,target,competitor,0,5.275
4,50,numeric,0.1,0.2,target,competitor,0,4.853
4,51,numeric,0.03,0.2,competitor,target,1,3.654
4,52,perceptual,0.03,0.2,competitor,target,1,3.176
4,53,perceptual,0.1,0.05,target,decoy,0,6.113
4,54,numeric,0.1,0.2,target,target,1,8.643
4,55,numeric,0.03,0.05,competitor,target,1,3.993
4,56,numeric,0.03,0.05,target,target,1,9.59
4,57,perceptual,0.03,0.2,target,target,1,6.794
4,58,perceptual,0.1,0.2,target,target,1,3.059
4,59,numeric,0.03,0.05,competitor,target,1,4.3
4,60,numeric,0.03,0.05,target,competitor,0,4.58
4,61,numeric,0.03,0.2,competitor,target,1,4.641
4,62,numeric,0.1,0.2,competitor,competitor,0,4.368
4,63,perceptual,0.1,0.05,competitor,competitor,0,4.168
4,64,perceptual,0.03,0.2,competitor,target,1,3.093
4,65,perceptual,0.03,0.05,target,decoy,0,3.461
4,66,numeric,0.1,0.2,competitor,target,1,5.671
4,67,perceptual,0.03,0.05,target,competitor,0,3.027
4,68,numeric,0.03,0.2,competitor,competitor,0,2.376
4,69,numeric,0.1,0.05,target,target,1,7.97
4,70,perceptual,0.03,0.2,target,target,1,3.792
4,71,perceptual,0.03,0.05,competitor,target,1,3.652
4,72,numeric,0.1,0.05,competitor,target,1,3.817
4,73,numeric,0.03,0.05,target,target,1,4.329
4,74,numeric,0.1,0.05,competitor,target,1,4.775
4,75,numeric,0.03,0.2,competitor,target,1,3.416
4,76,numeric,0.1,0.05,competitor,target,1,2.861
4,77,numeric,0.03,0.05,target,target,1,4.365
4,78,numeric,0.03,0.05,competitor,target,1,3.652
4,79,numeric,0.03,0.2,target,competitor,0,4.422
4,80,perceptual,0.03,0.05,competitor,target,1,4.821
4,81,numeric,0.03,0.05,competitor,target,1,4.386
4,82,perceptual,0.03,0.2,competitor,target,1,3.611
4,83,numeric,0.03,0.2,target,target,1,5.501
4,84,numeric,0.03,0.05,competitor,competitor,0,3.938
4,85,numeric,0.03,0.2,target,competitor,0,3.618
4,86,perceptual,0.1,0.05,target,decoy,0,4.712
4,87,numeric,0.1,0.05,target,target,1,3.865
4,88,perceptual,0.1,0.05,target,target,1,4.246
4,89,numeric,0.1,0.2,target,competitor,0,3.388
4,90,perceptual,0.03,0.2,competitor,competitor,0,6.517
4,91,perceptual,0.03,0.05,target,target,1,7.3
4,92,numeric,0.03,0.05,competitor,target,1,6.049
4,93,perceptual,0.1,0.05,target,target,1,4.523
4,94,numeric,0.03,0.2,competitor,competitor,0,4.963
4,95,perceptual,0.1,0.05,competitor,target,1,4.015
4,96,numeric,0.1,0.2,competitor,target,1,4.497
4,97,perceptual,0.03,0.05,target,competitor,0,3.994
4,98,perceptual,0.03,0.2,target,target,1,2.725
4,99,perceptual,0.03,0.2,target,competitor,0,4.251
4,100,perceptual,0.1,0.2,competitor,target,1,4.66
4,101,numeric,0.03,0.2,target,target,1,5.288
4,102,numeric,0.03,0.2,competitor,target,1,5.144
4,103,perceptual,0.1,0.2,target,competitor,0,2.642
4,104,numeric,0.1,0.2,competitor,target,1,10.498
4,105,perceptual,0.03,0.2,competitor,competitor,0,3.714
4,106,perceptual,0.1,0.05,competitor,target,1,4.231
4,107,perceptual,0.03,0.2,target,competitor,0,7.896
4,108,perceptual,0.1,0.05,competitor,target,1,7.297
4,109,numeric,0.1,0.05,competitor,target,1,4.995
4,110,perceptual,0.03,0.05,target,decoy,0,4.241
4,111,perceptual,0.1,0.2,competitor,target,1,3.742
4,112,perceptual,0.03,0.05,target,competitor,0,4.854
4,113,numeric,0.03,0.2,target,target,1,5.026
4,114,perceptual,0.1,0.2,target,target,1,2.889
4,115,perceptual,0.03,0.05,target,decoy,0,4.885
4,116,perceptual,0.03,0.05,competitor,target,1,2.93
4,117,perceptual,0.03,0.05,competitor,target,1,3.116
4,118,numeric,0.1,0.2,target,target,1,5.059
4,119,perceptual,0.1,0.05,competitor,target,1,3.547
4,120,perceptual,0.1,0.2,competitor,target,1,3.396
4,121,perceptual,0.03,0.2,target,target,1,5.044
4,122,numeric,0.1,0.05,competitor,competitor,0,6.01
4,123,perceptual,0.03,0.2,target,target,1,5.971
4,124,perceptual,0.1,0.2,competitor,competitor,0,4.901
4,125,perceptual,0.1,0.05,target,target,1,3.201
4,126,numeric,0.03,0.2,competitor,target,1,7.458
4,127,numeric,0.1,0.05,target,target,1,7.244
4,128,numeric,0.1,0.2,target,target,1,5.572
4,129,perceptual,0.03,0.05,competitor,target,1,10.642
4,130,numeric,0.1,0.05,target,target,1,7.427
4,131,numeric,0.03,0.05,target,target,1,6.777
4,132,numeric,0.03,0.2,target,target,1,5.047
4,133,numeric,0.03,0.05,competitor,competitor,0,5.333
4,134,numeric,0.1,0.2,competitor,target,1,3.623
4,135,perceptual,0.03,0.2,competitor,competitor,0,6.105
4,136,numeric,0.1,0.2,competitor,target,1,6.747
4,137,numeric,0.03,0.2,competitor,target,1,8.831
4,138,numeric,0.1,0.2,target,target,1,12.779
4,139,numeric,0.03,0.05,competitor,competitor,0,7.358
4,140,perceptual,0.1,0.2,target,target,1,2.637
4,141,numeric,0.1,0.05,competitor,target,1,3.899
4,142,perceptual,0.03,0.05,competitor,target,1,3.16
4,143,numeric,0.1,0.2,competitor,competitor,0,5.16
4,144,numeric,0.1,0.2,competitor,target,1,3.669
4,145,numeric,0.1,0.2,target,competitor,0,6.443
4,146,perceptual,0.1,0.05,competitor,target,1,3.351
4,147,numeric,0.1,0.05,target,competitor,0,3.629
4,148,numeric,0.03,0.2,target,target,1,3.305
4,149,perceptual,0.1,0.05,target,decoy,0,6.72
4,150,perceptual,0.03,0.05,target,competitor,0,2.751
4,151,numeric,0.1,0.2,competitor,target,1,3.653
4,152,perceptual,0.1,0.2,competitor,target,1,2.884
4,153,perceptual,0.1,0.05,target,competitor,0,4.524
4,154,perceptual,0.1,0.05,target,target,1,7.761
4,155,numeric,0.03,0.2,competitor,target,1,3.129
4,156,numeric,0.03,0.2,target,competitor,0,4.005
4,157,perceptual,0.03,0.05,target,competitor,0,5.52
4,158,numeric,0.1,0.2,competitor,target,1,4.007
4,159,perceptual,0.1,0.05,competitor,target,1,2.8
4,160,perceptual,0.1,0.2,target,target,1,3.321
4,161,perceptual,0.1,0.2,target,target,1,4.146
4,162,numeric,0.1,0.05,competitor,target,1,2.827
4,163,perceptual,0.1,0.2,target,competitor,0,3.075
4,164,numeric,0.03,0.2,target,competitor,0,3.635
4,165,perceptual,0.03,0.2,competitor,competitor,0,5.347
4,166,numeric,0.1,0.2,target,target,1,3.329
4,167,numeric,0.03,0.2,target,competitor,0,2.722
4,168,perceptual,0.1,0.2,competitor,decoy,0,1.912
4,169,perceptual,0.03,0.05,competitor,target,1,2.759
4,170,perceptual,0.03,0.05,competitor,decoy,0,2.933
4,171,perceptual,0.03,0.2,target,target,1,3.118
4,172,numeric,0.1,0.05,competitor,decoy,0,4.178
4,173,numeric,0.03,0.05,target,decoy,0,3.745
4,174,perceptual,0.1,0.05,competitor,target,1,2.537
4,175,perceptual,0.1,0.05,target,decoy,0,2.468
4,176,perceptual,0.1,0.2,competitor,target,1,2.71
4,177,numeric,0.03,0.05,target,target,1,4.075
4,178,perceptual,0.03,0.05,target,target,1,3.201
4,179,numeric,0.1,0.05,target,target,1,2.997
4,180,perceptual,0.03,0.2,competitor,target,1,3.312
4,181,perceptual,0.1,0.05,competitor,target,1,2.411
4,182,numeric,0.1,0.2,target,target,1,3.379
4,183,numeric,0.03,0.05,competitor,competitor,0,5.346
4,184,numeric,0.1,0.05,target,competitor,0,3.165
4,185,numeric,0.1,0.05,target,competitor,0,3.077
4,186,perceptual,0.03,0.2,competitor,competitor,0,5.681
4,187,perceptual,0.03,0.2,target,competitor,0,4.992
4,188,perceptual,0.1,0.2,competitor,target,1,4.332
4,189,perceptual,0.03,0.05,competitor,decoy,0,3.071
4,190,perceptual,0.03,0.2,competitor,target,1,2.208
4,191,perceptual,0.1,0.05,target,target,1,3.561
4,192,perceptual,0.1,0.05,competitor,competitor,0,5.292
5,1,perceptual,0.03,0.2,competitor,target,1,17.728
5,2,perceptual,0.1,0.2,target,target,1,3.961
5,3,numeric,0.03,0.2,target,target,1,5.274
5,4,numeric,0.1,0.05,target,target,1,8.485
5,5,perceptual,0.1,0.05,target,decoy,0,4.29
5,6,perceptual,0.03,0.2,target,target,1,4.299
5,7,perceptual,0.03,0.05,competitor,target,1,5.362
5,8,numeric,0.03,0.05,target,competitor,0,12.849
5,9,numeric,0.1,0.2,target,competitor,0,6.655
5,10,perceptual,0.03,0.05,target,target,1,6.202
5,11,perceptual,0.1,0.05,target,decoy,0,7.08
5,12,perceptual,0.03,0.05,target,target,1,6.301
5,13,numeric,0.03,0.05,target,competitor,0,9.566
5,14,perceptual,0.03,0.2,competitor,target,1,12.461
5,15,numeric,0.1,0.05,competitor,target,1,9.969
5,16,numeric,0.1,0.2,competitor,competitor,0,9.597
5,17,perceptual,0.03,0.05,target,competitor,0,7.187
5,18,numeric,0.1,0.05,competitor,target,1,8.749
5,19,perceptual,0.1,0.2,target,target,1,7.39
5,20,numeric,0.03,0.05,target,decoy,0,4.537
5,21,numeric,0.03,0.2,target,target,1,6.561
5,22,numeric,0.03,0.05,target,target,1,10.946
5,23,perceptual,0.1,0.2,competitor,target,1,4.183
5,24,perceptual,0.1,0.05,competitor,target,1,5.076
5,25,perceptual,0.1,0.2,target,target,1,6.639
5,26,perceptual,0.03,0.2,competitor,competitor,0,9.976
5,27,perceptual,0.03,0.05,competitor,competitor,0,5.95
5,28,numeric,0.03,0.05,competitor,target,1,9.478
5,29,numeric,0.1,0.05,target,decoy,0,8.875
5,30,perceptual,0.1,0.05,competitor,target,1,10.877
5,31,numeric,0.03,0.05,target,target,1,10.277
5,32,perceptual,0.1,0.2,target,target,1,8.718
5,33,perceptual,0.1,0.2,competitor,target,1,6.572
5,34,numeric,0.03,0.2,competitor,competitor,0,7.599
5,35,numeric,0.03,0.05,competitor,competitor,0,17.759
5,36,perceptual,0.03,0.05,competitor,competitor,0,0.019
5,37,numeric,0.03,0.2,target,competitor,0,11.49
5,38,perceptual,0.03,0.2,target,target,1,8.618
5,39,numeric,0.1,0.2,target,target,1,9.109
5,40,numeric,0.03,0.2,target,target,1,13.356
5,41,numeric,0.03,0.05,target,competitor,0,10.326
5,42,perceptual,0.03,0.2,target,target,1,10.005
5,43,numeric,0.1,0.2,target,target,1,6.395
5,44,numeric,0.1,0.05,competitor,target,1,12.203
5,45,numeric,0.03,0.2,competitor,target,1,11.093
5,46,numeric,0.03,0.05,competitor,competitor,0,17.961
5,48,numeric,0.1,0.05,target,competitor,0,10.369
5,49,numeric,0.1,0.2,target,target,1,7.779
5,50,perceptual,0.03,0.05,target,target,1,7.768
5,51,perceptual,0.1,0.05,competitor,target,1,3.968
5,52,numeric,0.1,0.2,competitor,target,1,5.609
5,53,perceptual,0.03,0.05,competitor,target,1,5.483
5,54,numeric,0.1,0.2,competitor,target,1,5.96
5,55,numeric,0.03,0.2,competitor,target,1,8.315
5,56,numeric,0.03,0.2,competitor,competitor,0,8.19
5,57,perceptual,0.1,0.2,competitor,target,1,4.337
5,58,perceptual,0.03,0.2,target,competitor,0,9.161
5,59,perceptual,0.1,0.05,competitor,target,1,7.277
5,60,perceptual,0.03,0.05,competitor,target,1,9.647
5,61,perceptual,0.1,0.2,target,target,1,6.516
5,62,perceptual,0.1,0.05,target,target,1,10.413
5,63,numeric,0.03,0.05,target,decoy,0,8.433
5,64,perceptual,0.1,0.2,target,competitor,0,12.211
5,65,perceptual,0.1,0.05,target,decoy,0,5.298
5,66,numeric,0.03,0.05,competitor,target,1,7.316
5,67,perceptual,0.1,0.2,competitor,target,1,6.271
5,68,perceptual,0.03,0.05,target,target,1,8.982
5,69,perceptual,0.03,0.05,competitor,target,1,4.681
5,70,numeric,0.1,0.2,target,target,1,9.38
5,71,perceptual,0.03,0.05,competitor,target,1,6.962
5,72,numeric,0.1,0.05,target,target,1,11.168
5,73,numeric,0.03,0.05,competitor,target,1,11.505
5,74,perceptual,0.1,0.05,competitor,decoy,0,11.416
5,75,numeric,0.1,0.2,competitor,target,1,9.236
5,76,perceptual,0.1,0.05,target,target,1,5.727
5,77,perceptual,0.1,0.2,target,competitor,0,9.75
5,78,perceptual,0.1,0.05,target,target,1,6.751
5,79,numeric,0.03,0.2,competitor,target,1,13.153
5,80,numeric,0.03,0.05,competitor,target,1,11.797
5,81,perceptual,0.1,0.05,target,target,1,7.821
5,82,numeric,0.1,0.2,target,target,1,7.246
5,83,perceptual,0.03,0.05,competitor,competitor,0,8.211
5,84,numeric,0.1,0.2,competitor,target,1,8.486
5,85,perceptual,0.1,0.05,competitor,target,1,7.942
5,86,numeric,0.1,0.2,target,target,1,9.771
5,87,numeric,0.1,0.05,target,target,1,7.468
5,88,numeric,0.1,0.05,target,target,1,10.067
5,89,numeric,0.03,0.2,competitor,target,1,8.362
5,90,perceptual,0.1,0.05,competitor,target,1,5.111
5,91,numeric,0.03,0.05,competitor,competitor,0,13.126
5,92,numeric,0.1,0.05,competitor,competitor,0,10.134
5,93,perceptual,0.1,0.2,competitor,target,1,11.645
5,94,perceptual,0.1,0.05,competitor,target,1,13.214
5,95,numeric,0.03,0.05,competitor,competitor,0,9.365
5,96,perceptual,0.1,0.2,competitor,competitor,0,11.001
5,97,numeric,0.1,0.05,target,target,1,9.102
5,98,numeric,0.03,0.2,target,target,1,14.277
5,99,perceptual,0.03,0.2,competitor,competitor,0,5.476
5,100,perceptual,0.03,0.05,competitor,competitor,0,8.863
5,101,numeric,0.1,0.05,target,decoy,0,12.648
5,102,perceptual,0.03,0.05,target,target,1,4.997
5,103,perceptual,0.03,0.2,competitor,target,1,6.028
5,104,perceptual,0.1,0.2,target,target,1,4.366
5,105,perceptual,0.03,0.2,target,target,1,13.411
5,106,numeric,0.1,0.2,competitor,target,1,13.298
5,107,numeric,0.1,0.05,competitor,target,1,9.534
5,108,perceptual,0.03,0.2,target,target,1,3.919
5,109,perceptual,0.03,0.2,competitor,target,1,3.412
5,110,numeric,0.1,0.2,target,competitor,0,5.546
5,111,numeric,0.1,0.2,competitor,target,1,7.553
5,112,numeric,0.03,0.05,competitor,target,1,15.959
5,113,numeric,0.03,0.05,competitor,target,1,6.268
5,114,numeric,0.03,0.05,competitor,target,1,7.748
5,115,perceptual,0.1,0.05,target,target,1,5.287
5,116,perceptual,0.1,0.2,competitor,target,1,5.9
5,117,numeric,0.1,0.05,target,target,1,5.942
5,118,numeric,0.03,0.05,target,target,1,6.084
5,119,perceptual,0.1,0.05,competitor,target,1,8.147
5,120,perceptual,0.03,0.2,target,competitor,0,7.8
5,121,perceptual,0.03,0.05,target,target,1,4.427
5,122,numeric,0.1,0.2,competitor,target,1,6.468
5,123,numeric,0.1,0.2,competitor,target,1,5.315
5,124,numeric,0.03,0.05,target,competitor,0,9.13
5,125,perceptual,0.1,0.05,target,target,1,10.196
5,126,perceptual,0.03,0.2,competitor,competitor,0,8.624
5,127,perceptual,0.1,0.05,target,competitor,0,9.118
5,128,numeric,0.1,0.05,competitor,target,1,7.948
5,129,numeric,0.03,0.2,target,target,1,5.79
5,130,perceptual,0.1,0.2,competitor,target,1,6.518
5,131,numeric,0.1,0.05,competitor,target,1,7.372
5,132,perceptual,0.03,0.2,competitor,target,1,4.055
5,133,perceptual,0.03,0.2,competitor,target,1,5.136
5,134,numeric,0.03,0.2,target,competitor,0,15.051
5,135,numeric,0.03,0.05,target,target,1,13.064
5,136,numeric,0.03,0.2,competitor,competitor,0,8.348
5,137,perceptual,0.03,0.05,target,target,1,9.743
5,138,perceptual,0.03,0.2,target,target,1,7.451
5,139,numeric,0.1,0.05,target,target,1,11.387
5,140,perceptual,0.1,0.2,competitor,target,1,8.113
5,141,numeric,0.1,0.05,target,target,1,11.158
5,142,numeric,0.1,0.2,competitor,target,1,9.596
5,143,numeric,0.1,0.05,competitor,target,1,11.343
5,144,perceptual,0.1,0.05,target,target,1,6.27
5,145,numeric,0.1,0.2,target,target,1,13.357
5,146,numeric,0.03,0.2,target,target,1,15.335
5,147,numeric,0.1,0.2,competitor,target,1,11.178
5,148,perceptual,0.03,0.2,competitor,competitor,0,5.663
5,149,perceptual,0.1,0.2,target,target,1,4.193
5,150,numeric,0.03,0.2,target,target,1,10.155
5,151,numeric,0.1,0.05,target,target,1,5.224
5,152,numeric,0.03,0.2,competitor,target,1,8.466
5,154,numeric,0.03,0.2,competitor,competitor,0,5.974
5,155,perceptual,0.03,0.05,competitor,target,1,5.94
5,156,perceptual,0.03,0.2,target,competitor,0,6.673
5,157,perceptual,0.1,0.05,target,decoy,0,4.436
5,158,numeric,0.03,0.2,competitor,target,1,5.1
5,159,numeric,0.03,0.2,target,target,1,12.684
5,160,numeric,0.03,0.2,target,competitor,0,10.92
5,161,perceptual,0.1,0.2,target,target,1,3.23
5,162,numeric,0.03,0.05,competitor,target,1,8.37
5,163,perceptual,0.1,0.2,competitor,target,1,3.793
5,164,perceptual,0.1,0.05,competitor,target,1,3.854
5,165,numeric,0.03,0.05,target,target,1,6.598
5,166,numeric,0.1,0.2,target,target,1,11.809
5,167,numeric,0.1,0.2,competitor,target,1,12.537
5,168,perceptual,0.1,0.2,target,target,1,6.906
5,169,numeric,0.1,0.05,competitor,target,1,10.009
5,170,perceptual,0.1,0.2,target,target,1,8.429
5,171,perceptual,0.03,0.05,competitor,target,1,9.439
5,172,perceptual,0.1,0.2,competitor,target,1,6.532
5,173,perceptual,0.03,0.2,target,target,1,3.433
5,174,perceptual,0.03,0.2,competitor,target,1,4.423
5,175,perceptual,0.1,0.2,competitor,target,1,7.133
5,176,perceptual,0.03,0.2,target,target,1,6.942
5,177,perceptual,0.03,0.2,target,competitor,0,3.081
5,178,perceptual,0.1,0.05,competitor,target,1,5.521
5,179,perceptual,0.03,0.05,competitor,target,1,8.889
5,180,perceptual,0.03,0.05,target,decoy,0,2.763
5,181,numeric,0.03,0.05,target,target,1,7.683
5,182,perceptual,0.03,0.05,target,decoy,0,9.508
5,183,numeric,0.1,0.2,target,target,1,11.363
5,184,perceptual,0.03,0.05,target,decoy,0,8.548
5,185,perceptual,0.03,0.05,target,target,1,10.198
5,186,numeric,0.03,0.2,target,target,1,7.512
5,187,numeric,0.03,0.2,competitor,target,1,10.12
5,188,numeric,0.1,0.05,competitor,target,1,9.999
5,189,numeric,0.1,0.05,competitor,target,1,10.238
5,190,perceptual,0.1,0.05,competitor,target,1,5.236
5,191,numeric,0.1,0.2,target,target,1,5.898
5,192,perceptual,0.03,0.2,competitor,target,1,3.49
6,1,perceptual,0.1,0.2,competitor,competitor,0,9.36
6,2,numeric,0.1,0.05,competitor,target,1,10.283
6,3,perceptual,0.03,0.2,target,target,1,6.116
6,4,perceptual,0.1,0.2,competitor,target,1,7.99
6,5,perceptual,0.1,0.2,competitor,target,1,11.01
6,6,numeric,0.1,0.2,competitor,target,1,9.466
6,7,perceptual,0.03,0.2,target,target,1,8.629
6,8,perceptual,0.1,0.2,target,target,1,7.035
6,9,perceptual,0.1,0.2,target,competitor,0,5.521
6,10,numeric,0.1,0.2,competitor,target,1,9.229
6,11,perceptual,0.1,0.05,target,decoy,0,5.732
6,12,numeric,0.03,0.05,target,target,1,13.451
6,13,perceptual,0.03,0.2,target,competitor,0,6.75
6,14,numeric,0.03,0.2,competitor,target,1,10.68
6,15,perceptual,0.03,0.2,competitor,target,1,6.536
6,16,perceptual,0.1,0.05,target,target,1,7.417
6,17,perceptual,0.1,0.2,target,target,1,8.235
6,18,perceptual,0.1,0.2,competitor,target,1,3.434
6,19,numeric,0.03,0.2,target,target,1,13.86
6,20,numeric,0.1,0.05,competitor,target,1,8.647
6,21,perceptual,0.03,0.05,competitor,target,1,5.475
6,22,perceptual,0.03,0.05,target,decoy,0,6.439
6,23,perceptual,0.1,0.05,target,target,1,5.995
6,24,numeric,0.03,0.05,target,target,1,7.51
6,25,perceptual,0.03,0.2,competitor,competitor,0,6.918
6,26,numeric,0.03,0.05,target,target,1,10.539
6,27,perceptual,0.1,0.2,competitor,target,1,4.711
6,28,numeric,0.1,0.05,target,target,1,10.78
6,29,perceptual,0.03,0.05,competitor,target,1,5.104
6,30,perceptual,0.03,0.05,target,target,1,4.776
6,31,perceptual,0.1,0.05,target,decoy,0,6.536
6,32,perceptual,0.1,0.2,target,target,1,5.751
6,33,perceptual,0.1,0.2,target,target,1,5.187
6,34,numeric,0.1,0.2,competitor,target,1,11.166
6,35,numeric,0.03,0.05,target,target,1,14.942
6,36,perceptual,0.03,0.2,competitor,target,1,6.093
6,37,numeric,0.1,0.2,target,target,1,12.918
6,38,numeric,0.03,0.2,competitor,competitor,0,11.158
6,39,perceptual,0.1,0.05,competitor,competitor,0,6.568
6,40,perceptual,0.03,0.2,competitor,target,1,6.077
6,41,perceptual,0.1,0.2,target,target,1,9.276
6,42,perceptual,0.1,0.05,competitor,competitor,0,6.619
6,43,perceptual,0.03,0.2,target,target,1,4.197
6,44,numeric,0.1,0.05,target,target,1,13.682
6,45,numeric,0.03,0.05,competitor,target,1,12.849
6,46,numeric,0.1,0.05,target,target,1,17.865
6,47,perceptual,0.03,0.05,competitor,competitor,0,4.751
6,48,numeric,0.03,0.2,target,target,1,14.631
6,49,perceptual,0.03,0.05,competitor,target,1,3.894
6,50,perceptual,0.1,0.05,competitor,target,1,6.198
6,51,numeric,0.1,0.05,competitor,target,1,7.523
6,52,perceptual,0.1,0.05,competitor,target,1,6.803
6,53,numeric,0.03,0.05,competitor,target,1,9.261
6,54,numeric,0.03,0.2,competitor,competitor,0,12.565
6,55,numeric,0.1,0.2,target,target,1,9.143
6,56,numeric,0.03,0.05,target,target,1,13.75
6,57,perceptual,0.03,0.05,target,target,1,8.999
6,58,perceptual,0.1,0.2,competitor,target,1,7.075
6,59,perceptual,0.03,0.05,competitor,target,1,5.634
6,60,perceptual,0.03,0.2,competitor,target,1,4.355
6,61,numeric,0.03,0.05,competitor,competitor,0,14.794
6,62,numeric,0.03,0.2,competitor,target,1,11.163
6,63,numeric,0.03,0.2,competitor,competitor,0,16.164
6,64,perceptual,0.03,0.05,target,target,1,6.829
6,65,numeric,0.03,0.2,target,target,1,11.265
6,66,numeric,0.03,0.05,competitor,competitor,0,13.768
6,67,perceptual,0.1,0.2,target,competitor,0,6.279
6,68,numeric,0.03,0.2,competitor,target,1,14.066
6,69,perceptual,0.1,0.2,competitor,target,1,10.391
6,70,perceptual,0.1,0.2,target,target,1,5.885
6,71,perceptual,0.03,0.2,target,target,1,7.263
6,72,numeric,0.1,0.05,competitor,target,1,13.806
6,73,numeric,0.03,0.05,target,target,1,14.064
6,74,numeric,0.03,0.2,competitor,target,1,17.874
6,75,numeric,0.03,0.05,competitor,target,1,10.038
6,76,numeric,0.03,0.05,target,competitor,0,15.644
6,77,numeric,0.1,0.05,competitor,target,1,11.317
6,78,numeric,0.1,0.2,target,target,1,11.635
6,79,perceptual,0.1,0.05,competitor,target,1,4.968
6,80,numeric,0.1,0.05,competitor,target,1,8.958
6,81,numeric,0.1,0.2,target,competitor,0,9.625
6,82,perceptual,0.1,0.2,competitor,target,1,3.848
6,83,perceptual,0.1,0.2,competitor,target,1,5.246
6,84,perceptual,0.03,0.05,target,target,1,5.123
6,85,perceptual,0.03,0.05,competitor,target,1,5.95
6,86,perceptual,0.1,0.05,target,decoy,0,4.537
6,87,numeric,0.1,0.2,competitor,target,1,18.637
6,88,numeric,0.03,0.05,target,competitor,0,10.571
6,89,perceptual,0.1,0.05,competitor,target,1,5.401
6,90,numeric,0.03,0.2,competitor,decoy,0,11.23
6,91,numeric,0.1,0.05,target,target,1,9.048
6,92,numeric,0.1,0.2,target,target,1,7.961
6,94,perceptual,0.03,0.2,competitor,competitor,0,5.767
6,95,numeric,0.1,0.2,competitor,target,1,5.367
6,96,numeric,0.1,0.05,target,target,1,7.505
6,97,perceptual,0.1,0.2,competitor,target,1,3.792
6,98,perceptual,0.1,0.05,target,decoy,0,4.156
6,99,perceptual,0.03,0.05,competitor,target,1,5.909
6,100,numeric,0.03,0.2,target,target,1,8.055
6,101,perceptual,0.03,0.2,target,competitor,0,3.391
6,102,numeric,0.1,0.2,target,target,1,8.505
6,103,numeric,0.03,0.2,competitor,target,1,6.598
6,104,numeric,0.1,0.2,competitor,target,1,7.234
6,105,numeric,0.1,0.05,target,target,1,8.448
6,106,perceptual,0.03,0.05,target,decoy,0,4.783
6,107,numeric,0.03,0.2,target,target,1,10.304
6,108,perceptual,0.1,0.05,competitor,target,1,5.833
6,109,numeric,0.1,0.05,competitor,competitor,0,9.926
6,110,perceptual,0.03,0.2,target,target,1,6.399
6,111,perceptual,0.03,0.05,target,competitor,0,5.582
6,112,perceptual,0.03,0.05,competitor,decoy,0,5.439
6,113,perceptual,0.1,0.05,target,target,1,3.663
6,114,numeric,0.1,0.05,competitor,target,1,8.73
6,115,numeric,0.1,0.05,target,target,1,8.796
6,116,perceptual,0.03,0.05,competitor,target,1,4.679
6,117,numeric,0.1,0.2,target,target,1,6.953
6,118,numeric,0.03,0.05,target,target,1,10.77
6,119,perceptual,0.1,0.05,competitor,target,1,6.841
6,120,numeric,0.03,0.05,competitor,target,1,7.947
6,121,perceptual,0.1,0.05,target,decoy,0,4.063
6,122,perceptual,0.1,0.05,competitor,target,1,4.582
6,123,numeric,0.1,0.05,target,target,1,7.931
6,124,perceptual,0.03,0.2,target,target,1,4.349
6,125,perceptual,0.1,0.2,target,target,1,3.925
6,126,perceptual,0.1,0.2,target,target,1,3.981
6,127,numeric,0.1,0.05,competitor,competitor,0,8.343
6,128,perceptual,0.1,0.2,competitor,target,1,7.214
6,129,perceptual,0.1,0.05,target,decoy,0,3.387
6,130,numeric,0.1,0.05,competitor,target,1,6.589
6,131,numeric,0.03,0.2,target,target,1,7.123
6,132,numeric,0.03,0.2,target,target,1,9.952
6,133,perceptual,0.03,0.05,target,target,1,5.334
6,134,numeric,0.03,0.2,target,target,1,8.892
6,135,perceptual,0.03,0.2,competitor,competitor,0,5.051
6,136,numeric,0.1,0.05,target,decoy,0,10.012
6,137,numeric,0.1,0.2,target,target,1,10.565
6,138,perceptual,0.03,0.2,competitor,target,1,6.55
6,139,numeric,0.03,0.05,competitor,competitor,0,9.517
6,140,numeric,0.03,0.05,competitor,target,1,9.327
6,141,numeric,0.1,0.2,competitor,target,1,7.057
6,142,numeric,0.1,0.2,competitor,target,1,6.033
6,143,perceptual,0.03,0.2,competitor,competitor,0,6.466
6,144,perceptual,0.03,0.2,competitor,target,1,3.922
6,145,perceptual,0.1,0.2,competitor,target,1,2.791
6,146,numeric,0.1,0.2,target,target,1,5.491
6,147,numeric,0.1,0.05,target,target,1,6.678
6,148,perceptual,0.03,0.05,competitor,target,1,4.115
6,149,perceptual,0.03,0.2,target,target,1,4.857
6,150,numeric,0.03,0.2,competitor,competitor,0,10.942
6,151,numeric,0.03,0.05,target,target,1,6.359
6,152,perceptual,0.1,0.05,competitor,target,1,5.318
6,153,numeric,0.1,0.05,competitor,target,1,6.633
6,154,perceptual,0.1,0.05,competitor,decoy,0,4.383
6,155,numeric,0.1,0.05,target,target,1,5.716
6,156,numeric,0.1,0.2,competitor,target,1,5.034
6,157,perceptual,0.1,0.05,competitor,target,1,4.277
6,158,perceptual,0.03,0.2,target,target,1,10.244
6,159,numeric,0.1,0.2,target,target,1,7.913
6,160,numeric,0.03,0.05,competitor,competitor,0,6.395
6,161,numeric,0.1,0.2,competitor,target,1,9.588
6,162,numeric,0.1,0.2,target,target,1,5.56
6,163,perceptual,0.03,0.2,competitor,decoy,0,3.015
6,164,numeric,0.03,0.05,competitor,target,1,8.396
6,165,perceptual,0.03,0.05,target,decoy,0,4.77
6,166,perceptual,0.1,0.05,target,competitor,0,7.602
6,167,numeric,0.03,0.2,competitor,target,1,8.237
6,168,numeric,0.1,0.05,target,target,1,8.065
6,169,numeric,0.1,0.05,competitor,target,1,7.258
6,170,perceptual,0.03,0.2,competitor,target,1,4.393
6,171,perceptual,0.03,0.05,target,target,1,3.95
6,172,perceptual,0.1,0.05,target,decoy,0,5.674
6,173,perceptual,0.03,0.2,target,target,1,4.175
6,174,numeric,0.03,0.2,target,target,1,8.555
6,175,perceptual,0.03,0.05,competitor,decoy,0,4.613
6,176,numeric,0.03,0.05,competitor,competitor,0,9.154
6,177,perceptual,0.03,0.05,target,target,1,6.094
6,178,numeric,0.1,0.2,target,competitor,0,7.7
6,179,numeric,0.1,0.2,competitor,target,1,5.292
6,180,perceptual,0.1,0.2,target,target,1,5.072
6,181,numeric,0.03,0.2,target,competitor,0,8.339
6,182,numeric,0.1,0.2,competitor,target,1,7.784
6,183,numeric,0.03,0.05,target,target,1,8.376
6,184,numeric,0.03,0.2,target,target,1,7.618
6,185,numeric,0.03,0.05,target,target,1,6.967
6,186,perceptual,0.1,0.2,target,decoy,0,6.308
6,187,perceptual,0.03,0.05,competitor,competitor,0,4.375
6,188,perceptual,0.1,0.05,target,decoy,0,4.677
6,189,numeric,0.03,0.2,competitor,target,1,9.615
6,190,perceptual,0.03,0.05,target,decoy,0,3.601
6,191,numeric,0.03,0.2,target,target,1,7.537
6,192,perceptual,0.03,0.2,target,target,1,3.52
7,1,perceptual,0.1,0.05,competitor,target,1,6.122
7,2,perceptual,0.1,0.05,competitor,target,1,6.457
7,3,perceptual,0.03,0.05,target,decoy,0,9.319
7,4,numeric,0.1,0.2,target,target,1,8.163
7,5,perceptual,0.03,0.2,target,target,1,8.829
7,6,perceptual,0.03,0.2,competitor,competitor,0,5.74
7,7,numeric,0.1,0.05,competitor,target,1,5.129
7,8,numeric,0.03,0.05,target,decoy,0,5.691
7,9,perceptual,0.1,0.2,target,target,1,5.718
7,10,perceptual,0.03,0.05,target,target,1,5.843
7,11,perceptual,0.03,0.2,target,competitor,0,4.012
7,12,perceptual,0.1,0.2,target,target,1,4.711
7,13,perceptual,0.1,0.2,target,target,1,6.169
7,14,perceptual,0.1,0.2,competitor,target,1,3.987
7,15,numeric,0.1,0.05,competitor,target,1,4.8
7,16,numeric,0.1,0.2,target,target,1,7.046
7,17,perceptual,0.03,0.2,competitor,target,1,6.062
7,18,numeric,0.1,0.05,competitor,target,1,4.501
7,19,perceptual,0.1,0.2,target,target,1,3.789
7,20,perceptual,0.03,0.05,competitor,target,1,4.861
7,21,numeric,0.03,0.2,competitor,competitor,0,18.293
7,22,numeric,0.03,0.2,target,target,1,4.026
7,23,perceptual,0.1,0.05,competitor,target,1,3.409
7,24,numeric,0.03,0.05,competitor,target,1,6.623
7,25,numeric,0.03,0.2,competitor,competitor,0,9.827
7,26,perceptual,0.1,0.05,target,target,1,6.552
7,27,perceptual,0.1,0.05,competitor,target,1,4.924
7,28,perceptual,0.03,0.2,target,competitor,0,5.264
7,29,perceptual,0.03,0.05,target,competitor,0,5.733
7,30,perceptual,0.03,0.2,competitor,target,1,5.937
7,31,perceptual,0.03,0.05,competitor,target,1,3.364
7,32,perceptual,0.1,0.2,target,target,1,4.54
7,33,numeric,0.03,0.2,competitor,target,1,11.256
7,34,numeric,0.1,0.2,competitor,competitor,0,7.498
7,35,numeric,0.03,0.05,target,target,1,11.188
7,36,numeric,0.03,0.05,target,target,1,2.954
7,37,perceptual,0.1,0.05,target,decoy,0,4.28
7,38,numeric,0.1,0.05,competitor,competitor,0,2.96
7,39,perceptual,0.03,0.05,target,competitor,0,2.952
7,40,numeric,0.03,0.05,competitor,decoy,0,2.457
7,41,perceptual,0.03,0.05,competitor,target,1,2.724
7,42,perceptual,0.03,0.2,target,target,1,3.053
7,43,numeric,0.03,0.2,competitor,competitor,0,12.453
7,44,numeric,0.03,0.2,competitor,competitor,0,6.776
7,45,perceptual,0.1,0.2,competitor,competitor,0,3.167
7,46,numeric,0.03,0.2,target,target,1,6.685
7,47,perceptual,0.03,0.2,competitor,target,1,4.449
7,48,numeric,0.03,0.05,competitor,target,1,13.663
7,49,numeric,0.1,0.05,target,target,1,10.18
7,50,perceptual,0.1,0.2,competitor,competitor,0,7.428
7,51,numeric,0.1,0.2,target,target,1,7.098
7,52,numeric,0.1,0.2,target,target,1,9.213
7,53,numeric,0.03,0.2,target,target,1,6.955
7,54,perceptual,0.1,0.05,competitor,target,1,6.347
7,55,perceptual,0.03,0.05,target,target,1,5.469
7,56,numeric,0.03,0.05,target,target,1,8.285
7,57,perceptual,0.03,0.05,target,target,1,3.477
7,58,numeric,0.03,0.2,target,target,1,7.648
7,59,perceptual,0.03,0.05,target,target,1,7.274
7,60,perceptual,0.1,0.2,competitor,target,1,3.263
7,61,numeric,0.03,0.2,competitor,target,1,4.277
7,62,perceptual,0.1,0.05,target,decoy,0,3.963
7,63,numeric,0.1,0.05,target,target,1,8.112
7,64,numeric,0.03,0.05,target,target,1,8.535
7,65,perceptual,0.03,0.2,competitor,target,1,6.287
7,66,numeric,0.03,0.05,target,target,1,5.842
7,67,numeric,0.03,0.2,target,target,1,8.939
7,68,numeric,0.1,0.2,target,target,1,3.417
7,69,perceptual,0.03,0.05,competitor,competitor,0,2.647
7,70,perceptual,0.1,0.2,target,target,1,2.943
7,71,numeric,0.1,0.05,competitor,target,1,3.679
7,72,perceptual,0.03,0.05,competitor,target,1,4.002
7,73,numeric,0.03,0.05,competitor,decoy,0,5.189
7,74,numeric,0.1,0.2,competitor,target,1,3.028
7,75,numeric,0.1,0.2,competitor,target,1,8.231
7,76,perceptual,0.03,0.05,target,target,1,4.866
7,77,perceptual,0.03,0.05,competitor,target,1,2.78
7,78,perceptual,0.1,0.05,competitor,target,1,3.36
7,79,perceptual,0.03,0.05,competitor,competitor,0,8.94
7,80,perceptual,0.03,0.2,competitor,decoy,0,0.013
7,81,numeric,0.03,0.05,target,target,1,7.011
7,82,numeric,0.1,0.2,target,target,1,6.246
7,83,numeric,0.03,0.05,competitor,target,1,11.199
7,84,numeric,0.03,0.2,target,target,1,3.352
7,85,perceptual,0.1,0.05,target,competitor,0,4.664
7,86,perceptual,0.1,0.05,competitor,target,1,2.968
7,87,numeric,0.1,0.2,target,target,1,3.244
7,88,numeric,0.03,0.2,competitor,target,1,3.455
7,89,numeric,0.1,0.05,target,target,1,8.368
7,90,perceptual,0.03,0.2,target,target,1,3.258
7,91,numeric,0.1,0.2,competitor,competitor,0,9.321
7,92,numeric,0.1,0.2,competitor,decoy,0,3.979
7,93,numeric,0.1,0.05,competitor,competitor,0,8.995
7,94,numeric,0.1,0.05,target,target,1,7.101
7,95,perceptual,0.1,0.05,competitor,target,1,2.725
7,96,numeric,0.03,0.2,target,competitor,0,6.746
7,97,perceptual,0.03,0.2,target,target,1,3.551
7,98,numeric,0.1,0.2,target,target,1,5.14
7,99,numeric,0.1,0.2,target,target,1,3.93
7,100,perceptual,0.03,0.2,competitor,target,1,4.375
7,101,numeric,0.03,0.05,target,target,1,4.895
7,102,perceptual,0.03,0.2,target,competitor,0,4.285
7,103,numeric,0.03,0.2,competitor,competitor,0,6.193
7,104,numeric,0.03,0.2,target,target,1,4.281
7,105,perceptual,0.1,0.2,competitor,target,1,2.853
7,106,perceptual,0.03,0.2,competitor,competitor,0,5.55
7,107,perceptual,0.1,0.05,target,target,1,3.298
7,108,numeric,0.03,0.05,target,target,1,7.537
7,109,perceptual,0.1,0.2,competitor,target,1,3.327
7,110,perceptual,0.1,0.05,competitor,target,1,2.98
7,111,numeric,0.03,0.05,competitor,competitor,0,6.847
7,112,perceptual,0.1,0.2,competitor,target,1,2.818
7,113,numeric,0.1,0.2,competitor,target,1,6.882
7,114,numeric,0.03,0.2,competitor,target,1,5.714
7,115,numeric,0.1,0.2,competitor,target,1,5.317
7,116,numeric,0.03,0.2,competitor,target,1,6.289
7,117,perceptual,0.03,0.2,competitor,competitor,0,3.15
7,118,perceptual,0.03,0.05,target,decoy,0,3.372
7,119,numeric,0.03,0.05,competitor,target,1,4.315
7,120,perceptual,0.03,0.2,target,competitor,0,6.113
7,121,numeric,0.1,0.2,target,target,1,12.156
7,122,numeric,0.1,0.05,competitor,target,1,7.315
7,123,numeric,0.03,0.05,target,target,1,8.351
7,124,perceptual,0.1,0.2,competitor,competitor,0,2.823
7,125,numeric,0.03,0.2,target,target,1,7.491
7,126,perceptual,0.03,0.05,competitor,competitor,0,3.515
7,127,numeric,0.03,0.2,competitor,target,1,7.679
7,128,numeric,0.1,0.05,competitor,target,1,7.292
7,129,perceptual,0.03,0.2,competitor,competitor,0,3.195
7,130,numeric,0.1,0.05,target,target,1,6.213
7,131,perceptual,0.03,0.2,competitor,target,1,3.469
7,132,numeric,0.03,0.05,competitor,target,1,6.151
7,133,perceptual,0.1,0.2,target,target,1,3.499
7,134,perceptual,0.03,0.05,target,competitor,0,3.249
7,135,perceptual,0.1,0.2,target,target,1,4.059
7,136,numeric,0.1,0.05,competitor,target,1,6.179
7,137,numeric,0.1,0.05,target,target,1,7.03
7,138,numeric,0.1,0.05,target,target,1,6.168
7,139,perceptual,0.1,0.2,target,target,1,3.228
7,140,perceptual,0.1,0.05,target,target,1,5.471
7,141,perceptual,0.1,0.05,competitor,target,1,4.547
7,142,numeric,0.1,0.2,competitor,target,1,6.467
7,143,perceptual,0.1,0.2,competitor,competitor,0,3.044
7,144,perceptual,0.1,0.2,competitor,target,1,2.582
7,145,numeric,0.1,0.05,competitor,target,1,5.359
7,146,numeric,0.03,0.2,competitor,competitor,0,4.819
7,147,numeric,0.1,0.2,competitor,target,1,6.486
7,148,perceptual,0.1,0.05,competitor,target,1,2.694
7,149,perceptual,0.1,0.05,competitor,target,1,6.824
7,150,numeric,0.1,0.05,target,target,1,8.516
7,151,perceptual,0.1,0.05,target,target,1,7.75
7,152,numeric,0.03,0.05,target,target,1,7.157
7,153,numeric,0.03,0.05,competitor,target,1,5.719
7,154,perceptual,0.03,0.05,target,target,1,3.052
7,155,perceptual,0.1,0.2,target,target,1,3.469
7,156,perceptual,0.1,0.05,target,decoy,0,2.825
7,157,perceptual,0.1,0.05,target,target,1,5.048
7,158,numeric,0.1,0.05,target,target,1,8.923
7,159,numeric,0.1,0.05,target,target,1,9.438
7,160,numeric,0.1,0.05,competitor,target,1,5.91
7,161,numeric,0.03,0.05,competitor,competitor,0,10.128
7,162,perceptual,0.03,0.2,target,target,1,3.742
7,163,numeric,0.1,0.2,target,target,1,7.849
7,164,numeric,0.1,0.05,competitor,competitor,0,4.864
7,165,perceptual,0.03,0.05,competitor,target,1,5.506
7,166,numeric,0.03,0.2,target,competitor,0,4.405
7,167,perceptual,0.1,0.2,target,target,1,8.487
7,168,numeric,0.03,0.05,competitor,target,1,6.966
7,169,numeric,0.1,0.05,target,target,1,7.565
7,170,numeric,0.1,0.2,competitor,target,1,7.974
7,171,numeric,0.03,0.2,target,target,1,8.07
7,172,perceptual,0.1,0.05,target,target,1,4.257
7,173,perceptual,0.03,0.05,competitor,target,1,3.913
7,174,numeric,0.03,0.2,target,competitor,0,8.859
7,175,numeric,0.1,0.2,target,target,1,12.934
7,176,perceptual,0.03,0.05,competitor,competitor,0,3.289
7,177,numeric,0.1,0.2,competitor,target,1,7.645
7,178,perceptual,0.1,0.2,competitor,competitor,0,2.594
7,179,perceptual,0.1,0.05,target,target,1,3.845
7,180,numeric,0.1,0.05,target,target,1,11.397
7,181,perceptual,0.03,0.2,target,competitor,0,3.115
7,182,perceptual,0.1,0.2,competitor,target,1,5.127
7,183,perceptual,0.1,0.2,target,target,1,3.684
7,184,perceptual,0.03,0.05,competitor,decoy,0,4.358
7,185,perceptual,0.1,0.05,target,decoy,0,3.858
7,186,numeric,0.03,0.05,competitor,competitor,0,19.235
7,187,numeric,0.1,0.2,competitor,target,1,5.314
7,188,perceptual,0.03,0.2,target,competitor,0,2.933
7,189,numeric,0.03,0.05,target,target,1,6.525
7,190,perceptual,0.03,0.2,competitor,target,1,5.159
7,191,perceptual,0.03,0.2,target,target,1,4.334
7,192,perceptual,0.03,0.05,target,competitor,0,5.987
8,2,perceptual,0.1,0.2,target,decoy,0,0.246
8,3,perceptual,0.1,0.2,competitor,competitor,0,8.426
8,4,numeric,0.03,0.2,competitor,competitor,0,10.899
8,5,perceptual,0.1,0.05,competitor,competitor,0,9.362
8,6,numeric,0.1,0.05,target,target,1,7.938
8,7,perceptual,0.1,0.2,competitor,competitor,0,7.129
8,9,perceptual,0.1,0.2,target,target,1,7.629
8,10,perceptual,0.1,0.05,target,decoy,0,11.682
8,11,perceptual,0.1,0.2,target,decoy,0,8.034
8,12,numeric,0.1,0.05,target,target,1,18.031
8,13,perceptual,0.03,0.05,competitor,target,1,4.415
8,14,perceptual,0.03,0.2,competitor,target,1,7.232
8,15,perceptual,0.03,0.2,target,target,1,5.967
8,16,numeric,0.1,0.2,competitor,competitor,0,16.688
8,17,perceptual,0.03,0.2,competitor,competitor,0,6.385
8,18,perceptual,0.1,0.2,competitor,decoy,0,7.652
8,19,perceptual,0.03,0.05,target,decoy,0,5.64
8,20,perceptual,0.03,0.2,target,target,1,6.383
8,21,perceptual,0.03,0.05,target,competitor,0,9.1
8,22,perceptual,0.03,0.05,competitor,competitor,0,6.55
8,23,numeric,0.1,0.2,target,competitor,0,8.21
8,24,numeric,0.03,0.05,competitor,competitor,0,10.063
8,25,perceptual,0.03,0.05,competitor,target,1,6.101
8,26,perceptual,0.03,0.05,target,target,1,11.721
8,27,numeric,0.1,0.05,target,target,1,5.496
8,28,perceptual,0.1,0.05,competitor,competitor,0,8.152
8,29,perceptual,0.1,0.05,target,target,1,5.929
8,30,numeric,0.03,0.05,target,target,1,6.911
8,31,numeric,0.03,0.05,target,target,1,11.828
8,32,perceptual,0.1,0.05,competitor,target,1,9.029
8,33,numeric,0.03,0.2,target,target,1,9.008
8,34,perceptual,0.1,0.05,competitor,decoy,0,9.662
8,35,numeric,0.03,0.2,competitor,target,1,7.766
8,36,numeric,0.03,0.2,competitor,target,1,9.679
8,37,perceptual,0.1,0.2,target,target,1,7.636
8,38,perceptual,0.1,0.2,target,target,1,6.231
8,39,numeric,0.1,0.2,competitor,target,1,17.111
8,40,perceptual,0.1,0.05,target,target,1,8.077
8,41,perceptual,0.03,0.2,target,target,1,7.425
8,42,perceptual,0.03,0.2,competitor,target,1,7.816
8,43,numeric,0.1,0.2,competitor,target,1,5.329
8,44,perceptual,0.03,0.05,target,target,1,5.313
8,45,perceptual,0.1,0.2,competitor,target,1,5.486
8,46,perceptual,0.1,0.2,competitor,target,1,4.632
8,47,perceptual,0.1,0.05,competitor,target,1,6.724
8,48,perceptual,0.03,0.05,competitor,target,1,13.825
8,49,numeric,0.03,0.2,competitor,target,1,8.233
8,50,perceptual,0.03,0.2,target,competitor,0,7.985
8,51,numeric,0.03,0.2,competitor,target,1,8.995
8,52,numeric,0.1,0.2,target,target,1,6.195
8,53,numeric,0.1,0.2,target,target,1,6.236
8,54,numeric,0.03,0.05,competitor,target,1,10.916
8,55,perceptual,0.03,0.2,competitor,target,1,5.609
8,56,perceptual,0.03,0.2,competitor,competitor,0,9.566
8,57,numeric,0.1,0.2,target,target,1,6.544
8,58,perceptual,0.1,0.05,target,target,1,5.559
8,59,numeric,0.03,0.05,target,target,1,6.901
8,60,perceptual,0.03,0.05,target,competitor,0,6.939
8,61,numeric,0.03,0.05,target,target,1,10.234
8,62,perceptual,0.1,0.2,competitor,target,1,7.127
8,63,perceptual,0.1,0.05,target,decoy,0,9.97
8,64,perceptual,0.03,0.05,competitor,competitor,0,7.869
8,65,perceptual,0.03,0.2,competitor,competitor,0,5.909
8,66,numeric,0.1,0.05,competitor,target,1,4.587
8,67,numeric,0.03,0.2,competitor,competitor,0,5.22
8,68,numeric,0.03,0.05,competitor,target,1,8.776
8,69,numeric,0.1,0.05,competitor,competitor,0,5.744
8,70,numeric,0.03,0.2,target,target,1,5.569
8,71,perceptual,0.1,0.2,competitor,target,1,3.855
8,72,perceptual,0.1,0.05,competitor,target,1,3.872
8,73,numeric,0.03,0.05,competitor,target,1,5.986
8,74,numeric,0.1,0.2,competitor,target,1,8.051
8,75,numeric,0.1,0.2,competitor,competitor,0,6.197
8,76,numeric,0.1,0.05,competitor,target,1,6.399
8,77,numeric,0.03,0.05,target,target,1,6.901
8,78,perceptual,0.1,0.05,target,target,1,7.695
8,79,perceptual,0.1,0.05,competitor,target,1,6.245
8,80,numeric,0.1,0.2,target,target,1,4.913
8,81,numeric,0.1,0.05,target,target,1,5.617
8,82,perceptual,0.03,0.05,target,target,1,10.578
8,83,numeric,0.1,0.2,competitor,competitor,0,11.691
8,84,numeric,0.1,0.05,target,target,1,7.336
8,85,perceptual,0.1,0.05,target,target,1,7.369
8,86,numeric,0.03,0.05,competitor,competitor,0,7.83
8,87,perceptual,0.1,0.2,target,target,1,9.831
8,88,numeric,0.03,0.05,target,target,1,6.355
8,89,numeric,0.03,0.2,competitor,competitor,0,4.909
8,90,numeric,0.1,0.2,target,competitor,0,9.479
8,91,numeric,0.1,0.2,target,target,1,11.318
8,92,numeric,0.03,0.05,competitor,target,1,6.789
8,93,numeric,0.1,0.05,competitor,target,1,6.315
8,94,numeric,0.1,0.05,target,competitor,0,13.705
8,95,perceptual,0.03,0.05,competitor,target,1,7.955
8,96,perceptual,0.03,0.2,target,target,1,4.707
8,97,perceptual,0.03,0.2,target,target,1,6.593
8,98,numeric,0.03,0.05,competitor,target,1,4.205
8,99,perceptual,0.03,0.2,competitor,competitor,0,3.043
8,100,numeric,0.03,0.05,target,target,1,4.799
8,101,perceptual,0.03,0.2,competitor,target,1,4.66
8,102,numeric,0.1,0.05,competitor,target,1,8.136
8,103,numeric,0.03,0.05,competitor,decoy,0,8.346
8,104,numeric,0.1,0.05,competitor,target,1,5.685
8,105,perceptual,0.03,0.05,target,competitor,0,12.825
8,106,perceptual,0.03,0.2,competitor,target,1,4.352
8,107,numeric,0.03,0.2,competitor,target,1,6.458
8,108,numeric,0.03,0.2,target,target,1,9.881
8,109,numeric,0.1,0.2,target,target,1,8.55
8,110,perceptual,0.03,0.05,target,target,1,6.671
8,111,perceptual,0.1,0.05,competitor,target,1,4.72
8,112,perceptual,0.1,0.05,competitor,competitor,0,7.518
8,113,numeric,0.1,0.05,target,target,1,7.966
8,114,numeric,0.03,0.2,target,target,1,7.654
8,115,perceptual,0.1,0.2,competitor,target,1,7.265
8,116,perceptual,0.03,0.2,competitor,target,1,5.931
8,117,numeric,0.03,0.05,target,target,1,4.478
8,118,numeric,0.1,0.05,competitor,target,1,11.242
8,119,numeric,0.03,0.2,target,target,1,8.495
8,120,numeric,0.03,0.2,competitor,competitor,0,6.14
8,121,numeric,0.1,0.05,target,target,1,9.873
8,122,perceptual,0.03,0.2,target,target,1,5.205
8,123,numeric,0.1,0.05,competitor,target,1,5.137
8,124,perceptual,0.03,0.05,competitor,decoy,0,9.126
8,125,numeric,0.1,0.2,competitor,competitor,0,9.597
8,126,perceptual,0.03,0.05,target,competitor,0,7.313
8,127,perceptual,0.1,0.2,target,target,1,6.345
8,128,numeric,0.03,0.2,target,target,1,4.693
8,129,numeric,0.1,0.2,target,competitor,0,11.094
8,130,perceptual,0.03,0.05,competitor,target,1,5.626
8,131,perceptual,0.1,0.2,target,target,1,5.686
8,132,perceptual,0.1,0.05,competitor,target,1,5.509
8,133,numeric,0.1,0.05,target,competitor,0,6.575
8,134,perceptual,0.1,0.2,target,target,1,3.57
8,135,numeric,0.03,0.2,target,target,1,11.976
8,136,perceptual,0.1,0.05,target,target,1,4.708
8,137,perceptual,0.1,0.05,competitor,target,1,4.567
8,138,perceptual,0.1,0.05,competitor,target,1,5.71
8,139,numeric,0.1,0.2,target,target,1,6.467
8,140,numeric,0.1,0.2,competitor,target,1,7.923
8,141,perceptual,0.03,0.2,target,target,1,3.175
8,142,perceptual,0.03,0.2,target,target,1,4.265
8,143,numeric,0.1,0.2,competitor,competitor,0,6.355
8,144,perceptual,0.03,0.05,competitor,competitor,0,3.299
8,145,numeric,0.1,0.05,target,target,1,5.079
8,146,numeric,0.1,0.05,competitor,target,1,5.715
8,147,numeric,0.03,0.2,target,target,1,5.109
8,148,numeric,0.1,0.2,competitor,competitor,0,9.695
8,149,numeric,0.1,0.05,target,decoy,0,5.179
8,150,perceptual,0.03,0.05,target,competitor,0,5.778
8,151,numeric,0.03,0.05,target,target,1,16.057
8,152,perceptual,0.1,0.05,target,decoy,0,5.33
8,153,numeric,0.03,0.2,competitor,target,1,5.241
8,154,numeric,0.03,0.2,competitor,target,1,6.982
8,155,perceptual,0.03,0.2,target,competitor,0,3.095
8,156,numeric,0.03,0.2,competitor,competitor,0,6.779
8,157,numeric,0.1,0.2,competitor,target,1,5.644
8,158,numeric,0.03,0.2,target,target,1,7.279
8,159,perceptual,0.03,0.05,competitor,target,1,3.086
8,160,numeric,0.03,0.05,competitor,competitor,0,7.503
8,161,numeric,0.1,0.05,target,target,1,6.631
8,162,numeric,0.1,0.2,target,target,1,2.904
8,163,perceptual,0.1,0.05,target,target,1,2.698
8,164,perceptual,0.03,0.2,competitor,competitor,0,3.248
8,165,perceptual,0.03,0.2,target,target,1,2.776
8,166,perceptual,0.1,0.2,target,target,1,3.016
8,167,numeric,0.03,0.2,target,competitor,0,3.993
8,168,numeric,0.1,0.05,competitor,target,1,5.25
8,169,perceptual,0.1,0.2,target,target,1,2.608
8,170,perceptual,0.03,0.05,competitor,competitor,0,4.579
8,171,numeric,0.1,0.2,competitor,decoy,0,5.566
8,172,numeric,0.1,0.05,competitor,target,1,6.223
8,173,perceptual,0.03,0.05,target,target,1,5.501
8,174,numeric,0.1,0.05,competitor,target,1,9.145
8,175,perceptual,0.1,0.2,competitor,target,1,5.382
8,176,numeric,0.03,0.05,target,target,1,3.464
8,177,perceptual,0.1,0.2,competitor,target,1,2.777
8,178,perceptual,0.03,0.2,target,target,1,3.686
8,179,perceptual,0.03,0.2,competitor,target,1,3.376
8,180,numeric,0.03,0.2,target,competitor,0,6.818
8,181,numeric,0.1,0.2,target,target,1,5.807
8,182,numeric,0.03,0.05,target,competitor,0,8.117
8,183,numeric,0.03,0.2,target,target,1,5.849
8,184,perceptual,0.03,0.05,target,target,1,2.729
8,185,perceptual,0.1,0.05,target,target,1,3.336
8,186,numeric,0.03,0.05,competitor,decoy,0,2.709
8,187,perceptual,0.03,0.05,competitor,decoy,0,3.085
8,188,perceptual,0.1,0.2,competitor,target,1,4.304
8,189,numeric,0.03,0.05,competitor,target,1,7.958
8,190,perceptual,0.1,0.2,target,competitor,0,3.68
8,191,perceptual,0.1,0.2,competitor,competitor,0,2.639
8,192,perceptual,0.1,0.05,target,decoy,0,2.677
9,1,numeric,0.1,0.05,competitor,target,1,6.772
9,2,perceptual,0.03,0.2,competitor,target,1,5.324
9,3,numeric,0.03,0.05,target,target,1,8.249
9,4,numeric,0.03,0.05,target,competitor,0,9.264
9,5,numeric,0.03,0.05,competitor,competitor,0,9.867
9,6,perceptual,0.03,0.2,competitor,competitor,0,5.314
9,7,perceptual,0.03,0.05,target,decoy,0,5.234
9,8,perceptual,0.03,0.2,competitor,target,1,4.923
9,9,numeric,0.03,0.05,target,target,1,8.568
9,10,perceptual,0.1,0.05,competitor,target,1,4.749
9,11,numeric,0.03,0.05,target,target,1,8.012
9,12,numeric,0.1,0.2,target,target,1,10.795
9,13,perceptual,0.03,0.05,competitor,target,1,2.866
9,14,perceptual,0.1,0.2,competitor,competitor,0,4.186
9,15,perceptual,0.1,0.05,competitor,target,1,3.745
9,16,perceptual,0.1,0.05,target,competitor,0,2.474
9,17,numeric,0.03,0.2,competitor,competitor,0,7.788
9,18,numeric,0.1,0.2,target,target,1,5.429
9,19,numeric,0.03,0.05,target,target,1,6.33
9,20,perceptual,0.1,0.05,competitor,target,1,5.864
9,21,numeric,0.1,0.05,target,competitor,0,9.912
9,22,numeric,0.03,0.2,target,target,1,7.551
9,23,numeric,0.1,0.05,competitor,target,1,8.113
9,24,numeric,0.1,0.05,target,decoy,0,3.442
9,25,perceptual,0.1,0.2,competitor,target,1,2.16
9,26,numeric,0.03,0.05,competitor,target,1,4.546
9,27,perceptual,0.03,0.2,target,target,1,3.147
9,28,perceptual,0.03,0.05,competitor,target,1,6.003
9,29,numeric,0.03,0.2,competitor,target,1,7.74
9,30,numeric,0.03,0.2,target,target,1,7.052
9,31,numeric,0.1,0.2,competitor,target,1,8.604
9,32,numeric,0.1,0.05,competitor,target,1,4.123
9,33,perceptual,0.03,0.05,competitor,target,1,3.649
9,34,perceptual,0.03,0.2,target,competitor,0,3.446
9,35,numeric,0.03,0.2,competitor,target,1,5.898
9,36,perceptual,0.1,0.05,target,target,1,5.532
9,37,numeric,0.1,0.05,target,target,1,7.674
9,38,perceptual,0.1,0.2,competitor,target,1,4.761
9,39,numeric,0.1,0.05,competitor,target,1,8.451
9,40,numeric,0.1,0.2,competitor,competitor,0,6.867
9,41,numeric,0.03,0.2,competitor,competitor,0,5.274
9,42,numeric,0.1,0.05,target,competitor,0,4.833
9,43,numeric,0.1,0.2,competitor,competitor,0,3.928
9,44,numeric,0.03,0.2,competitor,competitor,0,4.577
9,45,numeric,0.1,0.2,target,target,1,7.92
9,46,perceptual,0.1,0.05,competitor,competitor,0,5.283
9,47,numeric,0.1,0.2,target,target,1,5.452
9,48,perceptual,0.1,0.2,competitor,target,1,4.731
9,49,perceptual,0.1,0.05,competitor,target,1,4.829
9,50,perceptual,0.1,0.05,target,target,1,4.6
9,51,perceptual,0.1,0.2,target,competitor,0,3.737
9,52,perceptual,0.03,0.2,competitor,competitor,0,4.915
9,53,perceptual,0.1,0.05,competitor,decoy,0,5.85
9,54,numeric,0.03,0.2,target,target,1,6.719
9,55,perceptual,0.1,0.05,target,target,1,6.636
9,56,perceptual,0.1,0.05,target,decoy,0,2.996
9,57,numeric,0.1,0.2,competitor,target,1,5.502
9,58,perceptual,0.03,0.05,target,decoy,0,5.652
9,59,perceptual,0.03,0.2,competitor,competitor,0,3.849
9,60,perceptual,0.03,0.2,target,competitor,0,4.489
9,61,perceptual,0.03,0.2,target,target,1,2.908
9,62,numeric,0.03,0.05,competitor,target,1,8.85
9,63,numeric,0.03,0.2,target,target,1,11.656
9,64,perceptual,0.03,0.2,target,competitor,0,4.289
9,65,numeric,0.1,0.2,competitor,competitor,0,7.064
9,66,perceptual,0.03,0.05,target,target,1,6.76
9,67,perceptual,0.1,0.2,target,target,1,2.942
9,68,numeric,0.1,0.05,target,target,1,6.678
9,69,numeric,0.03,0.2,competitor,competitor,0,10.003
9,70,perceptual,0.03,0.05,target,competitor,0,5.532
9,71,perceptual,0.03,0.2,competitor,decoy,0,6.824
9,72,numeric,0.1,0.05,target,decoy,0,11.049
9,73,numeric,0.1,0.05,competitor,target,1,9.03
9,74,numeric,0.1,0.2,target,target,1,4.587
9,75,perceptual,0.1,0.2,competitor,target,1,6.502
9,76,numeric,0.1,0.05,target,target,1,6.808
9,77,numeric,0.03,0.05,competitor,decoy,0,10.022
9,78,numeric,0.1,0.2,competitor,competitor,0,6.146
9,79,numeric,0.03,0.2,target,target,1,9.645
9,80,perceptual,0.1,0.05,competitor,competitor,0,6.449
9,81,perceptual,0.1,0.05,target,target,1,5.351
9,82,numeric,0.03,0.05,competitor,target,1,7.945
9,83,perceptual,0.1,0.05,competitor,competitor,0,4.003
9,84,perceptual,0.03,0.2,target,target,1,3.055
9,85,perceptual,0.1,0.05,target,decoy,0,5.217
9,86,numeric,0.03,0.05,target,target,1,5.302
9,87,numeric,0.03,0.05,competitor,target,1,6.758
9,88,perceptual,0.1,0.2,target,target,1,7.436
9,89,perceptual,0.03,0.2,target,competitor,0,5.398
9,90,perceptual,0.1,0.2,competitor,target,1,5.924
9,91,perceptual,0.03,0.2,competitor,target,1,3.377
9,92,perceptual,0.03,0.2,target,competitor,0,5.975
9,93,perceptual,0.03,0.05,competitor,target,1,6.294
9,94,perceptual,0.1,0.2,target,target,1,6.99
9,95,numeric,0.1,0.05,target,target,1,9.661
9,96,numeric,0.03,0.05,competitor,competitor,0,10.462
9,97,perceptual,0.03,0.2,competitor,target,1,5.698
9,98,perceptual,0.03,0.2,target,target,1,4.538
9,99,numeric,0.1,0.2,target,competitor,0,4.97
9,100,numeric,0.1,0.05,target,target,1,8.657
9,101,numeric,0.03,0.05,target,target,1,9.629
9,102,numeric,0.1,0.2,target,target,1,10.11
9,103,perceptual,0.03,0.2,competitor,target,1,5.387
9,104,perceptual,0.1,0.2,competitor,decoy,0,8.555
9,105,numeric,0.03,0.05,competitor,competitor,0,10.301
9,106,perceptual,0.03,0.05,target,decoy,0,5.797
9,107,numeric,0.03,0.05,competitor,decoy,0,5.813
9,108,perceptual,0.1,0.2,target,competitor,0,5.559
9,109,numeric,0.1,0.2,competitor,competitor,0,6.261
9,110,numeric,0.1,0.05,target,target,1,7.69
9,111,numeric,0.03,0.05,target,target,1,4.023
9,112,perceptual,0.1,0.2,competitor,competitor,0,3.896
9,113,perceptual,0.03,0.05,target,target,1,7.14
9,114,numeric,0.03,0.05,competitor,target,1,5.744
9,115,perceptual,0.1,0.05,target,competitor,0,4.326
9,116,numeric,0.03,0.2,target,target,1,7.078
9,117,numeric,0.03,0.2,competitor,competitor,0,7.308
9,118,numeric,0.1,0.2,competitor,competitor,0,3.268
9,119,perceptual,0.1,0.05,target,competitor,0,4.588
9,120,perceptual,0.03,0.2,competitor,target,1,3.281
9,121,perceptual,0.03,0.05,competitor,target,1,6.426
9,122,numeric,0.1,0.2,competitor,competitor,0,3.876
9,123,perceptual,0.03,0.05,competitor,target,1,3.527
9,124,numeric,0.03,0.2,target,decoy,0,3.581
9,125,numeric,0.1,0.05,target,target,1,9.078
9,126,numeric,0.03,0.2,competitor,target,1,7.484
9,127,perceptual,0.1,0.05,target,target,1,3.485
9,128,perceptual,0.03,0.2,target,competitor,0,3.564
9,129,perceptual,0.03,0.05,competitor,competitor,0,3.705
9,130,perceptual,0.03,0.05,target,decoy,0,3.686
9,131,numeric,0.1,0.2,competitor,target,1,5.363
9,132,numeric,0.1,0.05,target,target,1,3.747
9,133,perceptual,0.1,0.2,competitor,target,1,3.313
9,134,numeric,0.1,0.05,competitor,competitor,0,6.446
9,135,numeric,0.1,0.05,competitor,target,1,3.655
9,136,perceptual,0.03,0.05,competitor,decoy,0,5.198
9,137,perceptual,0.03,0.05,competitor,target,1,2.747
9,138,numeric,0.1,0.2,target,decoy,0,3.897
9,139,numeric,0.03,0.2,target,target,1,4.29
9,140,numeric,0.03,0.05,competitor,target,1,11.246
9,141,numeric,0.1,0.05,competitor,target,1,4.28
9,142,perceptual,0.03,0.05,competitor,target,1,3.496
9,143,numeric,0.03,0.2,target,competitor,0,4.638
9,144,perceptual,0.1,0.05,competitor,target,1,3.144
9,145,numeric,0.1,0.05,competitor,target,1,3.848
9,148,perceptual,0.03,0.2,competitor,competitor,0,0.413
9,149,perceptual,0.1,0.2,competitor,target,1,4.023
9,150,perceptual,0.1,0.05,competitor,decoy,0,4.1
9,151,perceptual,0.03,0.05,competitor,target,1,8.078
9,152,numeric,0.1,0.2,competitor,target,1,2.594
9,153,perceptual,0.03,0.2,competitor,target,1,2.791
9,154,numeric,0.03,0.2,competitor,target,1,4.382
9,155,numeric,0.03,0.05,competitor,competitor,0,2.79
9,156,perceptual,0.03,0.05,target,target,1,3.35
9,157,numeric,0.03,0.05,target,target,1,18.202
9,158,numeric,0.03,0.05,target,target,1,5.632
9,159,perceptual,0.1,0.2,target,target,1,4.188
9,160,numeric,0.1,0.05,competitor,competitor,0,4.67
9,161,numeric,0.03,0.2,target,target,1,4.215
9,162,numeric,0.1,0.2,target,target,1,4.483
9,163,numeric,0.03,0.2,competitor,decoy,0,3.562
9,164,numeric,0.1,0.2,target,target,1,3.777
9,165,perceptual,0.03,0.2,target,competitor,0,2.935
9,166,numeric,0.03,0.05,target,decoy,0,6.628
9,167,perceptual,0.1,0.2,target,competitor,0,5.149
9,168,perceptual,0.1,0.2,target,competitor,0,4.063
9,169,perceptual,0.03,0.05,competitor,competitor,0,4.301
9,170,perceptual,0.1,0.05,competitor,target,1,3.366
9,171,numeric,0.1,0.05,competitor,competitor,0,4.38
9,172,perceptual,0.03,0.05,target,target,1,4.281
9,173,numeric,0.03,0.05,target,target,1,8.226
9,174,numeric,0.03,0.2,competitor,competitor,0,7.049
9,175,perceptual,0.1,0.05,target,target,1,4.035
9,176,numeric,0.03,0.2,competitor,target,1,7.469
9,177,perceptual,0.03,0.05,target,decoy,0,3.166
9,178,numeric,0.03,0.2,target,target,1,5.916
9,179,perceptual,0.1,0.2,competitor,competitor,0,4.065
9,180,perceptual,0.1,0.2,competitor,target,1,5.455
9,181,numeric,0.1,0.05,competitor,target,1,10.652
9,182,perceptual,0.1,0.2,target,decoy,0,3.687
9,183,perceptual,0.1,0.2,target,competitor,0,4.239
9,184,perceptual,0.1,0.05,competitor,competitor,0,4.33
9,185,numeric,0.1,0.2,competitor,target,1,5.965
9,186,perceptual,0.1,0.05,target,decoy,0,4.604
9,187,perceptual,0.1,0.2,target,decoy,0,2.778
9,188,numeric,0.1,0.2,target,target,1,5.249
9,189,perceptual,0.1,0.2,target,competitor,0,3.579
9,190,perceptual,0.03,0.2,target,decoy,0,2.233
9,191,numeric,0.03,0.2,target,target,1,3.536
9,192,perceptual,0.03,0.05,target,competitor,0,4.902
10,1,perceptual,0.03,0.2,competitor,competitor,0,18.751
10,2,perceptual,0.1,0.05,target,decoy,0,6.367
10,3,perceptual,0.1,0.05,competitor,target,1,9.231
10,4,numeric,0.1,0.2,competitor,competitor,0,18.072
10,5,numeric,0.03,0.2,target,decoy,0,9.397
10,6,perceptual,0.03,0.05,target,competitor,0,4.925
10,7,numeric,0.1,0.2,competitor,competitor,0,12.02
10,8,perceptual,0.03,0.05,competitor,decoy,0,5.283
10,9,numeric,0.1,0.05,target,target,1,11.018
10,10,numeric,0.1,0.2,competitor,competitor,0,7.475
10,11,perceptual,0.03,0.2,competitor,target,1,6.256
10,12,numeric,0.1,0.05,target,target,1,16.08
10,13,numeric,0.1,0.2,target,target,1,15.294
10,14,numeric,0.1,0.05,target,target,1,7.306
10,15,numeric,0.1,0.2,competitor,target,1,8.671
10,16,numeric,0.03,0.05,target,competitor,0,9.394
10,17,perceptual,0.1,0.2,competitor,competitor,0,8.249
10,18,perceptual,0.1,0.05,target,target,1,11.11
10,19,perceptual,0.1,0.05,competitor,competitor,0,11.149
10,20,numeric,0.03,0.05,target,competitor,0,11.886
10,21,numeric,0.1,0.2,competitor,decoy,0,12.681
10,22,perceptual,0.03,0.2,target,decoy,0,9.284
10,23,numeric,0.03,0.05,competitor,target,1,16.334
10,24,numeric,0.03,0.2,competitor,target,1,8.017
10,25,numeric,0.1,0.2,target,competitor,0,8.386
10,26,numeric,0.1,0.2,target,target,1,7.803
10,27,perceptual,0.1,0.05,target,competitor,0,4.555
10,28,numeric,0.03,0.2,competitor,target,1,10.148
10,29,numeric,0.1,0.2,target,target,1,9.525
10,30,perceptual,0.03,0.05,target,decoy,0,5.433
10,31,perceptual,0.1,0.05,target,target,1,5.685
10,32,numeric,0.03,0.2,competitor,competitor,0,13.125
10,33,numeric,0.03,0.05,target,target,1,6.512
10,34,numeric,0.03,0.2,target,competitor,0,10.041
10,35,perceptual,0.1,0.2,competitor,competitor,0,11.216
10,36,numeric,0.03,0.2,target,target,1,12.418
10,37,perceptual,0.1,0.05,target,target,1,2.269
10,38,numeric,0.03,0.2,competitor,decoy,0,3.023
10,39,perceptual,0.03,0.2,competitor,target,1,2.87
10,40,numeric,0.03,0.2,target,target,1,8.32
10,41,numeric,0.03,0.05,competitor,target,1,7.568
10,42,perceptual,0.03,0.2,competitor,decoy,0,4.06
10,43,perceptual,0.1,0.05,target,target,1,6.158
10,44,numeric,0.1,0.05,competitor,competitor,0,7.683
10,45,perceptual,0.1,0.2,target,decoy,0,5.32
10,46,perceptual,0.1,0.2,competitor,decoy,0,7.243
10,47,numeric,0.03,0.05,competitor,competitor,0,12.983
10,48,numeric,0.1,0.05,competitor,target,1,8.209
10,49,perceptual,0.1,0.05,target,decoy,0,6.92
10,50,numeric,0.03,0.05,competitor,target,1,5.568
10,51,perceptual,0.1,0.2,competitor,target,1,5.187
10,52,numeric,0.03,0.05,competitor,target,1,9.937
10,53,perceptual,0.03,0.05,target,target,1,4.905
10,54,numeric,0.1,0.05,target,target,1,12.537
10,55,numeric,0.1,0.2,target,target,1,9.936
10,56,numeric,0.03,0.2,target,target,1,9.334
10,57,perceptual,0.1,0.2,competitor,target,1,8.539
10,58,numeric,0.1,0.2,competitor,target,1,10.964
10,59,numeric,0.03,0.2,competitor,target,1,12.288
10,60,perceptual,0.1,0.2,competitor,target,1,4.21
10,61,perceptual,0.03,0.05,target,decoy,0,9.496
10,62,numeric,0.1,0.05,competitor,target,1,13.751
10,63,perceptual,0.1,0.05,competitor,target,1,3.242
10,64,numeric,0.1,0.2,competitor,target,1,10.519
10,65,numeric,0.1,0.2,target,decoy,0,9.785
10,66,numeric,0.03,0.05,target,target,1,15.29
10,67,numeric,0.03,0.05,target,competitor,0,7.488
10,68,perceptual,0.03,0.2,target,decoy,0,6.449
10,69,numeric,0.03,0.05,competitor,competitor,0,15.865
10,70,perceptual,0.1,0.2,target,target,1,9.644
10,71,numeric,0.03,0.05,competitor,competitor,0,15.377
10,72,numeric,0.03,0.2,competitor,target,1,10.054
10,73,perceptual,0.1,0.2,target,target,1,4.712
10,74,numeric,0.03,0.05,target,target,1,19.829
10,75,perceptual,0.03,0.05,competitor,target,1,4.651
10,76,perceptual,0.03,0.2,competitor,target,1,8.026
10,77,perceptual,0.1,0.05,target,target,1,3.621
10,78,perceptual,0.03,0.2,target,target,1,7.45
10,79,perceptual,0.03,0.2,competitor,decoy,0,4.269
10,80,numeric,0.1,0.2,target,target,1,9.201
10,81,perceptual,0.03,0.05,competitor,target,1,6.148
10,82,perceptual,0.1,0.2,competitor,target,1,5.712
10,83,perceptual,0.1,0.2,competitor,target,1,4.51
10,84,numeric,0.1,0.2,target,target,1,7.262
10,85,perceptual,0.1,0.2,target,decoy,0,3.208
10,86,perceptual,0.1,0.2,target,competitor,0,3.466
10,87,perceptual,0.03,0.05,competitor,target,1,2.793
10,88,numeric,0.1,0.05,target,target,1,6.493
10,89,perceptual,0.1,0.2,competitor,target,1,2.835
10,90,perceptual,0.03,0.2,target,competitor,0,4.571
10,91,perceptual,0.03,0.2,target,decoy,0,4.668
10,92,perceptual,0.1,0.05,competitor,competitor,0,5.588
10,93,perceptual,0.03,0.2,target,target,1,2.755
10,94,numeric,0.1,0.05,target,target,1,5.415
10,95,numeric,0.1,0.05,target,target,1,8.836
10,96,numeric,0.1,0.05,competitor,target,1,9.386
10,97,perceptual,0.03,0.05,target,competitor,0,3.264
10,98,numeric,0.1,0.05,target,target,1,10.951
10,99,perceptual,0.1,0.05,target,decoy,0,4.468
10,100,perceptual,0.1,0.05,target,competitor,0,3.962
10,101,perceptual,0.1,0.05,competitor,decoy,0,5.737
10,102,perceptual,0.03,0.05,target,competitor,0,2.826
10,103,numeric,0.03,0.05,target,target,1,14.183
10,104,numeric,0.03,0.2,competitor,competitor,0,5.916
10,105,perceptual,0.03,0.2,competitor,competitor,0,2.755
10,106,perceptual,0.03,0.2,competitor,decoy,0,2.565
10,107,perceptual,0.03,0.05,target,competitor,0,3.204
10,108,numeric,0.03,0.2,target,competitor,0,8.233
10,109,perceptual,0.1,0.2,target,competitor,0,3.542
10,110,numeric,0.1,0.2,target,target,1,12.55
10,111,perceptual,0.03,0.2,target,target,1,12.565
10,112,numeric,0.1,0.05,competitor,competitor,0,12.658
10,113,numeric,0.03,0.05,competitor,competitor,0,11.588
10,114,numeric,0.03,0.2,competitor,target,1,10.006
10,115,numeric,0.1,0.2,competitor,target,1,6.565
10,116,numeric,0.03,0.05,competitor,competitor,0,6.435
10,117,numeric,0.03,0.2,target,target,1,6.181
10,118,numeric,0.1,0.2,target,target,1,9.166
10,119,perceptual,0.03,0.2,target,competitor,0,3.856
10,120,numeric,0.03,0.05,competitor,target,1,15.816
10,121,numeric,0.03,0.05,competitor,target,1,3.057
10,122,perceptual,0.1,0.05,competitor,competitor,0,6.099
10,123,perceptual,0.03,0.05,target,competitor,0,2.857
10,124,perceptual,0.03,0.2,competitor,competitor,0,2.686
10,125,numeric,0.03,0.2,target,competitor,0,5.717
10,126,perceptual,0.1,0.05,competitor,target,1,2.685
10,127,numeric,0.1,0.05,competitor,target,1,8.13
10,128,numeric,0.1,0.05,target,target,1,6.103
10,129,perceptual,0.03,0.2,target,competitor,0,4.164
10,130,numeric,0.1,0.05,competitor,target,1,6.619
10,131,perceptual,0.03,0.05,target,target,1,5.486
10,132,perceptual,0.1,0.2,target,decoy,0,5.291
10,133,perceptual,0.03,0.2,target,decoy,0,6.22
10,134,perceptual,0.1,0.05,competitor,decoy,0,2.887
10,135,numeric,0.03,0.2,competitor,target,1,3.737
10,136,perceptual,0.1,0.05,competitor,competitor,0,2.808
10,137,perceptual,0.1,0.2,competitor,decoy,0,2.543
10,138,numeric,0.1,0.05,competitor,target,1,5.179
10,139,numeric,0.03,0.2,target,target,1,7.621
10,140,numeric,0.1,0.05,competitor,target,1,6.287
10,141,perceptual,0.03,0.05,target,target,1,3.386
10,142,numeric,0.1,0.05,competitor,competitor,0,7
10,143,perceptual,0.1,0.2,target,competitor,0,4.99
10,144,perceptual,0.03,0.2,target,target,1,7.352
10,145,perceptual,0.03,0.05,competitor,target,1,5.194
10,147,perceptual,0.1,0.2,competitor,competitor,0,14.271
10,148,perceptual,0.1,0.05,competitor,target,1,5.769
10,149,perceptual,0.03,0.2,target,competitor,0,3.219
10,150,perceptual,0.1,0.05,target,decoy,0,3.708
10,151,numeric,0.1,0.2,competitor,decoy,0,4.149
10,152,perceptual,0.03,0.05,target,competitor,0,3.464
10,153,perceptual,0.1,0.05,competitor,target,1,2.396
10,154,numeric,0.03,0.05,competitor,target,1,7.006
10,155,numeric,0.03,0.05,target,competitor,0,4.356
10,156,perceptual,0.1,0.05,target,competitor,0,2.947
10,157,numeric,0.03,0.05,target,competitor,0,3.286
10,158,numeric,0.03,0.2,target,competitor,0,3.745
10,159,numeric,0.1,0.05,competitor,target,1,4.13
10,160,perceptual,0.1,0.2,target,competitor,0,2.758
10,161,perceptual,0.1,0.2,target,decoy,0,5.402
10,162,perceptual,0.03,0.05,competitor,target,1,3.214
10,163,perceptual,0.03,0.2,competitor,target,1,4.931
10,164,perceptual,0.1,0.05,competitor,target,1,4.173
10,165,numeric,0.03,0.2,target,target,1,7.023
10,166,numeric,0.1,0.2,competitor,target,1,8.993
10,167,perceptual,0.03,0.05,competitor,target,1,4
10,168,perceptual,0.03,0.2,competitor,target,1,3.009
10,169,numeric,0.03,0.05,target,target,1,5.317
10,170,numeric,0.1,0.05,target,target,1,6.243
10,171,numeric,0.1,0.2,competitor,target,1,5.339
10,172,numeric,0.03,0.2,competitor,target,1,8.736
10,173,perceptual,0.03,0.05,competitor,competitor,0,2.865
10,174,numeric,0.03,0.05,target,target,1,6.713
10,175,numeric,0.1,0.05,competitor,competitor,0,8.658
10,176,perceptual,0.1,0.2,competitor,decoy,0,3.359
10,177,numeric,0.1,0.05,target,decoy,0,7.701
10,178,perceptual,0.03,0.05,competitor,competitor,0,2.238
10,179,numeric,0.1,0.05,target,target,1,9.365
10,180,numeric,0.03,0.05,target,target,1,6.199
10,181,perceptual,0.1,0.2,target,target,1,2.731
10,182,numeric,0.1,0.2,target,target,1,5.206
10,183,numeric,0.1,0.2,target,target,1,8.935
10,184,perceptual,0.03,0.05,competitor,target,1,3.736
10,185,perceptual,0.03,0.2,competitor,target,1,4.534
10,186,numeric,0.03,0.2,target,target,1,4.178
10,187,perceptual,0.03,0.05,target,competitor,0,4.917
10,188,perceptual,0.03,0.05,competitor,decoy,0,5.181
10,189,perceptual,0.1,0.2,target,target,1,4.005
10,190,numeric,0.1,0.2,competitor,target,1,8.136
10,191,numeric,0.03,0.2,competitor,competitor,0,8.123
10,192,numeric,0.03,0.2,competitor,target,1,7.481
11,1,numeric,0.03,0.2,target,target,1,10.965
11,2,perceptual,0.1,0.2,competitor,target,1,8.971
11,3,numeric,0.1,0.05,target,target,1,13.252
11,4,numeric,0.03,0.2,competitor,target,1,9.765
11,5,perceptual,0.03,0.2,competitor,competitor,0,10.256
11,6,numeric,0.1,0.05,competitor,competitor,0,8.271
11,7,numeric,0.1,0.05,competitor,target,1,7.454
11,8,perceptual,0.1,0.2,competitor,target,1,11.149
11,9,numeric,0.1,0.05,competitor,target,1,12.038
11,10,perceptual,0.03,0.05,target,target,1,7.186
11,11,perceptual,0.1,0.2,target,target,1,4.613
11,12,numeric,0.1,0.2,competitor,competitor,0,16.442
11,13,numeric,0.03,0.2,target,target,1,12.275
11,14,perceptual,0.03,0.05,target,competitor,0,12.111
11,15,numeric,0.1,0.2,target,target,1,12.085
11,16,numeric,0.1,0.05,target,decoy,0,6.387
11,17,perceptual,0.1,0.05,target,target,1,10.581
11,18,numeric,0.03,0.2,competitor,competitor,0,12.783
11,19,perceptual,0.03,0.2,competitor,decoy,0,12.146
11,20,numeric,0.1,0.05,competitor,target,1,7.13
11,21,numeric,0.1,0.2,competitor,target,1,10.137
11,22,numeric,0.03,0.2,competitor,competitor,0,14.783
11,23,perceptual,0.1,0.2,target,target,1,4.876
11,24,perceptual,0.03,0.05,target,competitor,0,5.776
11,25,perceptual,0.03,0.05,competitor,competitor,0,7.112
11,26,perceptual,0.03,0.2,target,target,1,8.65
11,27,numeric,0.1,0.05,competitor,competitor,0,13.785
11,28,perceptual,0.1,0.2,target,target,1,5.298
11,29,perceptual,0.03,0.05,target,decoy,0,14.091
11,30,perceptual,0.03,0.05,target,target,1,6.063
11,31,numeric,0.03,0.05,target,target,1,8.227
11,32,perceptual,0.03,0.05,target,target,1,7.758
11,33,numeric,0.1,0.2,competitor,target,1,14.233
11,34,perceptual,0.1,0.2,target,target,1,6.419
11,35,perceptual,0.1,0.2,competitor,target,1,14.23
11,36,numeric,0.03,0.05,competitor,competitor,0,12.578
11,37,numeric,0.1,0.05,competitor,target,1,14.667
11,38,perceptual,0.1,0.05,competitor,competitor,0,7.5
11,39,perceptual,0.1,0.2,target,target,1,13.504
11,40,perceptual,0.03,0.2,competitor,competitor,0,11.125
11,41,perceptual,0.1,0.2,target,target,1,13.476
11,42,perceptual,0.03,0.05,competitor,target,1,14.069
11,43,perceptual,0.03,0.2,competitor,target,1,9.42
11,44,perceptual,0.1,0.05,target,competitor,0,14.904
11,45,perceptual,0.1,0.05,target,target,1,16.282
11,46,perceptual,0.1,0.05,competitor,target,1,11.407
11,47,perceptual,0.03,0.05,competitor,target,1,14.44
11,48,perceptual,0.03,0.2,competitor,competitor,0,10.581
11,49,perceptual,0.1,0.2,target,target,1,5.73
11,50,numeric,0.1,0.05,target,target,1,8.191
11,51,numeric,0.03,0.05,competitor,competitor,0,8.854
11,52,numeric,0.03,0.05,target,target,1,11.298
11,54,perceptual,0.03,0.05,target,target,1,6.265
11,55,perceptual,0.03,0.2,competitor,target,1,7.453
11,56,numeric,0.03,0.2,target,target,1,4.544
11,57,numeric,0.03,0.05,target,target,1,8.816
11,58,numeric,0.1,0.05,target,target,1,5.316
11,59,numeric,0.03,0.05,target,target,1,6.903
11,60,perceptual,0.03,0.2,competitor,competitor,0,6.034
11,61,numeric,0.03,0.05,competitor,competitor,0,6.623
11,62,numeric,0.1,0.05,target,target,1,11.322
11,63,perceptual,0.03,0.05,target,target,1,8.424
11,64,perceptual,0.03,0.05,competitor,competitor,0,19.559
11,65,numeric,0.1,0.05,target,target,1,6.702
11,66,perceptual,0.1,0.05,target,target,1,5.319
11,67,perceptual,0.1,0.2,competitor,competitor,0,6.521
11,68,perceptual,0.1,0.05,target,target,1,9.292
11,69,numeric,0.1,0.2,competitor,target,1,10.172
11,70,perceptual,0.1,0.05,target,decoy,0,8.494
11,71,perceptual,0.1,0.05,competitor,target,1,6.805
11,72,numeric,0.03,0.2,competitor,target,1,8.375
11,73,perceptual,0.1,0.2,target,competitor,0,15.09
11,74,perceptual,0.03,0.05,competitor,target,1,9.836
11,75,perceptual,0.03,0.05,competitor,decoy,0,5.654
11,76,numeric,0.1,0.2,target,target,1,5.76
11,77,perceptual,0.1,0.2,competitor,target,1,11.818
11,78,perceptual,0.03,0.2,competitor,competitor,0,5.538
11,79,numeric,0.1,0.05,target,target,1,8.315
11,80,perceptual,0.1,0.2,competitor,target,1,5.76
11,81,numeric,0.1,0.2,target,target,1,6.779
11,82,numeric,0.1,0.2,target,target,1,8.741
11,83,perceptual,0.03,0.05,competitor,decoy,0,16.136
11,84,perceptual,0.03,0.2,target,target,1,7.807
11,85,perceptual,0.03,0.2,target,target,1,11.503
11,86,numeric,0.1,0.05,competitor,target,1,11.493
11,87,numeric,0.03,0.2,target,target,1,6.108
11,88,numeric,0.03,0.2,target,competitor,0,5.81
11,89,perceptual,0.1,0.2,competitor,competitor,0,7.293
11,90,numeric,0.1,0.05,competitor,target,1,9.624
11,91,perceptual,0.03,0.2,target,target,1,3.735
11,92,numeric,0.03,0.2,competitor,competitor,0,13.843
11,93,numeric,0.03,0.2,target,target,1,6.393
11,94,perceptual,0.03,0.2,target,target,1,5.885
11,95,perceptual,0.1,0.2,target,target,1,13.522
11,96,numeric,0.1,0.05,target,target,1,10.726
11,97,perceptual,0.1,0.2,target,competitor,0,19.08
11,98,numeric,0.03,0.2,competitor,target,1,5.141
11,99,numeric,0.1,0.2,target,target,1,18.341
11,100,numeric,0.03,0.05,competitor,target,1,5.576
11,101,numeric,0.1,0.05,competitor,target,1,7.157
11,102,perceptual,0.03,0.05,target,target,1,7.766
11,103,numeric,0.1,0.05,target,target,1,8.352
11,104,numeric,0.03,0.05,target,target,1,9.185
11,105,numeric,0.03,0.2,target,target,1,7.62
11,106,numeric,0.1,0.2,competitor,competitor,0,6.298
11,107,numeric,0.1,0.2,target,target,1,6.444
11,108,perceptual,0.1,0.2,competitor,target,1,5.32
11,109,numeric,0.03,0.05,competitor,competitor,0,6.15
11,110,numeric,0.03,0.05,competitor,target,1,10.644
11,111,numeric,0.1,0.05,competitor,competitor,0,10.143
11,112,perceptual,0.1,0.05,target,target,1,5.597
11,113,numeric,0.03,0.05,target,target,1,13.829
11,114,perceptual,0.1,0.05,competitor,competitor,0,7.154
11,115,perceptual,0.1,0.05,target,target,1,9.107
11,116,numeric,0.03,0.05,target,target,1,5.357
11,117,perceptual,0.03,0.05,competitor,competitor,0,8.552
11,118,numeric,0.03,0.2,competitor,competitor,0,3.673
11,119,numeric,0.1,0.2,competitor,competitor,0,6.59
11,120,numeric,0.1,0.2,target,target,1,9.065
11,121,perceptual,0.1,0.05,target,target,1,6.591
11,122,numeric,0.03,0.2,competitor,target,1,9.79
11,123,numeric,0.03,0.2,target,target,1,8.651
11,124,perceptual,0.1,0.05,competitor,target,1,7.938
11,125,numeric,0.03,0.05,competitor,competitor,0,10.746
11,126,perceptual,0.03,0.05,competitor,target,1,12.032
11,127,numeric,0.1,0.2,target,target,1,5.095
11,128,perceptual,0.03,0.05,target,target,1,8.736
