participant,trial_counter,condition,target_to_competitor,decoy_reduction,decoy_on,chosen_item,correct,rt
1,1,perceptual,0.1,0.2,competitor,target,1,14.929
1,2,perceptual,0.1,0.2,competitor,target,1,5.865
1,3,numeric,0.03,0.2,competitor,competitor,0,8.603
1,4,perceptual,0.03,0.2,target,competitor,0,5.925
1,5,numeric,0.1,0.2,competitor,target,1,7.203
1,6,numeric,0.1,0.05,competitor,target,1,9.843
1,7,numeric,0.1,0.2,target,target,1,8.731
1,8,perceptual,0.03,0.2,target,target,1,3.779
1,9,numeric,0.03,0.2,target,target,1,5.818
1,10,numeric,0.1,0.2,competitor,competitor,0,6.778
1,11,perceptual,0.03,0.2,competitor,target,1,3.94
1,12,perceptual,0.03,0.2,competitor,decoy,0,2.865
1,13,numeric,0.1,0.2,target,target,1,7.301
1,14,numeric,0.03,0.05,target,target,1,8.202
1,15,perceptual,0.1,0.2,competitor,target,1,4.119
1,16,perceptual,0.03,0.2,target,target,1,4.851
1,17,perceptual,0.1,0.2,competitor,target,1,3.563
1,18,perceptual,0.1,0.05,competitor,target,1,4.707
1,19,perceptual,0.03,0.05,competitor,target,1,9.437
1,20,perceptual,0.03,0.05,competitor,target,1,6.45
1,21,numeric,0.03,0.2,competitor,competitor,0,13.587
1,22,perceptual,0.1,0.05,target,target,1,5.699
1,23,perceptual,0.1,0.05,competitor,target,1,3.211
1,24,numeric,0.03,0.05,target,target,1,6.074
1,25,numeric,0.1,0.05,competitor,decoy,0,13.847
1,26,perceptual,0.03,0.05,competitor,target,1,4.242
1,27,perceptual,0.1,0.05,target,target,1,3.926
1,28,perceptual,0.1,0.05,competitor,target,1,2.368
1,29,numeric,0.03,0.05,target,target,1,9.313
1,30,numeric,0.03,0.2,target,competitor,0,6.998
1,31,perceptual,0.03,0.05,competitor,competitor,0,4.833
1,32,perceptual,0.03,0.2,competitor,target,1,3.255
1,33,numeric,0.03,0.05,competitor,competitor,0,8.43
1,34,numeric,0.03,0.2,target,target,1,8.737
1,35,numeric,0.03,0.2,target,target,1,6.833
1,36,numeric,0.1,0.05,target,target,1,11.871
1,37,perceptual,0.1,0.2,competitor,target,1,4.169
1,38,perceptual,0.03,0.2,target,target,1,4.14
1,39,numeric,0.1,0.2,competitor,competitor,0,9.061
1,40,perceptual,0.1,0.2,target,competitor,0,3.353
1,41,perceptual,0.1,0.2,competitor,target,1,2.963
1,42,perceptual,0.1,0.05,target,target,1,4.563
1,43,numeric,0.1,0.05,target,target,1,12.943
1,44,numeric,0.1,0.05,target,target,1,5.166
1,45,numeric,0.1,0.05,competitor,competitor,0,13.268
1,46,numeric,0.03,0.05,target,target,1,7.287
1,47,numeric,0.03,0.2,competitor,competitor,0,12.201
1,48,perceptual,0.1,0.2,target,target,1,2.195
1,49,perceptual,0.1,0.05,target,target,1,4.457
1,50,perceptual,0.03,0.05,target,target,1,5.754
1,51,numeric,0.1,0.05,target,target,1,4.718
1,52,perceptual,0.03,0.05,competitor,decoy,0,2.767
1,53,perceptual,0.1,0.05,target,target,1,3.977
1,54,perceptual,0.03,0.2,competitor,competitor,0,4.885
1,55,perceptual,0.1,0.2,competitor,target,1,3.579
1,56,numeric,0.03,0.05,competitor,competitor,0,5.591
1,57,numeric,0.1,0.2,competitor,target,1,8.127
1,58,numeric,0.03,0.05,competitor,competitor,0,6.037
1,59,numeric,0.03,0.2,target,competitor,0,5.467
1,60,perceptual,0.03,0.2,target,competitor,0,3.158
1,61,perceptual,0.1,0.2,competitor,target,1,2.665
1,62,numeric,0.1,0.05,competitor,competitor,0,11.677
1,63,numeric,0.03,0.05,competitor,target,1,4.845
1,64,perceptual,0.03,0.2,target,target,1,4.236
1,65,numeric,0.03,0.05,competitor,competitor,0,4.438
1,66,numeric,0.1,0.05,competitor,target,1,5.007
1,67,numeric,0.1,0.2,competitor,competitor,0,8.478
1,68,perceptual,0.03,0.2,target,competitor,0,4.238
1,69,numeric,0.03,0.05,target,target,1,8.127
1,70,numeric,0.1,0.2,target,target,1,8.918
1,71,numeric,0.1,0.2,competitor,target,1,8.128
1,72,numeric,0.03,0.05,target,target,1,7.963
1,73,perceptual,0.1,0.2,target,competitor,0,8.294
1,74,perceptual,0.03,0.05,target,competitor,0,4.777
1,75,numeric,0.1,0.05,target,target,1,7.106
1,76,numeric,0.1,0.05,competitor,competitor,0,10.181
1,77,numeric,0.03,0.05,competitor,competitor,0,17.927
1,78,perceptual,0.03,0.2,target,target,1,5.983
1,79,perceptual,0.03,0.2,competitor,competitor,0,2.683
1,80,numeric,0.03,0.2,competitor,competitor,0,7.067
1,81,perceptual,0.1,0.2,target,target,1,2.866
1,82,perceptual,0.03,0.05,target,target,1,2.972
1,83,perceptual,0.1,0.2,target,competitor,0,3.694
1,84,perceptual,0.1,0.05,competitor,target,1,4.829
1,85,numeric,0.03,0.05,target,target,1,7.036
1,86,numeric,0.1,0.2,target,competitor,0,9.625
1,87,numeric,0.1,0.05,competitor,competitor,0,9.2
1,88,perceptual,0.1,0.05,competitor,target,1,2.735
1,89,numeric,0.03,0.2,target,competitor,0,6.893
1,90,perceptual,0.1,0.05,competitor,target,1,2.823
1,91,numeric,0.03,0.2,target,target,1,5.414
1,92,numeric,0.1,0.05,competitor,target,1,10.246
1,93,perceptual,0.1,0.05,target,competitor,0,7.659
1,94,numeric,0.1,0.05,competitor,competitor,0,16.317
1,95,perceptual,0.03,0.2,competitor,target,1,2.498
1,96,numeric,0.1,0.2,competitor,target,1,2.748
1,97,numeric,0.03,0.05,target,target,1,3.376
1,98,perceptual,0.1,0.2,target,target,1,2.292
1,99,perceptual,0.03,0.2,competitor,target,1,3.659
1,100,numeric,0.1,0.05,competitor,competitor,0,9.79
1,101,perceptual,0.1,0.05,competitor,competitor,0,3.178
1,102,numeric,0.1,0.05,competitor,competitor,0,7.89
1,103,perceptual,0.1,0.05,competitor,target,1,3.119
1,104,numeric,0.03,0.2,target,target,1,5.815
1,105,perceptual,0.03,0.05,competitor,target,1,3.21
1,106,perceptual,0.03,0.05,target,target,1,4.799
1,107,numeric,0.03,0.05,competitor,target,1,8.621
1,108,perceptual,0.03,0.2,target,target,1,4.068
1,109,numeric,0.1,0.05,target,target,1,6.312
1,110,numeric,0.03,0.2,competitor,target,1,10.608
1,111,perceptual,0.1,0.2,target,target,1,11.318
1,112,numeric,0.1,0.2,target,target,1,6.357
1,113,numeric,0.1,0.05,target,target,1,7.928
1,114,numeric,0.1,0.05,competitor,target,1,9.211
1,115,numeric,0.03,0.2,competitor,competitor,0,10.109
1,116,numeric,0.03,0.2,competitor,competitor,0,9.913
1,117,perceptual,0.1,0.05,target,target,1,3.756
1,118,numeric,0.1,0.2,target,target,1,7.987
1,119,numeric,0.03,0.05,competitor,competitor,0,11.391
1,120,perceptual,0.03,0.05,competitor,target,1,3.788
1,121,numeric,0.03,0.2,competitor,competitor,0,6.783
1,122,perceptual,0.03,0.2,competitor,competitor,0,2.484
1,123,numeric,0.1,0.05,target,target,1,9.547
1,124,numeric,0.03,0.05,target,target,1,9.617
1,125,perceptual,0.1,0.05,target,decoy,0,5.437
1,126,perceptual,0.03,0.05,target,target,1,4.471
1,127,numeric,0.1,0.2,competitor,target,1,8.485
1,128,perceptual,0.03,0.05,target,competitor,0,4.922
1,129,numeric,0.03,0.2,target,target,1,10.073
1,130,numeric,0.1,0.05,target,decoy,0,11.467
1,131,numeric,0.03,0.2,competitor,competitor,0,9.188
1,132,perceptual,0.03,0.05,target,competitor,0,3.395
1,133,perceptual,0.03,0.05,competitor,target,1,9.271
1,134,perceptual,0.1,0.05,target,target,1,7.219
1,135,perceptual,0.1,0.2,target,competitor,0,3.731
1,136,perceptual,0.1,0.2,competitor,target,1,4.432
1,137,numeric,0.03,0.05,competitor,competitor,0,7.141
1,138,numeric,0.03,0.05,target,target,1,8.536
1,139,numeric,0.03,0.05,competitor,target,1,7.388
1,140,numeric,0.1,0.2,competitor,competitor,0,16.663
1,141,perceptual,0.03,0.05,competitor,target,1,3.954
1,142,perceptual,0.1,0.05,competitor,target,1,4.465
1,143,numeric,0.1,0.2,target,target,1,7.844
1,144,perceptual,0.1,0.2,target,competitor,0,3.417
1,145,numeric,0.1,0.05,target,target,1,6.861
1,146,numeric,0.03,0.05,competitor,competitor,0,5.074
1,147,perceptual,0.03,0.2,competitor,target,1,2.567
1,148,numeric,0.03,0.2,target,competitor,0,3.882
1,149,perceptual,0.03,0.05,competitor,competitor,0,2.935
1,150,perceptual,0.03,0.05,target,competitor,0,4.379
1,151,perceptual,0.1,0.05,competitor,target,1,3.106
1,152,perceptual,0.03,0.05,target,target,1,2.191
1,153,numeric,0.03,0.05,competitor,competitor,0,11.502
1,154,perceptual,0.1,0.05,target,target,1,4.88
1,155,numeric,0.03,0.2,competitor,competitor,0,10.654
1,156,numeric,0.1,0.2,competitor,competitor,0,8.094
1,157,numeric,0.1,0.2,target,target,1,5.792
1,158,perceptual,0.03,0.2,competitor,competitor,0,3.266
1,159,perceptual,0.1,0.05,competitor,decoy,0,2.992
1,160,numeric,0.1,0.2,competitor,target,1,9.365
1,161,numeric,0.03,0.2,competitor,competitor,0,7.781
1,162,perceptual,0.1,0.05,target,target,1,3.709
1,163,perceptual,0.1,0.05,target,target,1,3.744
1,164,perceptual,0.1,0.2,target,target,1,4.177
1,165,numeric,0.1,0.2,competitor,competitor,0,10.313
1,166,perceptual,0.1,0.2,target,competitor,0,3.016
1,167,perceptual,0.03,0.05,competitor,target,1,5.031
1,168,numeric,0.1,0.2,target,target,1,7.803
1,169,numeric,0.03,0.2,target,target,1,6.772
1,170,perceptual,0.03,0.05,competitor,competitor,0,4.666
1,171,perceptual,0.1,0.2,competitor,target,1,4.229
1,172,perceptual,0.1,0.2,competitor,target,1,4.581
1,173,perceptual,0.1,0.2,target,target,1,4.192
1,174,numeric,0.03,0.2,target,target,1,5.848
1,175,perceptual,0.03,0.05,target,target,1,5.41
1,176,numeric,0.1,0.05,target,target,1,7.095
1,177,numeric,0.1,0.2,target,competitor,0,6.185
1,178,numeric,0.1,0.2,target,target,1,9.569
1,179,perceptual,0.03,0.2,target,target,1,4.451
1,180,numeric,0.03,0.2,competitor,competitor,0,4.717
1,181,numeric,0.1,0.05,target,target,1,8.224
1,182,perceptual,0.03,0.05,target,decoy,0,2.786
1,183,perceptual,0.03,0.2,competitor,competitor,0,2.831
1,184,perceptual,0.03,0.05,target,competitor,0,6.297
1,185,numeric,0.03,0.05,target,competitor,0,3.541
1,186,perceptual,0.03,0.2,competitor,target,1,2.469
1,187,perceptual,0.03,0.2,target,competitor,0,3.418
1,188,perceptual,0.1,0.05,competitor,target,1,4.397
1,189,perceptual,0.1,0.2,competitor,target,1,4.318
1,190,numeric,0.1,0.2,target,target,1,8.495
1,191,numeric,0.03,0.05,target,target,1,16.107
1,192,perceptual,0.03,0.2,target,target,1,4.246
2,1,perceptual,0.1,0.05,target,target,1,13.566
2,2,perceptual,0.1,0.05,competitor,target,1,19.867
2,4,perceptual,0.03,0.05,target,decoy,0,15.583
2,5,perceptual,0.1,0.2,target,competitor,0,16.079
2,7,perceptual,0.03,0.2,competitor,decoy,0,0.597
2,8,perceptual,0.1,0.2,target,target,1,8.722
2,9,perceptual,0.03,0.05,competitor,competitor,0,6.138
2,10,numeric,0.1,0.05,target,target,1,11.05
2,11,perceptual,0.1,0.05,competitor,target,1,7.033
2,12,perceptual,0.03,0.2,competitor,target,1,5.319
2,13,numeric,0.1,0.05,target,target,1,19.383
2,14,numeric,0.1,0.2,target,target,1,9.381
2,15,numeric,0.03,0.2,target,target,1,6.785
2,16,perceptual,0.1,0.05,target,target,1,14.463
2,17,numeric,0.03,0.2,competitor,competitor,0,19.65
2,18,numeric,0.03,0.2,competitor,target,1,15.855
2,19,numeric,0.1,0.2,competitor,target,1,14.9
2,20,numeric,0.1,0.05,target,target,1,16.702
2,21,numeric,0.1,0.2,competitor,competitor,0,15.745
2,22,numeric,0.1,0.05,target,target,1,9.904
2,23,perceptual,0.1,0.05,target,target,1,14.638
2,24,numeric,0.1,0.2,target,target,1,14.864
2,25,perceptual,0.1,0.05,competitor,target,1,9.866
2,26,numeric,0.03,0.2,competitor,target,1,17.837
2,27,perceptual,0.03,0.2,competitor,competitor,0,15.993
2,28,numeric,0.1,0.05,target,target,1,19
2,29,perceptual,0.1,0.2,target,target,1,11.115
2,30,perceptual,0.03,0.05,target,competitor,0,15.69
2,31,perceptual,0.1,0.05,competitor,target,1,10.929
2,33,perceptual,0.1,0.2,competitor,target,1,9.468
2,34,perceptual,0.03,0.05,target,target,1,11.279
2,35,perceptual,0.1,0.2,competitor,target,1,19.119
2,36,numeric,0.03,0.05,competitor,target,1,17.402
2,37,perceptual,0.1,0.2,target,target,1,8.661
2,38,perceptual,0.03,0.2,competitor,target,1,12.293
2,39,numeric,0.1,0.2,competitor,target,1,13.067
2,40,numeric,0.1,0.2,competitor,target,1,15.557
2,41,perceptual,0.1,0.05,target,target,1,12.693
2,42,perceptual,0.1,0.2,competitor,target,1,8.162
2,43,numeric,0.03,0.05,target,competitor,0,11.088
2,44,perceptual,0.1,0.05,target,decoy,0,10.237
2,45,perceptual,0.03,0.05,target,target,1,10.316
2,46,numeric,0.03,0.05,competitor,competitor,0,18.537
2,47,perceptual,0.03,0.05,target,target,1,10.501
2,48,perceptual,0.03,0.05,target,target,1,15.132
2,49,perceptual,0.03,0.05,competitor,target,1,13.336
2,50,perceptual,0.03,0.05,competitor,target,1,12.526
2,51,numeric,0.1,0.2,competitor,target,1,13.019
2,53,perceptual,0.03,0.2,target,target,1,0.255
2,54,numeric,0.03,0.2,competitor,target,1,0.512
2,55,numeric,0.03,0.2,target,target,1,14.173
2,56,perceptual,0.03,0.05,competitor,target,1,13.732
2,57,perceptual,0.03,0.2,target,target,1,9.43
2,58,perceptual,0.1,0.2,competitor,target,1,12.254
2,59,perceptual,0.1,0.2,target,target,1,14.23
2,60,numeric,0.03,0.05,competitor,competitor,0,17.825
2,61,perceptual,0.03,0.05,competitor,target,1,17.27
2,62,perceptual,0.1,0.2,target,target,1,11.203
2,63,numeric,0.03,0.05,target,target,1,15.34
2,64,numeric,0.1,0.05,target,target,1,12.376
2,65,numeric,0.1,0.05,competitor,target,1,14.58
2,66,perceptual,0.1,0.05,competitor,target,1,15.303
2,67,perceptual,0.03,0.2,target,competitor,0,14.909
2,68,numeric,0.1,0.2,competitor,target,1,12.075
2,69,perceptual,0.03,0.2,target,target,1,17.2
2,71,numeric,0.03,0.2,target,target,1,0.235
2,72,numeric,0.03,0.2,competitor,competitor,0,14.268
2,73,numeric,0.1,0.05,target,target,1,14.726
2,74,numeric,0.1,0.2,target,target,1,13.431
2,75,numeric,0.1,0.2,competitor,target,1,14.86
2,76,perceptual,0.1,0.2,target,target,1,8.789
2,77,numeric,0.03,0.05,competitor,target,1,17.992
2,78,numeric,0.1,0.2,target,competitor,0,16.073
2,79,perceptual,0.03,0.05,target,target,1,7.566
2,80,perceptual,0.03,0.2,competitor,target,1,7.77
2,81,numeric,0.03,0.05,competitor,target,1,16.336
2,82,perceptual,0.03,0.05,target,competitor,0,13.613
2,83,numeric,0.03,0.05,target,competitor,0,19.569
2,84,numeric,0.03,0.2,competitor,target,1,19.135
2,86,numeric,0.1,0.05,competitor,competitor,0,0.246
2,87,numeric,0.03,0.05,target,target,1,15.939
2,88,perceptual,0.03,0.2,target,target,1,8.342
2,89,perceptual,0.1,0.2,target,target,1,11.987
2,90,numeric,0.1,0.05,target,target,1,13.101
2,92,numeric,0.1,0.05,target,decoy,0,0.392
2,93,numeric,0.03,0.2,target,competitor,0,12.983
2,94,perceptual,0.1,0.05,competitor,target,1,7.385
2,95,numeric,0.03,0.2,target,target,1,12.916
2,96,numeric,0.03,0.05,competitor,target,1,9.039
2,97,numeric,0.1,0.05,competitor,target,1,7.233
2,98,perceptual,0.03,0.05,competitor,target,1,10.635
2,99,numeric,0.03,0.2,competitor,competitor,0,12.965
2,100,numeric,0.03,0.05,target,target,1,13.001
2,101,numeric,0.03,0.2,competitor,target,1,10.44
2,102,perceptual,0.1,0.2,competitor,target,1,10.268
2,103,perceptual,0.03,0.05,competitor,target,1,8.361
2,104,numeric,0.03,0.2,competitor,target,1,17.165
2,105,numeric,0.1,0.2,target,target,1,18.365
2,106,numeric,0.03,0.05,target,target,1,12.983
2,107,perceptual,0.03,0.2,target,target,1,12.449
2,108,numeric,0.1,0.05,competitor,target,1,7.491
2,109,perceptual,0.03,0.05,target,target,1,12.857
2,110,perceptual,0.1,0.05,competitor,target,1,14.115
2,111,perceptual,0.03,0.05,target,target,1,17.398
2,112,perceptual,0.03,0.05,competitor,competitor,0,17.343
2,113,perceptual,0.1,0.05,competitor,target,1,16.814
2,114,perceptual,0.03,0.2,target,target,1,10.073
2,116,perceptual,0.03,0.2,target,target,1,0.367
2,117,numeric,0.03,0.2,target,target,1,16.365
2,118,perceptual,0.1,0.2,competitor,target,1,9.568
2,119,perceptual,0.03,0.2,competitor,target,1,15.535
2,120,numeric,0.1,0.2,competitor,target,1,12.548
2,121,perceptual,0.1,0.2,target,competitor,0,15.169
2,122,numeric,0.1,0.2,target,target,1,6.309
2,123,numeric,0.1,0.05,competitor,target,1,13.034
2,124,numeric,0.1,0.2,target,target,1,13.34
2,125,perceptual,0.03,0.2,competitor,target,1,9.49
2,126,perceptual,0.1,0.05,competitor,target,1,10.539
2,127,perceptual,0.1,0.2,competitor,target,1,9.472
2,128,numeric,0.03,0.05,target,target,1,11.698
2,129,perceptual,0.03,0.2,target,competitor,0,6.983
2,130,numeric,0.1,0.2,competitor,target,1,13.68
2,131,numeric,0.1,0.05,competitor,competitor,0,15.71
2,132,numeric,0.03,0.05,competitor,competitor,0,11.496
2,133,numeric,0.1,0.05,target,target,1,18.558
2,134,perceptual,0.03,0.2,competitor,target,1,15.906
2,135,perceptual,0.1,0.05,target,target,1,14.429
2,136,numeric,0.1,0.05,competitor,target,1,15.151
2,137,perceptual,0.03,0.05,target,target,1,17.679
2,138,perceptual,0.03,0.2,target,target,1,18.862
2,140,perceptual,0.03,0.2,target,competitor,0,0.237
2,141,numeric,0.1,0.05,target,target,1,9.085
2,142,numeric,0.1,0.2,target,target,1,13.846
2,143,numeric,0.03,0.2,competitor,target,1,13.629
2,144,numeric,0.03,0.05,target,target,1,9.614
2,145,numeric,0.1,0.05,competitor,target,1,17.396
2,146,numeric,0.1,0.05,competitor,target,1,11.103
2,147,numeric,0.1,0.2,target,target,1,11.714
2,148,perceptual,0.03,0.05,competitor,target,1,18.109
2,149,perceptual,0.1,0.05,competitor,target,1,10.265
2,150,perceptual,0.03,0.05,competitor,target,1,16.219
2,151,perceptual,0.1,0.05,competitor,target,1,17.038
2,152,numeric,0.1,0.2,competitor,target,1,11.374
2,153,perceptual,0.1,0.2,target,target,1,9.918
2,154,perceptual,0.1,0.2,competitor,target,1,10.503
2,155,perceptual,0.1,0.05,target,target,1,10.301
2,156,numeric,0.1,0.2,competitor,competitor,0,14.327
2,157,numeric,0.03,0.05,competitor,target,1,8.582
2,158,perceptual,0.03,0.05,target,competitor,0,15.146
2,159,perceptual,0.1,0.2,target,target,1,8.937
2,160,perceptual,0.03,0.2,competitor,target,1,7.09
2,161,perceptual,0.1,0.05,target,target,1,12.649
2,162,perceptual,0.03,0.2,target,competitor,0,15.203
2,163,numeric,0.03,0.2,target,target,1,9.889
2,164,numeric,0.03,0.05,target,competitor,0,12.455
2,166,perceptual,0.1,0.2,competitor,target,1,10.891
2,168,perceptual,0.1,0.2,competitor,competitor,0,0.212
2,169,numeric,0.03,0.2,target,target,1,10.315
2,170,perceptual,0.1,0.2,target,target,1,8.528
2,171,numeric,0.03,0.05,target,target,1,10.206
2,172,numeric,0.03,0.2,competitor,target,1,9.531
2,173,numeric,0.03,0.05,target,competitor,0,13.901
2,174,numeric,0.1,0.2,target,target,1,15.271
2,175,perceptual,0.1,0.05,target,target,1,10.719
2,176,perceptual,0.1,0.05,target,decoy,0,7.044
2,177,perceptual,0.1,0.05,target,target,1,11.647
2,178,numeric,0.03,0.2,target,target,1,13.846
2,179,numeric,0.03,0.2,target,target,1,10.826
2,180,numeric,0.1,0.05,competitor,target,1,15.53
2,181,numeric,0.1,0.05,target,target,1,8.471
2,182,numeric,0.1,0.2,competitor,target,1,8.471
2,183,numeric,0.03,0.2,target,competitor,0,13.482
2,184,perceptual,0.1,0.2,competitor,target,1,15.253
2,185,perceptual,0.03,0.05,competitor,competitor,0,12.102
2,186,perceptual,0.03,0.05,competitor,decoy,0,0.01
2,187,perceptual,0.03,0.2,competitor,target,1,19.108
2,188,perceptual,0.1,0.05,competitor,target,1,11.618
2,189,perceptual,0.03,0.2,competitor,target,1,12.824
2,190,perceptual,0.1,0.2,competitor,target,1,6.281
2,191,numeric,0.1,0.05,competitor,target,1,10.06
2,192,numeric,0.03,0.05,competitor,target,1,11.756
3,2,perceptual,0.03,0.05,competitor,target,1,0.585
3,3,perceptual,0.03,0.05,competitor,target,1,9.52
3,4,numeric,0.03,0.2,target,target,1,6.574
3,5,numeric,0.03,0.05,competitor,competitor,0,12.838
3,6,perceptual,0.03,0.05,competitor,competitor,0,14.556
3,7,numeric,0.1,0.2,target,target,1,7.152
3,8,numeric,0.03,0.2,competitor,competitor,0,11.908
3,9,numeric,0.1,0.05,competitor,competitor,0,9.841
3,10,numeric,0.1,0.2,competitor,target,1,8.375
3,11,numeric,0.03,0.05,target,target,1,10.293
3,12,numeric,0.03,0.05,target,target,1,14.624
3,13,numeric,0.1,0.2,competitor,target,1,13.509
3,14,numeric,0.1,0.05,competitor,competitor,0,11.74
3,15,perceptual,0.03,0.2,competitor,target,1,8.683
3,16,perceptual,0.1,0.2,competitor,target,1,6.266
3,17,numeric,0.03,0.05,competitor,target,1,7.348
3,18,numeric,0.03,0.05,target,target,1,8.249
3,20,numeric,0.03,0.2,target,competitor,0,13.886
3,21,numeric,0.1,0.05,target,target,1,7.986
3,23,numeric,0.1,0.05,competitor,competitor,0,5.906
3,24,perceptual,0.1,0.2,target,target,1,9.366
3,25,numeric,0.1,0.05,competitor,target,1,10.625
3,26,perceptual,0.1,0.05,competitor,target,1,6.046
3,27,numeric,0.03,0.2,competitor,competitor,0,12.001
3,28,perceptual,0.03,0.2,competitor,target,1,14.664
3,29,perceptual,0.1,0.2,competitor,target,1,7.881
3,30,perceptual,0.03,0.05,target,competitor,0,12.361
3,31,numeric,0.1,0.05,target,target,1,11.581
3,32,numeric,0.03,0.05,competitor,competitor,0,10.685
3,33,numeric,0.03,0.2,target,target,1,9.381
3,34,perceptual,0.03,0.2,target,target,1,9.531
3,35,perceptual,0.03,0.2,target,competitor,0,7.554
3,36,numeric,0.03,0.2,competitor,competitor,0,6.446
3,37,perceptual,0.1,0.2,competitor,target,1,6.61
3,38,perceptual,0.03,0.2,competitor,target,1,17.233
3,39,perceptual,0.03,0.05,competitor,target,1,6.49
3,40,perceptual,0.03,0.05,target,target,1,7.289
3,41,perceptual,0.03,0.05,competitor,target,1,5.669
3,43,numeric,0.03,0.05,target,target,1,13.647
3,44,perceptual,0.03,0.05,target,target,1,5.952
3,45,perceptual,0.03,0.2,target,target,1,4.74
3,46,perceptual,0.1,0.05,competitor,competitor,0,12.978
3,47,numeric,0.03,0.2,competitor,target,1,15.167
3,48,perceptual,0.03,0.05,competitor,decoy,0,6.236
3,49,numeric,0.1,0.05,competitor,competitor,0,8.098
3,50,perceptual,0.1,0.2,target,target,1,6.447
3,51,perceptual,0.03,0.05,competitor,competitor,0,16.607
3,52,numeric,0.03,0.05,target,competitor,0,10.131
3,53,numeric,0.1,0.05,target,target,1,7.749
3,54,perceptual,0.03,0.2,competitor,target,1,18.372
3,55,numeric,0.03,0.2,competitor,target,1,19.864
3,56,perceptual,0.03,0.05,competitor,competitor,0,10.307
3,57,perceptual,0.1,0.2,target,target,1,8.435
3,59,numeric,0.1,0.05,target,competitor,0,12.995
3,60,numeric,0.1,0.2,competitor,target,1,15.845
3,61,numeric,0.1,0.2,target,competitor,0,8.221
3,62,numeric,0.03,0.05,target,competitor,0,9.662
3,63,perceptual,0.03,0.05,competitor,competitor,0,7.407
3,64,numeric,0.03,0.05,competitor,target,1,19.551
3,65,numeric,0.03,0.2,target,target,1,5.573
3,66,perceptual,0.1,0.2,competitor,target,1,5.023
3,67,numeric,0.1,0.05,target,target,1,7.715
3,68,numeric,0.1,0.2,competitor,target,1,6.77
3,69,numeric,0.1,0.05,target,target,1,8.754
3,70,perceptual,0.1,0.2,target,target,1,4.94
3,72,numeric,0.03,0.05,target,target,1,6.015
3,73,numeric,0.1,0.2,target,competitor,0,18.044
3,74,numeric,0.03,0.05,target,target,1,6.293
3,75,numeric,0.03,0.2,competitor,target,1,5.971
3,76,numeric,0.03,0.05,target,target,1,4.514
3,77,numeric,0.1,0.05,target,target,1,13.722
3,78,perceptual,0.03,0.05,target,target,1,8.741
3,79,perceptual,0.1,0.05,target,decoy,0,5.59
3,80,numeric,0.1,0.05,target,target,1,8.689
3,81,numeric,0.1,0.05,competitor,target,1,8.798
3,82,numeric,0.1,0.05,target,target,1,7.749
3,83,numeric,0.1,0.05,competitor,target,1,16.333
3,84,perceptual,0.1,0.05,competitor,competitor,0,9.353
3,85,perceptual,0.03,0.2,target,competitor,0,6.504
3,86,numeric,0.1,0.05,target,target,1,9.412
3,87,perceptual,0.03,0.2,competitor,target,1,18.011
3,88,perceptual,0.1,0.05,target,target,1,6.86
3,89,numeric,0.03,0.05,target,decoy,0,8.016
3,90,perceptual,0.1,0.2,competitor,competitor,0,8.53
3,91,numeric,0.03,0.2,target,target,1,19.374
3,92,perceptual,0.03,0.05,competitor,target,1,12.745
3,93,numeric,0.1,0.05,competitor,target,1,9.235
3,94,numeric,0.03,0.2,target,target,1,8.083
3,95,perceptual,0.1,0.2,competitor,target,1,4.816
3,96,perceptual,0.1,0.05,target,target,1,3.44
3,97,perceptual,0.1,0.2,competitor,competitor,0,6.293
3,98,perceptual,0.1,0.2,competitor,target,1,5.725
3,99,perceptual,0.1,0.05,target,target,1,4.102
3,101,numeric,0.03,0.2,competitor,decoy,0,10.622
3,102,perceptual,0.1,0.2,target,target,1,11.011
3,103,perceptual,0.1,0.05,competitor,decoy,0,15.222
3,104,numeric,0.1,0.2,competitor,competitor,0,8.272
3,105,perceptual,0.1,0.05,competitor,target,1,5.168
3,106,numeric,0.03,0.2,target,target,1,18.796
3,107,perceptual,0.03,0.05,target,decoy,0,2.444
3,108,numeric,0.1,0.2,competitor,target,1,6.665
3,109,perceptual,0.1,0.05,competitor,target,1,8.442
3,110,numeric,0.1,0.05,target,target,1,9.455
3,111,perceptual,0.03,0.2,competitor,competitor,0,5.707
3,112,numeric,0.1,0.2,competitor,target,1,10.995
3,113,numeric,0.03,0.2,competitor,target,1,7.565
3,114,numeric,0.03,0.2,competitor,target,1,5.46
3,115,numeric,0.1,0.2,competitor,target,1,3.406
3,116,perceptual,0.03,0.2,target,competitor,0,3.684
3,117,numeric,0.1,0.2,target,competitor,0,2.875
3,118,perceptual,0.1,0.05,target,competitor,0,3.09
3,119,numeric,0.1,0.2,target,target,1,3.452
3,120,numeric,0.1,0.2,competitor,competitor,0,3.133
3,121,numeric,0.1,0.2,target,target,1,5.893
3,122,numeric,0.1,0.2,competitor,competitor,0,5.13
3,123,perceptual,0.03,0.2,competitor,target,1,5.169
3,124,perceptual,0.1,0.05,target,target,1,5.207
3,125,perceptual,0.1,0.2,target,target,1,4.929
3,126,perceptual,0.1,0.05,competitor,target,1,5.182
3,127,numeric,0.03,0.2,target,competitor,0,6.305
3,128,perceptual,0.03,0.05,competitor,competitor,0,3.544
3,129,perceptual,0.03,0.05,target,target,1,7.76
3,130,numeric,0.03,0.2,competitor,competitor,0,8.838
3,131,perceptual,0.1,0.05,target,decoy,0,5.497
3,132,numeric,0.1,0.05,competitor,competitor,0,5.999
3,133,numeric,0.1,0.05,target,decoy,0,4.568
3,134,perceptual,0.1,0.05,competitor,target,1,3.05
3,135,perceptual,0.1,0.2,target,target,1,3.962
3,137,numeric,0.03,0.2,target,competitor,0,10.156
3,138,numeric,0.1,0.05,competitor,competitor,0,9.684
3,139,perceptual,0.03,0.05,target,target,1,2.636
3,140,perceptual,0.1,0.05,competitor,target,1,2.677
3,141,numeric,0.1,0.05,competitor,target,1,15.611
3,142,perceptual,0.03,0.2,target,competitor,0,6.142
3,143,perceptual,0.1,0.2,target,target,1,5.443
3,144,numeric,0.03,0.05,competitor,target,1,3.379
3,145,numeric,0.03,0.05,competitor,target,1,3.152
3,146,perceptual,0.1,0.2,target,target,1,5.391
3,147,numeric,0.03,0.2,target,target,1,4.955
3,148,numeric,0.1,0.05,competitor,competitor,0,3.669
3,149,perceptual,0.1,0.05,target,target,1,6.945
3,150,numeric,0.1,0.2,target,target,1,8.357
3,151,perceptual,0.1,0.2,competitor,target,1,8.091
3,152,perceptual,0.03,0.05,competitor,competitor,0,10.807
3,153,numeric,0.1,0.2,target,target,1,8.759
3,154,perceptual,0.03,0.2,target,target,1,5.428
3,155,perceptual,0.1,0.2,competitor,target,1,4.231
3,156,perceptual,0.1,0.2,target,competitor,0,7.611
3,157,perceptual,0.1,0.05,target,competitor,0,2.871
3,158,perceptual,0.03,0.2,competitor,target,1,10.244
3,159,perceptual,0.1,0.2,target,decoy,0,11.393
3,160,perceptual,0.03,0.2,competitor,target,1,9.778
3,161,perceptual,0.03,0.05,target,target,1,13.125
3,162,perceptual,0.1,0.2,target,target,1,9.265
3,163,perceptual,0.1,0.05,competitor,competitor,0,3.963
3,164,numeric,0.1,0.2,competitor,target,1,7.082
3,165,numeric,0.03,0.2,competitor,competitor,0,13.391
3,166,numeric,0.1,0.2,target,target,1,4.72
3,167,perceptual,0.1,0.05,target,decoy,0,6.447
3,168,perceptual,0.03,0.2,target,competitor,0,5.888
3,169,perceptual,0.03,0.2,competitor,target,1,5.193
3,170,perceptual,0.03,0.05,target,target,1,5.025
3,171,numeric,0.03,0.05,competitor,target,1,6.518
3,172,numeric,0.03,0.2,target,competitor,0,3.276
3,173,perceptual,0.03,0.05,target,target,1,6.214
3,174,perceptual,0.1,0.05,target,decoy,0,3.124
3,175,numeric,0.03,0.2,competitor,target,1,8.105
3,176,numeric,0.03,0.05,competitor,target,1,5.351
3,177,perceptual,0.03,0.2,target,target,1,7.15
3,178,perceptual,0.03,0.2,target,competitor,0,14.759
3,179,numeric,0.03,0.05,competitor,competitor,0,18.111
3,180,perceptual,0.03,0.2,target,target,1,8.335
3,181,perceptual,0.03,0.05,target,target,1,6.462
3,182,perceptual,0.1,0.05,target,target,1,5.502
3,183,numeric,0.03,0.2,target,target,1,6.089
3,184,perceptual,0.1,0.2,competitor,target,1,7.201
3,185,numeric,0.1,0.2,target,target,1,9.278
3,186,perceptual,0.03,0.2,target,target,1,5.461
3,187,perceptual,0.03,0.2,competitor,target,1,8.589
3,188,perceptual,0.03,0.2,competitor,competitor,0,5.403
3,189,perceptual,0.1,0.2,competitor,target,1,7.048
3,190,numeric,0.1,0.2,competitor,competitor,0,10.18
3,191,numeric,0.1,0.2,target,target,1,12.9
3,192,perceptual,0.03,0.05,target,target,1,7.72
4,1,numeric,0.1,0.2,competitor,competitor,0,13.265
4,2,perceptual,0.03,0.05,competitor,decoy,0,7.646
4,3,numeric,0.1,0.05,competitor,competitor,0,15.212
4,4,numeric,0.03,0.2,competitor,target,1,8.77
4,5,numeric,0.1,0.2,competitor,competitor,0,13.802
4,6,numeric,0.03,0.05,target,target,1,8.36
4,7,numeric,0.1,0.05,target,competitor,0,10.053
4,8,numeric,0.03,0.05,competitor,target,1,8.41
4,9,perceptual,0.1,0.05,competitor,target,1,6.725
4,10,numeric,0.1,0.2,target,competitor,0,13.415
4,11,perceptual,0.1,0.2,competitor,target,1,8.348
4,12,perceptual,0.1,0.05,target,target,1,3.637
4,13,perceptual,0.03,0.2,target,target,1,3.723
4,14,perceptual,0.03,0.05,competitor,target,1,3.241
4,15,perceptual,0.03,0.05,competitor,competitor,0,3.094
4,16,perceptual,0.03,0.05,competitor,decoy,0,5.807
4,17,perceptual,0.03,0.2,competitor,target,1,4.177
4,18,perceptual,0.1,0.05,target,target,1,3.688
4,19,perceptual,0.1,0.05,competitor,competitor,0,4.518
4,20,perceptual,0.03,0.05,competitor,target,1,10.589
4,21,numeric,0.03,0.05,target,target,1,8.213
4,22,perceptual,0.03,0.2,target,target,1,6.592
4,23,numeric,0.03,0.05,target,competitor,0,14.127
4,24,numeric,0.03,0.05,competitor,decoy,0,13.77
4,25,numeric,0.1,0.2,target,target,1,13.334
4,26,perceptual,0.1,0.05,target,decoy,0,3.669
4,27,numeric,0.03,0.2,target,target,1,10.204
4,28,perceptual,0.1,0.2,target,decoy,0,0.216
4,29,perceptual,0.1,0.2,target,competitor,0,5.428
4,30,numeric,0.1,0.05,target,target,1,10.938
4,31,perceptual,0.03,0.2,target,target,1,3.752
4,32,perceptual,0.03,0.05,target,target,1,4.03
4,33,numeric,0.03,0.2,competitor,target,1,17.252
4,34,perceptual,0.03,0.2,competitor,target,1,4.704
4,35,perceptual,0.1,0.2,target,target,1,3.672
4,36,perceptual,0.1,0.2,competitor,target,1,4.177
4,37,perceptual,0.1,0.2,target,target,1,3.349
4,38,numeric,0.1,0.2,target,target,1,7.696
4,39,perceptual,0.03,0.05,competitor,target,1,3.184
4,40,perceptual,0.03,0.2,competitor,decoy,0,2.216
4,41,perceptual,0.1,0.05,competitor,target,1,3.196
4,42,numeric,0.1,0.2,target,target,1,12.256
4,43,numeric,0.03,0.05,competitor,target,1,7.852
4,44,numeric,0.03,0.05,target,decoy,0,8.426
4,45,perceptual,0.03,0.05,competitor,target,1,3.247
4,46,numeric,0.1,0.05,competitor,target,1,4.191
4,47,numeric,0.1,0.2,competitor,target,1,7.696
4,48,numeric,0.1,0.05,competitor,target,1,13.381
4,49,numeric,0.03,0.2,target,target,1,9.747
4,50,numeric,0.03,0.2,target,competitor,0,10.247
4,51,numeric,0.03,0.05,competitor,competitor,0,14.44
4,52,perceptual,0.1,0.05,competitor,target,1,5.799
4,53,perceptual,0.1,0.05,target,target,1,4.528
4,54,numeric,0.03,0.2,competitor,competitor,0,6.226
4,55,perceptual,0.1,0.2,competitor,target,1,3.245
4,56,perceptual,0.1,0.05,target,target,1,2.884
4,57,perceptual,0.03,0.2,competitor,competitor,0,3.222
4,59,perceptual,0.1,0.05,target,target,1,1.378
4,60,perceptual,0.03,0.05,target,target,1,2.555
4,61,numeric,0.1,0.2,competitor,competitor,0,4.351
4,62,perceptual,0.1,0.2,target,target,1,4.473
4,63,perceptual,0.03,0.05,target,target,1,3.372
4,64,numeric,0.1,0.05,target,target,1,5.551
4,65,perceptual,0.1,0.2,target,target,1,4.048
4,66,numeric,0.03,0.2,target,competitor,0,7.707
4,67,numeric,0.03,0.2,competitor,competitor,0,9.052
4,68,numeric,0.03,0.05,competitor,target,1,14.139
4,69,perceptual,0.1,0.05,competitor,target,1,3.049
4,70,numeric,0.03,0.2,competitor,target,1,9.416
4,71,numeric,0.03,0.2,competitor,target,1,13.879
4,72,numeric,0.1,0.2,competitor,target,1,8.344
4,73,numeric,0.1,0.05,competitor,target,1,7.349
4,74,numeric,0.03,0.05,target,target,1,12.83
4,75,perceptual,0.1,0.05,competitor,competitor,0,5.067
4,76,perceptual,0.1,0.2,competitor,competitor,0,2.65
4,77,numeric,0.1,0.05,target,target,1,16.281
4,78,perceptual,0.1,0.05,target,target,1,4.826
4,79,numeric,0.03,0.2,target,target,1,7.921
4,80,perceptual,0.1,0.2,target,target,1,4.202
4,81,perceptual,0.1,0.2,competitor,target,1,3.094
4,82,perceptual,0.03,0.2,target,competitor,0,2.518
4,83,numeric,0.1,0.05,target,decoy,0,13.427
4,84,perceptual,0.03,0.2,competitor,competitor,0,3.558
4,85,numeric,0.03,0.05,competitor,competitor,0,16.682
4,86,perceptual,0.1,0.2,competitor,target,1,4.444
4,88,perceptual,0.1,0.2,target,target,1,2.61
4,89,perceptual,0.03,0.2,target,competitor,0,2.142
4,90,perceptual,0.1,0.05,competitor,target,1,3.889
4,91,numeric,0.03,0.05,competitor,competitor,0,10.216
4,92,numeric,0.1,0.05,target,target,1,11.66
4,93,numeric,0.1,0.2,target,target,1,9.182
4,94,numeric,0.1,0.2,competitor,target,1,9.403
4,95,numeric,0.03,0.2,target,target,1,11.18
4,96,perceptual,0.1,0.2,target,target,1,4.55
4,97,perceptual,0.1,0.05,target,decoy,0,2.791
4,98,perceptual,0.03,0.05,target,decoy,0,4.522
4,99,perceptual,0.03,0.2,competitor,competitor,0,4.82
4,100,numeric,0.03,0.05,competitor,target,1,8.47
4,101,numeric,0.03,0.2,target,target,1,12.65
4,102,perceptual,0.03,0.05,competitor,competitor,0,5.009
4,103,numeric,0.1,0.2,target,target,1,12.909
4,104,numeric,0.1,0.2,competitor,target,1,11.305
4,105,numeric,0.03,0.2,competitor,competitor,0,10.641
4,106,perceptual,0.1,0.05,competitor,target,1,4.55
4,107,perceptual,0.1,0.2,target,target,1,2.642
4,108,perceptual,0.1,0.2,competitor,target,1,7.71
4,109,numeric,0.03,0.2,target,competitor,0,12.802
4,110,perceptual,0.03,0.05,target,decoy,0,2.605
4,111,perceptual,0.1,0.05,target,decoy,0,5.482
4,112,numeric,0.1,0.05,target,target,1,8.488
4,113,numeric,0.1,0.05,competitor,target,1,8.793
4,114,perceptual,0.03,0.05,target,target,1,3.796
4,115,numeric,0.03,0.2,target,target,1,10.657
4,116,numeric,0.03,0.05,competitor,target,1,12.673
4,117,perceptual,0.1,0.2,competitor,competitor,0,5.525
4,118,perceptual,0.03,0.2,target,competitor,0,3.848
4,119,perceptual,0.1,0.2,target,competitor,0,2.671
4,120,perceptual,0.03,0.05,competitor,target,1,4.511
4,121,numeric,0.1,0.05,target,target,1,8.884
4,122,perceptual,0.03,0.2,competitor,target,1,3.708
4,123,numeric,0.03,0.05,target,target,1,9.318
4,124,numeric,0.1,0.05,target,target,1,14.4
4,125,numeric,0.1,0.05,competitor,target,1,11.69
4,126,numeric,0.03,0.2,competitor,target,1,11.579
4,127,numeric,0.03,0.2,competitor,competitor,0,10.101
4,128,numeric,0.1,0.2,target,competitor,0,10.342
4,129,perceptual,0.03,0.2,competitor,competitor,0,2.927
4,130,numeric,0.1,0.05,target,target,1,10.537
4,131,perceptual,0.03,0.05,competitor,decoy,0,6.069
4,132,numeric,0.1,0.2,competitor,target,1,11.085
4,133,perceptual,0.03,0.2,competitor,competitor,0,3.122
4,134,numeric,0.1,0.2,target,competitor,0,7.98
4,135,perceptual,0.1,0.05,target,decoy,0,2.397
4,136,perceptual,0.1,0.05,target,target,1,5.438
4,137,perceptual,0.03,0.2,target,target,1,5.635
4,138,perceptual,0.03,0.05,target,decoy,0,5.486
4,139,perceptual,0.03,0.2,target,target,1,2.824
4,140,perceptual,0.03,0.05,competitor,competitor,0,3.297
4,141,perceptual,0.1,0.05,competitor,target,1,3.526
4,142,numeric,0.03,0.05,target,target,1,9.677
4,143,perceptual,0.1,0.05,competitor,target,1,4.238
4,144,numeric,0.03,0.05,competitor,competitor,0,7.828
4,145,numeric,0.03,0.05,target,target,1,13.883
4,146,numeric,0.1,0.05,target,target,1,7.381
4,147,perceptual,0.03,0.05,target,target,1,5.927
4,148,numeric,0.03,0.2,competitor,competitor,0,9.163
4,149,perceptual,0.1,0.2,target,target,1,2.807
4,150,numeric,0.1,0.05,competitor,target,1,10.89
4,151,numeric,0.03,0.05,target,target,1,10.053
4,152,numeric,0.1,0.05,competitor,target,1,14.083
4,153,numeric,0.1,0.2,competitor,target,1,12.026
4,154,perceptual,0.1,0.2,competitor,target,1,3.144
4,155,numeric,0.03,0.2,target,target,1,11.429
4,156,perceptual,0.1,0.2,competitor,target,1,3.265
4,157,numeric,0.03,0.05,target,target,1,11.061
4,158,perceptual,0.03,0.05,competitor,target,1,3.304
4,159,numeric,0.1,0.05,competitor,competitor,0,10.446
4,160,numeric,0.03,0.2,competitor,target,1,11.193
4,161,perceptual,0.1,0.2,competitor,target,1,3.504
4,162,numeric,0.03,0.2,target,target,1,9.903
4,163,perceptual,0.03,0.05,target,target,1,3.269
4,164,perceptual,0.03,0.2,competitor,target,1,3.609
4,165,numeric,0.03,0.05,target,target,1,12.35
4,166,numeric,0.1,0.05,competitor,target,1,10.658
4,167,numeric,0.1,0.2,target,target,1,15.828
4,168,numeric,0.1,0.2,target,target,1,18.904
4,169,numeric,0.1,0.2,competitor,target,1,15.795
4,170,numeric,0.03,0.05,competitor,target,1,11.022
4,171,numeric,0.1,0.05,competitor,target,1,10.944
4,172,perceptual,0.03,0.2,target,target,1,3.01
4,173,perceptual,0.03,0.2,target,competitor,0,2.254
4,174,perceptual,0.03,0.05,target,competitor,0,3.313
4,175,numeric,0.1,0.2,competitor,target,1,10.087
4,176,perceptual,0.03,0.2,target,target,1,4.65
4,177,numeric,0.1,0.05,competitor,target,1,11.366
4,178,perceptual,0.03,0.05,target,target,1,4.97
4,179,perceptual,0.03,0.2,competitor,competitor,0,2.645
4,180,numeric,0.1,0.2,target,target,1,10.223
4,181,perceptual,0.03,0.05,target,target,1,2.926
4,182,perceptual,0.03,0.2,target,target,1,7.573
4,183,numeric,0.03,0.05,target,target,1,10.62
4,184,numeric,0.1,0.05,target,target,1,7.491
4,185,perceptual,0.1,0.05,target,target,1,3.881
4,186,numeric,0.03,0.05,competitor,target,1,10.053
4,187,perceptual,0.1,0.05,competitor,competitor,0,3.207
4,188,perceptual,0.1,0.05,competitor,target,1,5.529
4,189,perceptual,0.03,0.2,competitor,competitor,0,3.821
4,190,numeric,0.1,0.2,competitor,competitor,0,16.33
4,191,numeric,0.03,0.2,competitor,target,1,18.604
4,192,perceptual,0.1,0.2,competitor,target,1,2.966
5,1,numeric,0.03,0.2,competitor,competitor,0,15.784
5,2,numeric,0.1,0.05,target,target,1,15.109
5,3,perceptual,0.03,0.2,target,target,1,6.836
5,5,numeric,0.03,0.05,target,target,1,10.668
5,6,numeric,0.1,0.05,target,target,1,5.398
5,7,numeric,0.1,0.2,competitor,target,1,6.453
5,8,numeric,0.1,0.05,target,target,1,6.682
5,9,perceptual,0.1,0.05,competitor,target,1,3.368
5,10,perceptual,0.1,0.2,target,target,1,3.739
5,11,perceptual,0.03,0.05,competitor,target,1,6.571
5,12,numeric,0.03,0.05,target,target,1,4.868
5,13,perceptual,0.03,0.2,competitor,target,1,6.768
5,14,perceptual,0.1,0.2,competitor,target,1,5.821
5,15,perceptual,0.1,0.2,competitor,target,1,5.303
5,16,perceptual,0.1,0.2,target,competitor,0,4.951
5,17,numeric,0.1,0.2,competitor,target,1,3.498
5,18,perceptual,0.03,0.2,competitor,target,1,3.717
5,19,numeric,0.03,0.05,target,target,1,5.92
5,20,numeric,0.1,0.2,target,decoy,0,7.585
5,21,perceptual,0.1,0.2,competitor,target,1,4.835
5,22,perceptual,0.1,0.2,target,target,1,7.385
5,23,numeric,0.03,0.2,competitor,competitor,0,8.935
5,24,perceptual,0.03,0.05,target,target,1,7.5
5,25,perceptual,0.03,0.05,competitor,target,1,7.34
5,26,numeric,0.1,0.2,target,target,1,7.254
5,27,perceptual,0.03,0.2,competitor,target,1,6.786
5,28,numeric,0.03,0.05,competitor,competitor,0,11.585
5,29,perceptual,0.03,0.2,competitor,competitor,0,5.065
5,30,numeric,0.1,0.05,target,competitor,0,7.985
5,31,perceptual,0.1,0.2,competitor,target,1,4.634
5,32,numeric,0.1,0.05,target,target,1,9.149
5,33,numeric,0.1,0.2,competitor,target,1,4.717
5,34,numeric,0.03,0.05,target,competitor,0,7.72
5,35,perceptual,0.1,0.05,target,decoy,0,4.592
5,36,numeric,0.1,0.05,competitor,competitor,0,4.268
5,37,perceptual,0.03,0.2,competitor,target,1,3.12
5,38,numeric,0.1,0.05,competitor,competitor,0,11.937
5,39,perceptual,0.1,0.2,competitor,target,1,4.292
5,40,perceptual,0.1,0.05,competitor,target,1,5.852
5,41,perceptual,0.1,0.05,target,target,1,7.488
5,42,numeric,0.1,0.2,competitor,target,1,8.999
5,43,perceptual,0.1,0.05,competitor,competitor,0,5.417
5,44,numeric,0.1,0.2,target,target,1,9.067
5,45,perceptual,0.1,0.05,target,target,1,4.984
5,46,numeric,0.1,0.05,competitor,target,1,8.166
5,47,perceptual,0.1,0.05,target,decoy,0,10.367
5,48,numeric,0.03,0.05,competitor,competitor,0,13.167
5,49,perceptual,0.1,0.2,competitor,target,1,4.345
5,50,perceptual,0.03,0.05,competitor,decoy,0,7.942
5,51,perceptual,0.1,0.2,target,target,1,4.483
5,52,numeric,0.1,0.2,competitor,target,1,9.558
5,53,numeric,0.03,0.2,competitor,decoy,0,5.086
5,54,numeric,0.03,0.2,competitor,target,1,9.182
5,55,numeric,0.03,0.05,competitor,target,1,6.52
5,56,numeric,0.1,0.2,competitor,target,1,4.652
5,57,numeric,0.03,0.2,competitor,competitor,0,13.298
5,58,numeric,0.1,0.05,competitor,target,1,9.397
5,59,perceptual,0.03,0.05,competitor,target,1,8.035
5,60,numeric,0.1,0.05,competitor,target,1,13.781
5,61,numeric,0.03,0.2,target,competitor,0,15.315
5,62,perceptual,0.03,0.2,target,competitor,0,3.586
5,63,perceptual,0.03,0.2,competitor,competitor,0,5.353
5,64,numeric,0.1,0.05,target,target,1,8.906
5,65,numeric,0.1,0.05,competitor,target,1,6.175
5,66,perceptual,0.1,0.05,competitor,target,1,4.415
5,67,perceptual,0.03,0.2,competitor,target,1,4.231
5,68,numeric,0.03,0.05,competitor,competitor,0,7.083
5,69,perceptual,0.1,0.05,competitor,target,1,10.349
5,70,numeric,0.1,0.2,competitor,target,1,9.247
5,71,numeric,0.03,0.2,target,target,1,6.305
5,72,numeric,0.1,0.2,target,target,1,8.817
5,73,numeric,0.1,0.2,competitor,target,1,15.901
5,74,perceptual,0.03,0.05,target,target,1,4.292
5,75,numeric,0.03,0.2,target,target,1,7.799
5,76,perceptual,0.03,0.2,target,target,1,3.979
5,77,perceptual,0.03,0.2,target,target,1,4.879
5,78,perceptual,0.1,0.05,competitor,decoy,0,7.755
5,79,numeric,0.03,0.05,competitor,decoy,0,9.03
5,80,perceptual,0.1,0.05,competitor,competitor,0,5.608
5,81,numeric,0.03,0.2,target,target,1,7.921
5,82,numeric,0.03,0.2,competitor,competitor,0,8.439
5,83,perceptual,0.03,0.2,competitor,target,1,7.449
5,84,perceptual,0.03,0.05,competitor,decoy,0,6.982
5,85,perceptual,0.1,0.05,competitor,target,1,3.322
5,86,numeric,0.1,0.2,competitor,competitor,0,9.173
5,87,perceptual,0.03,0.05,target,decoy,0,7.072
5,88,perceptual,0.1,0.05,target,decoy,0,5.616
5,89,numeric,0.03,0.2,target,target,1,12.716
5,90,perceptual,0.03,0.2,target,competitor,0,5.335
5,91,numeric,0.03,0.2,target,target,1,9.782
5,92,perceptual,0.03,0.2,target,target,1,4.857
5,93,numeric,0.1,0.05,target,decoy,0,12.268
5,94,perceptual,0.03,0.05,competitor,target,1,3.683
5,95,perceptual,0.03,0.05,target,competitor,0,2.817
5,96,perceptual,0.03,0.2,competitor,target,1,3.954
5,97,numeric,0.1,0.2,target,target,1,4.115
5,98,numeric,0.03,0.05,target,target,1,9.413
5,99,perceptual,0.1,0.2,target,target,1,5.297
5,100,numeric,0.1,0.05,competitor,decoy,0,11.448
5,101,perceptual,0.1,0.2,competitor,competitor,0,7.651
5,102,numeric,0.03,0.05,target,target,1,6.241
5,103,perceptual,0.1,0.2,target,target,1,8.492
5,104,perceptual,0.03,0.05,target,target,1,9.751
5,105,numeric,0.1,0.2,target,target,1,11.134
5,106,perceptual,0.1,0.05,competitor,decoy,0,4.174
5,107,perceptual,0.03,0.2,target,competitor,0,4.275
5,108,numeric,0.1,0.2,competitor,competitor,0,6.897
5,109,perceptual,0.03,0.05,competitor,target,1,5.923
5,110,numeric,0.1,0.05,target,target,1,12.268
5,111,numeric,0.03,0.05,competitor,target,1,5.385
5,112,perceptual,0.03,0.2,competitor,target,1,7.125
5,113,numeric,0.03,0.05,competitor,target,1,4.424
5,114,perceptual,0.1,0.2,target,target,1,5.585
5,115,numeric,0.1,0.2,target,target,1,5.807
5,116,perceptual,0.03,0.2,target,target,1,6.252
5,117,perceptual,0.03,0.05,competitor,target,1,5.234
5,118,numeric,0.1,0.05,target,decoy,0,5.735
5,119,numeric,0.03,0.2,competitor,target,1,5.234
5,120,perceptual,0.1,0.05,competitor,competitor,0,4.087
5,121,perceptual,0.1,0.2,target,target,1,10.341
5,122,numeric,0.03,0.05,competitor,target,1,8.004
5,123,perceptual,0.1,0.05,target,target,1,10.165
5,124,perceptual,0.1,0.2,competitor,target,1,5.396
5,125,perceptual,0.1,0.2,target,target,1,4.331
5,126,perceptual,0.1,0.05,target,target,1,4.904
5,127,numeric,0.03,0.2,competitor,competitor,0,6.771
5,128,perceptual,0.03,0.2,target,target,1,8.659
5,129,numeric,0.03,0.05,target,target,1,5.85
5,130,perceptual,0.03,0.05,competitor,target,1,9.291
5,131,numeric,0.1,0.2,target,target,1,7.134
5,132,perceptual,0.03,0.05,target,target,1,4.425
5,133,numeric,0.03,0.05,target,target,1,8.842
5,134,numeric,0.03,0.2,target,target,1,7.303
5,135,numeric,0.1,0.05,target,target,1,9.079
5,136,perceptual,0.1,0.05,competitor,target,1,5.373
5,137,numeric,0.1,0.05,competitor,target,1,5.018
5,138,numeric,0.03,0.2,target,target,1,10.366
5,139,numeric,0.1,0.05,competitor,target,1,4.872
5,140,numeric,0.03,0.05,competitor,target,1,7.049
5,141,perceptual,0.03,0.2,target,target,1,3.757
5,142,perceptual,0.1,0.2,target,target,1,5.837
5,143,numeric,0.03,0.05,target,target,1,4.139
5,144,perceptual,0.03,0.05,target,target,1,5.954
5,145,numeric,0.1,0.2,target,target,1,4.866
5,146,numeric,0.03,0.05,target,target,1,7.404
5,147,perceptual,0.1,0.05,target,target,1,6.534
5,148,numeric,0.1,0.05,competitor,target,1,9.524
5,149,perceptual,0.1,0.05,target,target,1,5.031
5,150,perceptual,0.03,0.2,target,decoy,0,8.124
5,151,perceptual,0.1,0.2,target,target,1,9.351
5,152,perceptual,0.1,0.05,competitor,target,1,4.752
5,153,perceptual,0.03,0.2,target,target,1,4.199
5,154,perceptual,0.03,0.2,competitor,competitor,0,5.82
5,155,numeric,0.1,0.05,target,target,1,7.802
5,156,numeric,0.03,0.2,target,target,1,7.979
5,157,numeric,0.03,0.2,target,target,1,13.116
5,158,numeric,0.03,0.05,target,target,1,9.353
5,159,perceptual,0.03,0.2,competitor,target,1,3.624
5,160,numeric,0.1,0.2,target,target,1,8.318
5,161,perceptual,0.1,0.05,target,target,1,4.527
5,162,numeric,0.03,0.2,target,competitor,0,3.503
5,163,numeric,0.03,0.2,competitor,competitor,0,4.634
5,164,perceptual,0.1,0.2,target,target,1,3.028
5,165,perceptual,0.1,0.2,competitor,target,1,3.62
5,166,numeric,0.03,0.2,competitor,competitor,0,8.519
5,167,numeric,0.03,0.05,competitor,target,1,6.301
5,168,perceptual,0.03,0.05,target,target,1,3.475
5,169,perceptual,0.1,0.05,target,decoy,0,7.35
5,170,perceptual,0.03,0.05,competitor,competitor,0,8.191
5,171,perceptual,0.1,0.05,target,target,1,8.682
5,172,numeric,0.1,0.05,competitor,competitor,0,7.799
5,173,perceptual,0.1,0.2,competitor,competitor,0,4.588
5,174,numeric,0.1,0.2,target,competitor,0,12.688
5,175,perceptual,0.03,0.05,competitor,competitor,0,6.117
5,176,numeric,0.03,0.05,target,target,1,12.416
5,177,perceptual,0.1,0.2,competitor,target,1,2.975
5,178,numeric,0.1,0.2,target,target,1,4.983
5,179,perceptual,0.03,0.05,competitor,decoy,0,5.999
5,180,numeric,0.1,0.2,competitor,target,1,8.548
5,181,numeric,0.03,0.2,target,competitor,0,6.472
5,182,numeric,0.1,0.2,competitor,target,1,4.334
5,183,numeric,0.1,0.05,target,target,1,9.8
5,184,numeric,0.03,0.2,competitor,competitor,0,3.924
5,185,numeric,0.03,0.2,competitor,target,1,5.051
5,186,perceptual,0.03,0.05,target,target,1,4.882
5,187,numeric,0.03,0.05,competitor,target,1,11.714
5,188,perceptual,0.1,0.2,competitor,target,1,4.265
5,189,perceptual,0.03,0.05,target,competitor,0,5.721
5,190,perceptual,0.03,0.05,target,decoy,0,4.62
5,191,numeric,0.03,0.05,competitor,competitor,0,7.303
5,192,perceptual,0.03,0.05,target,competitor,0,5.369
6,2,perceptual,0.03,0.05,competitor,competitor,0,15.764
6,3,perceptual,0.03,0.05,target,target,1,8.361
6,4,numeric,0.1,0.2,target,target,1,11.066
6,5,numeric,0.1,0.05,target,decoy,0,5.632
6,6,numeric,0.03,0.2,target,target,1,7.798
6,7,numeric,0.1,0.05,competitor,target,1,6.488
6,8,numeric,0.03,0.05,competitor,competitor,0,5.943
6,9,perceptual,0.1,0.2,target,target,1,8.549
6,10,numeric,0.03,0.05,competitor,target,1,9.127
6,11,perceptual,0.03,0.05,target,competitor,0,7.252
6,12,perceptual,0.1,0.05,competitor,target,1,6.343
6,13,perceptual,0.1,0.05,competitor,target,1,3.749
6,14,numeric,0.03,0.2,competitor,competitor,0,10.632
6,15,perceptual,0.1,0.2,competitor,target,1,7.327
6,16,numeric,0.1,0.05,competitor,competitor,0,7.467
6,17,perceptual,0.03,0.05,competitor,target,1,6.121
6,18,perceptual,0.1,0.05,competitor,target,1,5.169
6,19,numeric,0.1,0.2,competitor,target,1,4.417
6,20,perceptual,0.03,0.2,competitor,target,1,4.433
6,21,perceptual,0.1,0.2,target,target,1,5.563
6,22,numeric,0.1,0.2,target,target,1,6.29
6,23,numeric,0.1,0.05,target,decoy,0,8.501
6,24,perceptual,0.1,0.05,target,target,1,5.138
6,25,numeric,0.1,0.05,target,target,1,9.445
6,26,numeric,0.1,0.05,competitor,target,1,8.812
6,27,perceptual,0.03,0.2,competitor,target,1,8.039
6,28,perceptual,0.1,0.2,target,competitor,0,3.757
6,29,perceptual,0.1,0.05,target,decoy,0,5.044
6,30,perceptual,0.1,0.05,target,target,1,5.138
6,31,numeric,0.1,0.2,target,competitor,0,5.177
6,32,perceptual,0.03,0.05,target,target,1,6.63
6,33,numeric,0.03,0.2,competitor,decoy,0,7.789
6,34,perceptual,0.03,0.2,competitor,target,1,6.953
6,35,numeric,0.03,0.2,competitor,target,1,4.259
6,36,numeric,0.03,0.05,competitor,competitor,0,3.593
6,37,perceptual,0.1,0.05,competitor,target,1,8.65
6,38,numeric,0.1,0.05,competitor,target,1,9.266
6,39,perceptual,0.03,0.05,competitor,target,1,5.043
6,40,perceptual,0.03,0.2,target,competitor,0,4.276
6,41,numeric,0.1,0.2,target,target,1,9.797
6,42,perceptual,0.1,0.2,target,target,1,4.394
6,43,numeric,0.1,0.2,target,competitor,0,4.761
6,44,numeric,0.1,0.05,competitor,competitor,0,8.516
6,45,perceptual,0.1,0.05,target,decoy,0,11.043
6,46,perceptual,0.03,0.2,target,target,1,9.65
6,47,perceptual,0.03,0.2,competitor,target,1,4.612
6,48,perceptual,0.1,0.05,competitor,target,1,4.183
6,49,perceptual,0.1,0.2,competitor,target,1,3.304
6,50,numeric,0.03,0.2,target,target,1,3.367
6,51,perceptual,0.03,0.05,competitor,target,1,3.154
6,52,numeric,0.03,0.2,target,target,1,5.537
6,53,numeric,0.03,0.05,target,target,1,14.103
6,54,numeric,0.1,0.2,target,target,1,8.232
6,55,perceptual,0.03,0.05,competitor,target,1,11.482
6,56,numeric,0.03,0.2,target,competitor,0,6.9
6,57,numeric,0.03,0.2,competitor,competitor,0,3.751
6,58,numeric,0.1,0.2,target,competitor,0,3.579
6,59,numeric,0.03,0.05,target,target,1,7.049
6,60,numeric,0.1,0.2,competitor,target,1,10.684
6,61,numeric,0.1,0.2,target,competitor,0,7.065
6,62,perceptual,0.03,0.05,target,target,1,3.539
6,63,numeric,0.1,0.2,competitor,target,1,8.331
6,64,numeric,0.03,0.05,target,target,1,6.063
6,65,numeric,0.03,0.05,target,target,1,6.376
6,66,perceptual,0.1,0.2,target,target,1,4.293
6,67,perceptual,0.03,0.05,target,target,1,4.893
6,68,numeric,0.1,0.05,target,target,1,3.202
6,69,perceptual,0.1,0.2,target,target,1,2.771
6,70,perceptual,0.1,0.2,target,target,1,4.038
6,71,perceptual,0.1,0.2,competitor,target,1,2.664
6,72,numeric,0.03,0.05,competitor,decoy,0,3.025
6,73,perceptual,0.1,0.2,competitor,competitor,0,3.438
6,74,numeric,0.1,0.05,competitor,target,1,3.699
6,75,perceptual,0.1,0.05,competitor,competitor,0,3.098
6,76,numeric,0.03,0.2,competitor,target,1,3.351
6,77,numeric,0.1,0.05,target,target,1,5.253
6,78,numeric,0.1,0.05,competitor,target,1,6.557
6,79,numeric,0.1,0.2,competitor,target,1,5.493
6,80,numeric,0.03,0.2,competitor,target,1,8.4
6,81,numeric,0.03,0.05,competitor,decoy,0,4.52
6,82,numeric,0.03,0.05,competitor,target,1,7.149
6,83,numeric,0.03,0.05,competitor,target,1,4.961
6,84,perceptual,0.03,0.05,competitor,competitor,0,6.249
6,85,perceptual,0.1,0.2,competitor,target,1,2.367
6,86,numeric,0.03,0.05,target,target,1,7.928
6,87,numeric,0.03,0.2,competitor,decoy,0,9.694
6,88,perceptual,0.1,0.2,competitor,target,1,4.332
6,89,numeric,0.03,0.05,target,decoy,0,1.804
6,90,perceptual,0.03,0.05,competitor,decoy,0,6.264
6,91,perceptual,0.03,0.2,target,competitor,0,3.76
6,92,perceptual,0.1,0.05,target,target,1,3.048
6,93,perceptual,0.1,0.05,competitor,target,1,2.574
6,94,perceptual,0.03,0.05,target,target,1,3.943
6,95,numeric,0.03,0.2,target,competitor,0,3.67
6,96,numeric,0.03,0.2,target,target,1,3.998
6,97,perceptual,0.03,0.05,target,target,1,2.467
6,98,numeric,0.03,0.2,target,competitor,0,3.22
6,99,numeric,0.1,0.05,competitor,target,1,3.434
6,100,perceptual,0.03,0.05,target,target,1,3.202
6,101,perceptual,0.03,0.05,competitor,decoy,0,3.093
6,102,numeric,0.03,0.2,competitor,competitor,0,3.208
6,103,perceptual,0.03,0.05,target,competitor,0,4.93
6,104,numeric,0.03,0.2,competitor,competitor,0,2.64
6,105,numeric,0.1,0.05,competitor,competitor,0,3.92
6,106,perceptual,0.1,0.05,competitor,target,1,2.819
6,107,numeric,0.03,0.05,target,target,1,3.312
6,108,numeric,0.1,0.2,competitor,target,1,4.71
6,109,perceptual,0.03,0.2,competitor,target,1,4.536
6,110,perceptual,0.1,0.2,target,target,1,5.233
6,111,numeric,0.1,0.05,competitor,target,1,3.632
6,112,numeric,0.03,0.05,competitor,target,1,4.561
6,113,perceptual,0.03,0.2,competitor,competitor,0,2.287
6,114,perceptual,0.1,0.05,target,target,1,6.76
6,115,numeric,0.03,0.2,target,competitor,0,4.879
6,116,perceptual,0.1,0.05,target,target,1,4.938
6,117,numeric,0.1,0.05,competitor,target,1,4.749
6,118,numeric,0.03,0.05,target,decoy,0,5.014
6,119,perceptual,0.1,0.2,target,target,1,3.639
6,120,perceptual,0.1,0.05,target,target,1,3.074
6,121,numeric,0.03,0.2,target,target,1,9.827
6,122,perceptual,0.03,0.2,target,target,1,7.818
6,123,numeric,0.03,0.05,competitor,competitor,0,4.592
6,124,numeric,0.1,0.05,target,competitor,0,5.32
6,125,perceptual,0.03,0.2,competitor,competitor,0,4.139
6,126,numeric,0.03,0.05,competitor,competitor,0,4.744
6,127,perceptual,0.03,0.2,target,target,1,3.185
6,128,numeric,0.1,0.05,target,target,1,6.777
6,129,perceptual,0.1,0.2,competitor,target,1,2.893
6,130,numeric,0.1,0.2,target,competitor,0,3.012
6,131,perceptual,0.03,0.05,competitor,target,1,3.149
6,132,numeric,0.1,0.2,target,target,1,3.676
6,133,numeric,0.03,0.2,competitor,competitor,0,3.166
6,134,numeric,0.1,0.2,target,target,1,3.453
6,135,perceptual,0.1,0.05,competitor,target,1,2.919
6,136,perceptual,0.1,0.2,competitor,competitor,0,2.812
6,137,numeric,0.1,0.2,competitor,target,1,5.334
6,138,perceptual,0.1,0.2,competitor,target,1,3.92
6,139,numeric,0.03,0.05,competitor,competitor,0,2.584
6,140,perceptual,0.1,0.2,target,competitor,0,4.413
6,141,numeric,0.1,0.2,competitor,target,1,3.311
6,142,perceptual,0.03,0.2,target,target,1,2.716
6,143,perceptual,0.03,0.2,competitor,competitor,0,3.048
6,144,numeric,0.1,0.05,target,target,1,6.638
6,145,perceptual,0.1,0.2,competitor,target,1,3.255
6,146,numeric,0.1,0.05,target,target,1,3.658
6,147,numeric,0.03,0.2,target,competitor,0,6.654
6,148,perceptual,0.1,0.05,competitor,target,1,7.821
6,149,numeric,0.03,0.2,competitor,competitor,0,6.828
6,150,numeric,0.03,0.2,competitor,target,1,6.325
6,151,numeric,0.1,0.05,target,competitor,0,5.711
6,152,numeric,0.03,0.05,competitor,competitor,0,7.572
6,153,perceptual,0.03,0.2,competitor,competitor,0,3.027
6,154,numeric,0.03,0.05,target,competitor,0,4.363
6,155,numeric,0.03,0.05,target,competitor,0,5.431
6,156,perceptual,0.03,0.2,competitor,target,1,3.031
6,157,perceptual,0.1,0.05,target,competitor,0,3.655
6,158,perceptual,0.03,0.2,competitor,target,1,2.11
6,159,numeric,0.03,0.05,target,target,1,3.226
6,160,perceptual,0.03,0.2,competitor,target,1,2.731
6,161,perceptual,0.03,0.2,target,target,1,3.159
6,162,numeric,0.03,0.05,target,target,1,2.6
6,163,perceptual,0.1,0.2,target,decoy,0,3.296
6,164,perceptual,0.03,0.2,target,target,1,2.873
6,165,perceptual,0.03,0.2,target,target,1,2.666
6,166,numeric,0.03,0.2,target,competitor,0,4.037
6,167,perceptual,0.1,0.05,competitor,competitor,0,4.03
6,168,perceptual,0.1,0.2,target,target,1,4.327
6,169,numeric,0.03,0.2,target,competitor,0,3.135
6,170,numeric,0.1,0.05,competitor,competitor,0,3.483
6,171,perceptual,0.03,0.2,target,target,1,3.265
6,172,numeric,0.1,0.2,target,target,1,8.737
6,173,perceptual,0.1,0.05,target,competitor,0,3.284
6,174,numeric,0.1,0.2,competitor,target,1,3.674
6,175,numeric,0.1,0.2,competitor,competitor,0,2.457
6,176,perceptual,0.1,0.05,competitor,target,1,2.611
6,177,numeric,0.1,0.05,target,competitor,0,2.866
6,178,perceptual,0.03,0.05,target,decoy,0,2.933
6,179,perceptual,0.1,0.05,target,target,1,2.45
6,180,perceptual,0.03,0.2,target,target,1,2.623
6,181,perceptual,0.03,0.05,target,competitor,0,3.624
6,182,perceptual,0.03,0.05,competitor,target,1,2.632
6,183,numeric,0.1,0.2,competitor,competitor,0,3.395
6,184,perceptual,0.03,0.05,competitor,target,1,3.508
6,185,perceptual,0.03,0.05,competitor,decoy,0,3.368
6,186,numeric,0.1,0.2,competitor,target,1,6.358
6,187,numeric,0.1,0.05,target,competitor,0,2.983
6,188,perceptual,0.03,0.05,target,competitor,0,3.475
6,189,perceptual,0.1,0.2,competitor,target,1,2.627
6,190,perceptual,0.1,0.05,target,decoy,0,2.299
6,191,perceptual,0.03,0.2,target,competitor,0,3.108
6,192,perceptual,0.1,0.2,competitor,target,1,2.95
7,2,perceptual,0.03,0.2,competitor,competitor,0,3.815
7,3,numeric,0.1,0.05,target,target,1,9.144
7,4,perceptual,0.1,0.05,competitor,target,1,5.097
7,5,numeric,0.1,0.05,competitor,target,1,11.026
7,6,numeric,0.03,0.05,target,competitor,0,10.227
7,7,numeric,0.03,0.05,competitor,competitor,0,7.941
7,8,numeric,0.1,0.05,target,target,1,7.729
7,9,numeric,0.1,0.05,target,target,1,9.628
7,10,numeric,0.1,0.05,target,competitor,0,7.231
7,11,numeric,0.03,0.2,competitor,target,1,8.697
7,12,perceptual,0.1,0.05,competitor,target,1,11.521
7,13,numeric,0.1,0.2,competitor,target,1,5.229
7,14,numeric,0.03,0.2,competitor,target,1,7.952
7,15,numeric,0.03,0.2,competitor,target,1,6.11
7,16,perceptual,0.1,0.2,competitor,target,1,7.074
7,17,numeric,0.03,0.2,competitor,target,1,14.121
7,18,numeric,0.03,0.2,target,competitor,0,7.471
7,19,numeric,0.1,0.05,target,target,1,9.534
7,20,perceptual,0.1,0.05,competitor,target,1,4.467
7,21,numeric,0.03,0.05,target,competitor,0,9.542
7,22,numeric,0.1,0.05,target,competitor,0,16.065
7,23,perceptual,0.03,0.2,competitor,competitor,0,4.796
7,24,perceptual,0.03,0.05,target,decoy,0,4.365
7,25,perceptual,0.1,0.05,competitor,target,1,6.714
7,26,perceptual,0.03,0.05,target,target,1,6.55
7,27,perceptual,0.03,0.2,target,target,1,6.188
7,28,numeric,0.03,0.05,target,target,1,7.404
7,29,perceptual,0.03,0.2,target,competitor,0,4.869
7,30,numeric,0.03,0.05,competitor,target,1,17.003
7,31,perceptual,0.1,0.2,target,competitor,0,4.887
7,32,perceptual,0.03,0.05,target,decoy,0,11.864
7,33,perceptual,0.03,0.2,competitor,competitor,0,3.97
7,34,perceptual,0.03,0.2,competitor,competitor,0,3.565
7,35,numeric,0.03,0.05,target,target,1,4.263
7,36,perceptual,0.03,0.05,target,target,1,6.467
7,37,perceptual,0.03,0.2,competitor,target,1,6.372
7,38,perceptual,0.03,0.05,target,competitor,0,5.893
7,39,perceptual,0.03,0.2,competitor,target,1,4.932
7,40,perceptual,0.03,0.2,target,target,1,13.241
7,41,perceptual,0.1,0.05,target,decoy,0,7.172
7,42,perceptual,0.03,0.05,target,target,1,6.801
7,43,numeric,0.1,0.05,competitor,competitor,0,13.397
7,44,numeric,0.1,0.2,target,target,1,10.226
7,45,numeric,0.03,0.05,competitor,target,1,13.755
7,46,perceptual,0.1,0.2,target,target,1,4.558
7,47,numeric,0.1,0.2,competitor,target,1,6.691
7,48,perceptual,0.1,0.05,target,target,1,6.978
7,49,perceptual,0.1,0.05,competitor,decoy,0,5.262
7,50,perceptual,0.03,0.05,target,target,1,4.276
7,51,perceptual,0.03,0.2,target,target,1,3.295
7,52,perceptual,0.03,0.2,target,competitor,0,2.67
7,53,numeric,0.03,0.2,target,target,1,8.808
7,54,perceptual,0.03,0.05,competitor,target,1,6.334
7,55,numeric,0.1,0.2,target,target,1,5.996
7,56,numeric,0.1,0.05,competitor,target,1,10.125
7,57,numeric,0.03,0.2,target,competitor,0,16.329
7,58,perceptual,0.1,0.2,competitor,target,1,3.785
7,59,perceptual,0.03,0.05,competitor,target,1,5.96
7,60,perceptual,0.1,0.2,target,competitor,0,11.998
7,61,numeric,0.03,0.2,target,target,1,13.189
7,62,numeric,0.1,0.2,target,target,1,13.185
7,63,perceptual,0.1,0.05,target,target,1,3.509
7,64,perceptual,0.1,0.05,competitor,target,1,6.933
7,65,numeric,0.1,0.05,target,target,1,10.679
7,66,perceptual,0.03,0.2,target,competitor,0,7.936
7,67,perceptual,0.03,0.05,competitor,target,1,4.198
7,68,numeric,0.1,0.2,target,target,1,11.259
7,69,numeric,0.03,0.05,target,target,1,10.821
7,70,perceptual,0.1,0.05,competitor,competitor,0,6.463
7,71,numeric,0.1,0.2,competitor,target,1,6.271
7,72,perceptual,0.1,0.05,target,target,1,5.639
7,73,perceptual,0.1,0.05,target,decoy,0,8.266
7,74,numeric,0.03,0.2,competitor,competitor,0,11.698
7,75,perceptual,0.03,0.2,target,competitor,0,5.106
7,76,perceptual,0.1,0.2,competitor,target,1,7.968
7,77,perceptual,0.1,0.2,target,competitor,0,7.156
7,78,numeric,0.1,0.2,target,target,1,8.403
7,79,numeric,0.03,0.05,competitor,competitor,0,10.095
7,80,numeric,0.1,0.05,competitor,target,1,10.058
7,81,numeric,0.03,0.05,target,target,1,8.634
7,82,numeric,0.03,0.05,target,competitor,0,13.393
7,83,perceptual,0.1,0.2,competitor,target,1,7.072
7,84,perceptual,0.03,0.2,target,target,1,5.516
7,85,perceptual,0.1,0.2,competitor,target,1,4.501
7,86,numeric,0.03,0.05,target,target,1,9.907
7,87,perceptual,0.1,0.2,competitor,competitor,0,6.891
7,88,numeric,0.1,0.2,target,target,1,11.886
7,89,numeric,0.03,0.05,competitor,target,1,12.879
7,90,numeric,0.03,0.2,competitor,competitor,0,6.935
7,91,numeric,0.1,0.05,competitor,target,1,4.174
7,92,numeric,0.03,0.2,competitor,competitor,0,5.869
7,93,perceptual,0.1,0.05,target,target,1,5.367
7,94,numeric,0.1,0.2,competitor,competitor,0,13.743
7,95,numeric,0.03,0.05,competitor,competitor,0,11.414
7,96,perceptual,0.1,0.05,target,target,1,3.714
7,97,numeric,0.03,0.05,competitor,target,1,11.739
7,98,perceptual,0.03,0.05,target,competitor,0,6.994
7,99,numeric,0.03,0.2,target,target,1,10.663
7,100,numeric,0.03,0.2,target,target,1,13.558
7,101,numeric,0.03,0.05,competitor,target,1,5.533
7,102,perceptual,0.03,0.2,competitor,target,1,4.26
7,103,perceptual,0.1,0.2,competitor,competitor,0,3.415
7,104,numeric,0.1,0.2,target,target,1,14.402
7,105,perceptual,0.1,0.05,target,decoy,0,6.222
7,106,numeric,0.1,0.05,target,target,1,17.343
7,107,perceptual,0.1,0.05,competitor,competitor,0,3.624
7,108,perceptual,0.03,0.05,competitor,decoy,0,3.885
7,109,numeric,0.1,0.2,target,target,1,13.296
7,110,perceptual,0.1,0.2,target,target,1,3.599
7,111,numeric,0.1,0.2,target,target,1,7.57
7,112,perceptual,0.1,0.2,target,competitor,0,2.683
7,113,numeric,0.03,0.05,competitor,target,1,7.197
7,114,numeric,0.1,0.05,target,competitor,0,4.984
7,115,perceptual,0.1,0.2,target,target,1,6.779
7,116,numeric,0.1,0.2,competitor,target,1,7.156
7,117,numeric,0.1,0.05,competitor,target,1,9.052
7,118,numeric,0.1,0.05,competitor,target,1,14.207
7,119,perceptual,0.03,0.05,competitor,target,1,5.201
7,120,numeric,0.1,0.2,target,competitor,0,13.493
7,121,numeric,0.03,0.2,target,target,1,13.276
7,122,numeric,0.03,0.2,competitor,target,1,8.818
7,123,perceptual,0.03,0.2,competitor,competitor,0,3.587
7,124,numeric,0.1,0.05,target,target,1,9.693
7,125,numeric,0.03,0.05,target,target,1,19.594
7,126,numeric,0.03,0.05,target,competitor,0,11.176
7,127,perceptual,0.1,0.2,target,target,1,4.865
7,128,numeric,0.03,0.05,competitor,competitor,0,8.037
7,129,numeric,0.1,0.05,competitor,target,1,15.327
7,130,numeric,0.1,0.2,target,competitor,0,13.94
7,131,perceptual,0.1,0.05,target,decoy,0,10.924
7,132,perceptual,0.1,0.2,competitor,competitor,0,4.114
7,133,numeric,0.03,0.05,competitor,competitor,0,4.882
7,134,perceptual,0.03,0.05,target,decoy,0,3.871
7,135,numeric,0.1,0.2,competitor,target,1,8.648
7,136,perceptual,0.1,0.05,competitor,target,1,8.943
7,137,perceptual,0.03,0.2,target,competitor,0,7.314
7,139,numeric,0.03,0.05,competitor,decoy,0,0.318
7,140,numeric,0.1,0.2,competitor,target,1,6.512
7,141,perceptual,0.03,0.2,target,target,1,7.659
7,142,perceptual,0.03,0.05,target,target,1,6.735
7,143,perceptual,0.03,0.2,competitor,competitor,0,7.592
7,144,perceptual,0.03,0.2,target,target,1,5.942
7,145,numeric,0.03,0.2,competitor,competitor,0,5.097
7,146,perceptual,0.1,0.05,target,target,1,3.65
7,147,perceptual,0.03,0.05,competitor,target,1,9.755
7,148,numeric,0.03,0.2,competitor,target,1,5.001
7,149,numeric,0.1,0.05,competitor,target,1,7.437
7,150,perceptual,0.1,0.05,competitor,target,1,4.319
7,151,perceptual,0.03,0.05,competitor,target,1,6.151
7,152,perceptual,0.1,0.2,target,target,1,8.413
7,153,perceptual,0.03,0.2,competitor,competitor,0,4.321
7,154,perceptual,0.1,0.2,competitor,target,1,4.943
7,155,numeric,0.03,0.2,target,competitor,0,8.144
7,156,perceptual,0.1,0.05,target,target,1,4.598
7,157,numeric,0.03,0.2,target,target,1,8.537
7,158,perceptual,0.1,0.2,target,target,1,4.283
7,159,numeric,0.1,0.2,competitor,competitor,0,6.026
7,160,numeric,0.03,0.2,target,target,1,5.732
7,161,numeric,0.1,0.2,target,target,1,8.879
7,162,numeric,0.1,0.05,competitor,competitor,0,6.901
7,163,perceptual,0.03,0.05,competitor,decoy,0,4.763
7,164,perceptual,0.03,0.05,competitor,target,1,3.545
7,165,perceptual,0.1,0.2,target,target,1,2.612
7,166,perceptual,0.03,0.05,competitor,decoy,0,6.817
7,167,numeric,0.1,0.2,competitor,target,1,4.868
7,168,perceptual,0.03,0.2,target,competitor,0,4.499
7,169,perceptual,0.1,0.05,competitor,target,1,7.924
7,170,numeric,0.1,0.2,competitor,competitor,0,10.267
7,171,numeric,0.1,0.05,competitor,competitor,0,8.138
7,172,numeric,0.03,0.2,target,target,1,9.629
7,173,numeric,0.1,0.2,competitor,target,1,10.085
7,174,perceptual,0.03,0.2,competitor,target,1,7.014
7,175,numeric,0.1,0.05,target,target,1,6.526
7,176,perceptual,0.03,0.05,competitor,target,1,7.342
7,177,numeric,0.03,0.05,target,competitor,0,4.779
7,178,perceptual,0.1,0.2,competitor,target,1,2.717
7,179,perceptual,0.1,0.2,target,target,1,5.57
7,180,perceptual,0.03,0.2,competitor,competitor,0,2.816
7,181,numeric,0.03,0.2,competitor,competitor,0,7.542
7,182,numeric,0.1,0.05,competitor,target,1,12.798
7,183,perceptual,0.03,0.05,competitor,decoy,0,2.623
7,184,numeric,0.1,0.05,target,decoy,0,0.212
7,185,perceptual,0.1,0.05,competitor,target,1,2.714
7,186,perceptual,0.1,0.2,competitor,target,1,3.329
7,187,perceptual,0.03,0.05,target,decoy,0,5.019
7,188,numeric,0.03,0.2,target,target,1,8.153
7,189,numeric,0.03,0.2,competitor,competitor,0,10.117
7,190,numeric,0.1,0.2,competitor,target,1,10.05
7,191,perceptual,0.1,0.2,competitor,competitor,0,6.151
7,192,perceptual,0.1,0.05,target,target,1,3.287
8,2,perceptual,0.1,0.2,competitor,target,1,0.339
8,3,numeric,0.1,0.2,competitor,target,1,9.461
8,4,numeric,0.03,0.05,target,competitor,0,1.883
8,5,numeric,0.03,0.05,target,target,1,2.027
8,6,perceptual,0.03,0.05,target,competitor,0,1.596
8,7,perceptual,0.03,0.05,target,decoy,0,1.548
8,8,numeric,0.03,0.2,competitor,competitor,0,1.325
8,9,numeric,0.03,0.2,competitor,target,1,12.026
8,10,numeric,0.03,0.05,competitor,competitor,0,2.753
8,11,numeric,0.03,0.05,target,target,1,13.112
8,12,numeric,0.03,0.05,target,competitor,0,7.923
8,13,numeric,0.1,0.2,competitor,competitor,0,9.229
8,14,perceptual,0.03,0.2,target,target,1,7.24
8,15,perceptual,0.03,0.2,target,target,1,11.123
8,16,perceptual,0.03,0.2,competitor,target,1,7.56
8,17,numeric,0.03,0.2,competitor,competitor,0,5.624
8,18,perceptual,0.03,0.2,target,target,1,10.055
8,19,numeric,0.1,0.05,target,target,1,12.393
8,20,numeric,0.03,0.05,target,competitor,0,12.092
8,21,perceptual,0.03,0.2,competitor,competitor,0,2.584
8,22,numeric,0.03,0.2,competitor,target,1,3.285
8,23,numeric,0.1,0.2,competitor,target,1,5.425
8,24,perceptual,0.1,0.2,target,competitor,0,3.028
8,25,perceptual,0.1,0.2,target,competitor,0,2.739
8,26,perceptual,0.03,0.05,target,decoy,0,5.941
8,27,numeric,0.03,0.05,target,target,1,3.928
8,28,perceptual,0.1,0.2,target,target,1,5.606
8,29,numeric,0.03,0.05,competitor,competitor,0,11.285
8,30,perceptual,0.1,0.05,competitor,competitor,0,9.824
8,31,numeric,0.03,0.2,target,target,1,11.256
8,32,numeric,0.1,0.2,competitor,decoy,0,12.631
8,33,perceptual,0.03,0.05,competitor,target,1,7.461
8,34,perceptual,0.03,0.2,competitor,target,1,9.98
8,35,perceptual,0.1,0.05,target,decoy,0,6.205
8,36,numeric,0.1,0.2,competitor,target,1,2.764
8,37,perceptual,0.1,0.2,target,target,1,7.711
8,38,numeric,0.03,0.2,target,competitor,0,9.93
8,39,perceptual,0.1,0.05,competitor,target,1,7.424
8,40,numeric,0.03,0.2,target,competitor,0,4.101
8,41,numeric,0.03,0.2,target,target,1,10.343
8,42,numeric,0.1,0.05,competitor,decoy,0,5.838
8,43,perceptual,0.1,0.2,competitor,decoy,0,4.346
8,44,perceptual,0.1,0.2,competitor,target,1,6.585
8,45,perceptual,0.1,0.2,competitor,target,1,3.042
8,46,perceptual,0.03,0.2,target,target,1,3.258
8,47,numeric,0.1,0.05,competitor,target,1,6.302
8,48,perceptual,0.1,0.05,competitor,target,1,2.171
8,49,numeric,0.1,0.2,competitor,target,1,2.862
8,50,numeric,0.1,0.2,target,decoy,0,1.316
8,51,numeric,0.1,0.2,competitor,competitor,0,1.435
8,52,numeric,0.03,0.05,competitor,target,1,2.793
8,53,perceptual,0.03,0.05,target,target,1,2.504
8,54,numeric,0.03,0.2,target,decoy,0,5.444
8,55,perceptual,0.1,0.2,competitor,target,1,4.721
8,56,perceptual,0.03,0.2,competitor,target,1,2.263
8,57,numeric,0.1,0.05,target,target,1,6.158
8,58,numeric,0.1,0.05,target,target,1,8.811
8,59,numeric,0.03,0.05,competitor,competitor,0,8.566
8,60,perceptual,0.03,0.05,competitor,target,1,6.254
8,61,perceptual,0.03,0.2,target,competitor,0,11.112
8,62,numeric,0.03,0.2,competitor,competitor,0,3.106
8,63,numeric,0.03,0.05,competitor,target,1,2.946
8,64,numeric,0.1,0.05,target,target,1,4.035
8,65,perceptual,0.03,0.05,competitor,target,1,5.114
8,66,numeric,0.03,0.2,competitor,decoy,0,5.672
8,67,numeric,0.1,0.05,target,target,1,10.644
8,68,numeric,0.1,0.2,competitor,decoy,0,2.799
8,69,numeric,0.03,0.2,competitor,decoy,0,1.714
8,70,perceptual,0.1,0.05,target,competitor,0,0.407
8,71,perceptual,0.03,0.2,target,competitor,0,5.195
8,72,numeric,0.1,0.2,target,target,1,4.395
8,73,numeric,0.1,0.2,competitor,decoy,0,7.473
8,74,perceptual,0.03,0.05,competitor,target,1,2.527
8,75,numeric,0.1,0.05,competitor,decoy,0,1.524
8,76,perceptual,0.1,0.05,target,decoy,0,3.486
8,77,numeric,0.03,0.2,target,competitor,0,11.043
8,78,perceptual,0.1,0.2,target,decoy,0,6.786
8,79,perceptual,0.03,0.05,competitor,competitor,0,5.789
8,80,perceptual,0.1,0.05,competitor,target,1,2.516
8,81,numeric,0.1,0.2,target,target,1,8.167
8,82,perceptual,0.1,0.05,competitor,target,1,5.37
8,83,numeric,0.1,0.2,target,target,1,9.638
8,84,perceptual,0.1,0.05,competitor,target,1,6.79
8,85,perceptual,0.03,0.2,competitor,competitor,0,1.252
8,86,perceptual,0.03,0.2,competitor,target,1,1.067
8,87,perceptual,0.03,0.2,target,decoy,0,1.034
8,88,perceptual,0.03,0.05,target,target,1,1.531
8,89,perceptual,0.1,0.2,competitor,decoy,0,1.234
8,90,numeric,0.03,0.2,target,decoy,0,1.327
8,91,numeric,0.1,0.2,target,competitor,0,4.054
8,92,perceptual,0.03,0.2,target,target,1,4.423
8,93,numeric,0.03,0.05,competitor,competitor,0,7.982
8,94,numeric,0.1,0.05,competitor,target,1,2.385
8,95,numeric,0.03,0.2,competitor,competitor,0,2.247
8,96,perceptual,0.1,0.2,target,competitor,0,0.09
8,97,numeric,0.03,0.2,target,competitor,0,5.822
8,98,numeric,0.1,0.05,target,target,1,6.135
8,99,perceptual,0.03,0.05,target,target,1,7.899
8,100,numeric,0.03,0.2,target,target,1,11.305
8,101,numeric,0.1,0.05,target,competitor,0,5.409
8,102,numeric,0.03,0.05,competitor,competitor,0,1.921
8,103,numeric,0.03,0.05,competitor,decoy,0,1.022
8,104,numeric,0.03,0.2,target,competitor,0,0.955
8,105,numeric,0.1,0.05,competitor,decoy,0,0.811
8,106,perceptual,0.03,0.2,competitor,target,1,3.835
8,107,perceptual,0.1,0.05,competitor,competitor,0,0.108
8,108,numeric,0.1,0.2,target,target,1,0.133
8,109,perceptual,0.1,0.05,target,target,1,0.034
8,110,numeric,0.1,0.05,competitor,target,1,0.042
8,111,perceptual,0.03,0.2,competitor,competitor,0,0.086
8,112,numeric,0.1,0.05,competitor,target,1,12.16
8,113,perceptual,0.03,0.05,target,competitor,0,6.709
8,114,perceptual,0.03,0.2,competitor,competitor,0,5.282
8,115,perceptual,0.03,0.2,competitor,decoy,0,3.306
8,116,numeric,0.1,0.2,target,target,1,4.871
8,117,numeric,0.1,0.05,competitor,decoy,0,3.596
8,118,perceptual,0.1,0.2,target,competitor,0,1.877
8,119,numeric,0.03,0.05,target,competitor,0,1.412
8,120,perceptual,0.1,0.05,target,decoy,0,8.191
8,121,numeric,0.03,0.05,target,target,1,11.411
8,122,perceptual,0.03,0.2,target,target,1,5.384
8,123,perceptual,0.1,0.2,target,competitor,0,4.417
8,124,perceptual,0.03,0.05,target,decoy,0,1.902
8,125,numeric,0.1,0.05,target,target,1,10.701
8,126,perceptual,0.03,0.05,competitor,competitor,0,3.196
8,127,perceptual,0.03,0.05,competitor,competitor,0,13.707
8,128,perceptual,0.1,0.2,target,target,1,1.297
8,129,perceptual,0.1,0.2,target,competitor,0,4.517
8,130,perceptual,0.03,0.05,target,target,1,2.389
8,131,perceptual,0.1,0.05,target,decoy,0,2.548
8,132,numeric,0.03,0.05,competitor,decoy,0,10.863
8,133,numeric,0.1,0.2,competitor,target,1,3.158
8,134,numeric,0.03,0.05,competitor,decoy,0,8.185
8,135,perceptual,0.03,0.05,competitor,target,1,2.916
8,136,perceptual,0.1,0.05,target,decoy,0,1.27
8,137,numeric,0.1,0.05,competitor,target,1,1.418
8,138,numeric,0.1,0.05,target,decoy,0,3.728
8,139,perceptual,0.03,0.2,competitor,target,1,4.246
8,140,perceptual,0.1,0.05,competitor,decoy,0,2.415
8,141,perceptual,0.1,0.2,competitor,competitor,0,2.29
8,142,numeric,0.03,0.05,target,target,1,5.203
8,143,numeric,0.1,0.2,target,target,1,2.648
8,144,perceptual,0.1,0.05,target,decoy,0,1.538
8,145,perceptual,0.03,0.2,target,target,1,6.569
8,146,numeric,0.1,0.2,competitor,target,1,6.286
8,147,perceptual,0.1,0.05,target,decoy,0,3.346
8,148,numeric,0.03,0.2,competitor,target,1,6.873
8,149,numeric,0.1,0.2,target,target,1,5.783
8,150,perceptual,0.03,0.05,competitor,decoy,0,3.635
8,151,numeric,0.03,0.2,competitor,competitor,0,6.956
8,152,perceptual,0.1,0.2,competitor,competitor,0,4.789
8,153,numeric,0.03,0.2,target,target,1,8.37
8,154,perceptual,0.1,0.05,competitor,target,1,3.096
8,155,numeric,0.1,0.2,target,competitor,0,6.281
8,156,numeric,0.03,0.2,target,decoy,0,3.911
8,157,numeric,0.03,0.2,competitor,target,1,5.638
8,158,perceptual,0.03,0.05,target,target,1,2.444
8,159,numeric,0.1,0.05,target,competitor,0,7.936
8,160,perceptual,0.03,0.2,target,competitor,0,2.161
8,161,perceptual,0.1,0.2,target,target,1,4.674
8,162,numeric,0.1,0.2,target,target,1,6.304
8,163,perceptual,0.03,0.05,competitor,competitor,0,3.143
8,164,perceptual,0.03,0.05,target,target,1,5.303
8,165,numeric,0.1,0.05,target,competitor,0,10.243
8,166,perceptual,0.1,0.2,competitor,target,1,4.569
8,167,perceptual,0.1,0.05,competitor,target,1,9.055
8,168,numeric,0.03,0.05,target,target,1,6.528
8,169,perceptual,0.1,0.2,target,target,1,5.057
8,170,perceptual,0.1,0.2,competitor,target,1,5.003
8,171,numeric,0.03,0.2,competitor,competitor,0,8.695
8,172,numeric,0.1,0.05,competitor,target,1,4.16
8,173,perceptual,0.1,0.05,target,target,1,2.92
8,174,numeric,0.1,0.05,target,target,1,8.825
8,175,perceptual,0.1,0.05,target,competitor,0,1.485
8,176,perceptual,0.03,0.05,competitor,decoy,0,1.894
8,177,perceptual,0.03,0.2,competitor,target,1,4.006
8,178,perceptual,0.1,0.2,competitor,competitor,0,4.001
8,179,perceptual,0.03,0.05,target,target,1,9.223
8,180,numeric,0.1,0.2,target,target,1,4.556
8,181,numeric,0.03,0.05,target,target,1,4.656
8,182,perceptual,0.1,0.2,competitor,competitor,0,2.253
8,183,numeric,0.03,0.05,competitor,competitor,0,5.137
8,184,numeric,0.1,0.05,competitor,target,1,9.91
8,185,numeric,0.03,0.05,target,competitor,0,7.66
8,186,perceptual,0.03,0.2,target,decoy,0,1.901
8,187,perceptual,0.1,0.05,competitor,competitor,0,1.99
8,188,numeric,0.1,0.2,competitor,decoy,0,4.095
8,189,perceptual,0.1,0.05,competitor,target,1,2.455
8,190,perceptual,0.03,0.05,competitor,target,1,2.037
8,191,perceptual,0.1,0.05,target,decoy,0,1.818
8,192,numeric,0.1,0.05,competitor,target,1,6.449
9,1,numeric,0.1,0.05,target,target,1,9.066
9,2,numeric,0.1,0.2,target,target,1,8.052
9,3,perceptual,0.1,0.2,target,target,1,6.634
9,4,numeric,0.1,0.05,competitor,target,1,8.712
9,5,perceptual,0.1,0.2,target,target,1,9.529
9,6,numeric,0.1,0.05,competitor,target,1,6.606
9,7,perceptual,0.03,0.2,competitor,target,1,7.893
9,8,numeric,0.03,0.2,competitor,competitor,0,4.961
9,9,numeric,0.03,0.05,target,competitor,0,9.601
9,10,numeric,0.1,0.05,competitor,target,1,5.177
9,11,perceptual,0.03,0.2,target,target,1,5.259
9,12,numeric,0.1,0.2,competitor,target,1,5.517
9,13,numeric,0.1,0.05,target,target,1,6.826
9,14,perceptual,0.1,0.05,target,target,1,8.557
9,15,numeric,0.1,0.2,competitor,target,1,9.718
9,16,perceptual,0.03,0.2,competitor,target,1,9.522
9,17,numeric,0.1,0.2,target,target,1,5.236
9,18,numeric,0.1,0.05,target,decoy,0,7.143
9,19,numeric,0.03,0.05,target,decoy,0,13.158
9,20,perceptual,0.1,0.05,competitor,target,1,7.813
9,21,numeric,0.03,0.05,target,competitor,0,8.389
9,22,numeric,0.03,0.05,competitor,target,1,4.965
9,23,numeric,0.03,0.2,competitor,target,1,8.608
9,24,perceptual,0.1,0.2,competitor,target,1,3.992
9,25,numeric,0.1,0.05,competitor,target,1,3.61
9,26,perceptual,0.03,0.05,competitor,competitor,0,5.668
9,27,perceptual,0.03,0.2,target,target,1,5.198
9,28,numeric,0.03,0.05,target,target,1,4.267
9,29,numeric,0.1,0.05,target,target,1,11.01
9,30,perceptual,0.1,0.05,target,target,1,3.045
9,31,perceptual,0.1,0.2,competitor,competitor,0,7.277
9,32,perceptual,0.1,0.2,target,competitor,0,5.111
9,33,perceptual,0.1,0.2,target,target,1,3.513
9,34,numeric,0.03,0.05,competitor,competitor,0,5.64
9,35,numeric,0.1,0.05,target,target,1,7.736
9,36,perceptual,0.1,0.05,target,target,1,9.604
9,37,numeric,0.1,0.2,target,target,1,8.095
9,38,numeric,0.1,0.05,target,competitor,0,11.833
9,39,numeric,0.03,0.05,target,target,1,7.656
9,40,numeric,0.1,0.05,target,target,1,6.051
9,41,perceptual,0.1,0.2,competitor,decoy,0,2.086
9,42,numeric,0.03,0.05,target,target,1,6.711
9,43,numeric,0.1,0.05,competitor,target,1,9.015
9,44,numeric,0.03,0.05,target,target,1,9.423
9,45,perceptual,0.1,0.05,competitor,target,1,8.19
9,46,numeric,0.03,0.2,competitor,decoy,0,10.998
9,47,numeric,0.1,0.05,target,target,1,5.673
9,48,numeric,0.03,0.05,competitor,target,1,11.31
9,49,numeric,0.1,0.05,target,competitor,0,6.806
9,50,perceptual,0.1,0.2,target,target,1,8.64
9,51,perceptual,0.1,0.05,competitor,target,1,11.949
9,52,perceptual,0.1,0.05,competitor,target,1,5.319
9,53,perceptual,0.1,0.2,target,target,1,4.514
9,54,perceptual,0.03,0.05,competitor,target,1,4.682
9,55,perceptual,0.03,0.05,target,target,1,14.711
9,56,numeric,0.03,0.05,target,target,1,9.529
9,57,perceptual,0.03,0.2,target,target,1,5.83
9,58,perceptual,0.03,0.05,competitor,competitor,0,10.191
9,59,numeric,0.03,0.2,target,target,1,8.006
9,60,perceptual,0.1,0.2,target,competitor,0,5.317
9,61,numeric,0.03,0.05,competitor,competitor,0,11.307
9,62,numeric,0.03,0.2,target,target,1,6.251
9,63,perceptual,0.03,0.05,competitor,target,1,6.838
9,64,numeric,0.03,0.05,competitor,target,1,12.217
9,65,perceptual,0.1,0.2,competitor,competitor,0,4.333
9,66,perceptual,0.1,0.05,target,competitor,0,5.006
9,67,numeric,0.1,0.2,competitor,competitor,0,6.429
9,68,perceptual,0.1,0.2,competitor,target,1,4.751
9,69,perceptual,0.1,0.05,target,competitor,0,6.607
9,70,perceptual,0.1,0.05,competitor,target,1,4.169
9,71,perceptual,0.1,0.05,target,target,1,4.505
9,72,perceptual,0.03,0.2,target,competitor,0,7.57
9,73,perceptual,0.1,0.05,competitor,target,1,4.682
9,74,perceptual,0.1,0.05,target,decoy,0,4.88
9,75,perceptual,0.03,0.05,target,target,1,4.987
9,76,numeric,0.1,0.2,competitor,target,1,6.296
9,77,perceptual,0.1,0.2,target,target,1,6.638
9,78,perceptual,0.03,0.2,competitor,target,1,6.118
9,79,numeric,0.03,0.05,target,target,1,7.289
9,80,perceptual,0.1,0.05,target,target,1,8.874
9,81,perceptual,0.1,0.2,target,target,1,5.828
9,82,numeric,0.1,0.2,target,target,1,7.207
9,83,perceptual,0.03,0.05,competitor,target,1,5.229
9,84,numeric,0.03,0.05,competitor,competitor,0,7.469
9,85,perceptual,0.03,0.05,competitor,target,1,4.511
9,86,perceptual,0.03,0.05,target,competitor,0,5.418
9,87,numeric,0.03,0.05,competitor,competitor,0,5.868
9,88,perceptual,0.1,0.2,competitor,target,1,8.154
9,89,perceptual,0.03,0.2,target,competitor,0,8.148
9,90,perceptual,0.03,0.05,competitor,target,1,10.764
9,91,numeric,0.03,0.2,competitor,competitor,0,5.284
9,92,numeric,0.1,0.2,competitor,target,1,6.768
9,93,perceptual,0.03,0.05,target,target,1,6.493
9,94,perceptual,0.1,0.05,target,target,1,11.907
9,95,numeric,0.03,0.2,target,target,1,5.745
9,96,numeric,0.03,0.2,target,competitor,0,13.609
9,97,numeric,0.03,0.05,competitor,competitor,0,10.076
9,98,numeric,0.03,0.2,competitor,competitor,0,7.415
9,99,perceptual,0.03,0.2,competitor,competitor,0,4.548
9,100,numeric,0.1,0.2,target,target,1,4.709
9,101,numeric,0.03,0.2,competitor,target,1,5.489
9,102,numeric,0.1,0.2,target,target,1,5.598
9,103,numeric,0.03,0.2,target,competitor,0,11.97
9,104,numeric,0.03,0.05,competitor,target,1,4.397
9,105,perceptual,0.1,0.05,competitor,target,1,4.382
9,106,numeric,0.03,0.2,competitor,target,1,6.021
9,107,perceptual,0.1,0.2,competitor,target,1,3.963
9,108,numeric,0.1,0.2,competitor,target,1,7.064
9,109,numeric,0.1,0.05,competitor,target,1,4.749
9,110,perceptual,0.03,0.2,competitor,target,1,3.67
9,111,perceptual,0.03,0.2,target,target,1,14.276
9,112,perceptual,0.03,0.05,competitor,target,1,3.195
9,113,numeric,0.1,0.05,target,target,1,5.645
9,114,numeric,0.03,0.2,competitor,target,1,3.908
9,115,perceptual,0.1,0.2,competitor,target,1,4.952
9,116,perceptual,0.03,0.2,target,target,1,5.626
9,117,numeric,0.1,0.2,competitor,target,1,6.345
9,118,numeric,0.1,0.2,competitor,competitor,0,4.325
9,119,perceptual,0.03,0.2,target,competitor,0,2.9
9,120,perceptual,0.03,0.05,target,competitor,0,7.52
9,121,perceptual,0.1,0.2,target,target,1,5.846
9,122,numeric,0.1,0.05,competitor,competitor,0,7.807
9,123,perceptual,0.03,0.2,target,target,1,4.219
9,124,perceptual,0.03,0.05,target,decoy,0,7.642
9,125,perceptual,0.1,0.2,competitor,target,1,7.476
9,126,numeric,0.03,0.2,target,competitor,0,7.789
9,127,perceptual,0.03,0.2,competitor,target,1,3.504
9,128,perceptual,0.03,0.05,competitor,target,1,4.946
9,129,numeric,0.1,0.05,competitor,target,1,5.41
9,130,numeric,0.1,0.2,competitor,target,1,6.134
9,131,numeric,0.03,0.05,competitor,decoy,0,4.549
9,132,numeric,0.03,0.05,target,competitor,0,4.599
9,133,numeric,0.1,0.05,target,target,1,5.684
9,134,perceptual,0.03,0.05,target,competitor,0,5.247
9,135,perceptual,0.03,0.2,target,competitor,0,4.815
9,136,perceptual,0.03,0.05,target,target,1,7.555
9,137,perceptual,0.03,0.05,competitor,competitor,0,3.245
9,138,perceptual,0.03,0.05,target,target,1,4.865
9,139,numeric,0.1,0.2,target,target,1,4.828
9,140,perceptual,0.03,0.2,competitor,competitor,0,6.602
9,141,perceptual,0.03,0.2,competitor,competitor,0,7.565
9,142,perceptual,0.1,0.05,target,decoy,0,7.36
9,143,numeric,0.1,0.05,competitor,competitor,0,4.524
9,144,numeric,0.1,0.2,competitor,target,1,3.726
9,145,perceptual,0.1,0.2,competitor,target,1,3.147
9,146,perceptual,0.1,0.05,competitor,target,1,3.531
9,147,numeric,0.03,0.2,competitor,competitor,0,4.279
9,148,perceptual,0.1,0.05,target,target,1,4.152
9,149,perceptual,0.03,0.05,target,target,1,4.422
9,150,perceptual,0.03,0.2,competitor,competitor,0,3.608
9,151,perceptual,0.03,0.2,competitor,target,1,4.549
9,152,numeric,0.1,0.2,target,competitor,0,3.376
9,153,numeric,0.03,0.2,target,competitor,0,4.224
9,154,numeric,0.03,0.2,target,competitor,0,6.22
9,155,numeric,0.1,0.05,target,competitor,0,6.53
9,156,perceptual,0.03,0.05,target,competitor,0,4.511
9,157,perceptual,0.03,0.05,competitor,competitor,0,8.506
9,158,numeric,0.03,0.05,competitor,target,1,8.609
9,159,numeric,0.03,0.05,target,target,1,4.353
9,160,numeric,0.03,0.2,target,competitor,0,3.47
9,161,numeric,0.1,0.05,competitor,target,1,4.539
9,162,numeric,0.03,0.2,competitor,target,1,4.346
9,163,numeric,0.03,0.2,target,target,1,6.571
9,164,numeric,0.1,0.2,competitor,target,1,3.02
9,165,numeric,0.1,0.2,target,competitor,0,3.488
9,166,perceptual,0.03,0.2,target,target,1,5.916
9,167,perceptual,0.1,0.05,target,competitor,0,3.64
9,168,numeric,0.1,0.2,target,target,1,6.262
9,169,perceptual,0.03,0.2,competitor,competitor,0,4.483
9,170,perceptual,0.03,0.2,competitor,competitor,0,5.397
9,171,perceptual,0.1,0.2,target,target,1,3.363
9,172,numeric,0.1,0.05,competitor,target,1,5.167
9,173,perceptual,0.1,0.2,target,target,1,4.624
9,174,perceptual,0.1,0.05,competitor,target,1,5.321
9,175,numeric,0.03,0.05,target,competitor,0,8.788
9,176,perceptual,0.03,0.05,target,competitor,0,4.434
9,177,perceptual,0.1,0.05,competitor,target,1,3.984
9,178,numeric,0.1,0.05,competitor,competitor,0,6.445
9,179,perceptual,0.1,0.2,competitor,target,1,3.513
9,180,perceptual,0.1,0.05,competitor,competitor,0,7.017
9,181,perceptual,0.03,0.05,competitor,target,1,3.512
9,182,perceptual,0.03,0.2,target,competitor,0,3.511
9,183,numeric,0.03,0.05,competitor,decoy,0,6.53
9,184,numeric,0.03,0.2,competitor,target,1,7.428
9,185,numeric,0.1,0.2,target,target,1,5.248
9,186,numeric,0.1,0.2,target,decoy,0,5.097
9,187,perceptual,0.1,0.05,competitor,competitor,0,0.096
9,188,numeric,0.03,0.2,target,competitor,0,3.946
9,189,numeric,0.1,0.2,competitor,competitor,0,4.885
9,190,numeric,0.03,0.2,competitor,target,1,2.866
9,191,numeric,0.03,0.2,target,competitor,0,7.947
9,192,perceptual,0.1,0.2,competitor,target,1,4.107
10,1,perceptual,0.03,0.2,competitor,target,1,6.733
10,2,perceptual,0.03,0.2,competitor,target,1,6.033
10,3,perceptual,0.03,0.05,target,decoy,0,6.59
10,4,numeric,0.03,0.05,competitor,target,1,6.504
10,5,numeric,0.1,0.2,target,target,1,7.748
10,6,perceptual,0.03,0.2,target,target,1,6.931
10,7,perceptual,0.1,0.2,target,target,1,5.887
10,8,numeric,0.1,0.05,target,decoy,0,8.507
10,9,numeric,0.03,0.2,competitor,competitor,0,7.387
10,10,perceptual,0.03,0.2,target,competitor,0,0.181
10,11,perceptual,0.1,0.2,competitor,target,1,5.534
10,12,perceptual,0.03,0.2,competitor,target,1,6.522
10,13,numeric,0.1,0.2,competitor,target,1,6.365
10,14,numeric,0.1,0.05,target,target,1,8.095
10,15,perceptual,0.03,0.2,competitor,target,1,7.706
10,16,numeric,0.1,0.2,target,target,1,7.521
10,17,numeric,0.1,0.2,competitor,target,1,5.826
10,18,perceptual,0.1,0.2,competitor,target,1,4.003
10,19,perceptual,0.1,0.05,target,target,1,9.136
10,20,perceptual,0.03,0.05,competitor,target,1,5.366
10,21,perceptual,0.1,0.05,competitor,target,1,6.988
10,22,numeric,0.1,0.2,competitor,target,1,6.949
10,23,perceptual,0.1,0.2,competitor,target,1,4.199
10,24,perceptual,0.1,0.2,competitor,target,1,4.421
10,25,numeric,0.03,0.2,competitor,target,1,5.613
10,26,numeric,0.1,0.05,competitor,competitor,0,5.926
10,27,numeric,0.03,0.2,target,target,1,5.636
10,28,numeric,0.03,0.05,competitor,competitor,0,8.596
10,29,perceptual,0.03,0.2,competitor,target,1,3.877
10,30,numeric,0.1,0.2,competitor,target,1,5.301
10,31,numeric,0.1,0.05,competitor,decoy,0,7.124
10,32,perceptual,0.1,0.05,competitor,target,1,3.469
10,33,perceptual,0.03,0.2,competitor,target,1,2.389
10,34,perceptual,0.1,0.05,target,target,1,5.511
10,35,numeric,0.03,0.2,target,target,1,7.896
10,36,perceptual,0.1,0.2,competitor,target,1,6.285
10,37,numeric,0.1,0.05,competitor,target,1,6.918
10,38,perceptual,0.1,0.05,target,decoy,0,5.257
10,39,perceptual,0.1,0.05,target,target,1,6.189
10,40,perceptual,0.03,0.05,target,competitor,0,6.652
10,41,perceptual,0.03,0.2,target,competitor,0,5.615
10,42,perceptual,0.03,0.05,target,target,1,7.362
10,43,numeric,0.03,0.05,target,target,1,5.197
10,44,numeric,0.1,0.05,target,target,1,5.134
10,45,numeric,0.03,0.05,competitor,competitor,0,6.066
10,46,perceptual,0.1,0.05,target,decoy,0,2.788
10,47,perceptual,0.03,0.05,target,competitor,0,5.135
10,48,perceptual,0.1,0.2,target,target,1,4.27
10,49,perceptual,0.03,0.05,competitor,target,1,7.562
10,50,numeric,0.1,0.05,target,target,1,6.532
10,51,perceptual,0.1,0.05,competitor,target,1,5.012
10,52,numeric,0.03,0.05,competitor,target,1,5.399
10,53,perceptual,0.03,0.05,target,target,1,5.993
10,54,perceptual,0.03,0.05,target,competitor,0,6.848
10,55,numeric,0.1,0.2,target,target,1,6.706
10,56,perceptual,0.03,0.05,competitor,decoy,0,5.822
10,57,perceptual,0.03,0.2,target,target,1,8.083
10,58,numeric,0.1,0.05,target,target,1,5.567
10,59,numeric,0.1,0.2,target,target,1,5.722
10,60,numeric,0.1,0.2,target,target,1,6.447
10,61,perceptual,0.1,0.2,competitor,target,1,5.816
10,62,perceptual,0.03,0.05,competitor,competitor,0,6.33
10,63,numeric,0.03,0.05,competitor,competitor,0,6.898
10,64,numeric,0.03,0.05,competitor,competitor,0,10.048
10,65,perceptual,0.03,0.2,target,competitor,0,3.128
10,66,perceptual,0.03,0.05,competitor,competitor,0,8.489
10,67,numeric,0.03,0.05,competitor,decoy,0,1.266
10,68,numeric,0.03,0.2,target,target,1,8.566
10,69,perceptual,0.1,0.2,competitor,target,1,4.778
10,70,perceptual,0.1,0.05,competitor,target,1,4.201
10,71,perceptual,0.1,0.2,target,target,1,4.596
10,72,numeric,0.1,0.2,target,target,1,5.414
10,73,numeric,0.1,0.2,target,target,1,7.594
10,74,numeric,0.03,0.2,competitor,competitor,0,6.261
10,75,numeric,0.03,0.2,target,target,1,7.078
10,76,numeric,0.03,0.05,competitor,target,1,5.49
10,77,numeric,0.03,0.05,target,competitor,0,6.864
10,78,numeric,0.03,0.05,target,target,1,6.783
10,79,perceptual,0.1,0.2,competitor,competitor,0,6.882
10,80,numeric,0.1,0.05,competitor,target,1,9.456
10,81,perceptual,0.1,0.2,competitor,target,1,6.319
10,82,perceptual,0.1,0.05,target,target,1,4.983
10,83,numeric,0.1,0.05,target,target,1,6.189
10,84,perceptual,0.03,0.05,target,target,1,3.573
10,85,perceptual,0.1,0.05,competitor,target,1,4.975
10,86,numeric,0.1,0.05,competitor,competitor,0,7.471
10,87,perceptual,0.1,0.2,target,target,1,5.564
10,88,numeric,0.03,0.2,competitor,decoy,0,5.694
10,89,perceptual,0.03,0.05,competitor,competitor,0,3.95
10,90,numeric,0.1,0.05,target,target,1,10.931
10,91,numeric,0.1,0.2,competitor,competitor,0,9.337
10,92,perceptual,0.03,0.05,target,decoy,0,3.868
10,93,numeric,0.1,0.05,competitor,target,1,6.238
10,94,numeric,0.03,0.05,target,target,1,4.849
10,95,numeric,0.1,0.2,target,target,1,6.617
10,96,numeric,0.1,0.05,target,target,1,6.639
10,97,perceptual,0.03,0.2,target,target,1,6.877
10,98,numeric,0.03,0.2,target,target,1,6.482
10,99,numeric,0.03,0.2,competitor,target,1,5.933
10,100,numeric,0.1,0.05,target,competitor,0,5.547
10,101,numeric,0.03,0.2,competitor,competitor,0,6.948
10,102,numeric,0.03,0.05,competitor,competitor,0,6.534
10,103,perceptual,0.1,0.05,competitor,target,1,4.453
10,104,numeric,0.03,0.05,target,target,1,5.767
10,105,perceptual,0.03,0.05,target,decoy,0,3.787
10,106,perceptual,0.03,0.05,target,competitor,0,4.701
10,107,numeric,0.03,0.2,target,competitor,0,6.502
10,108,numeric,0.1,0.05,competitor,competitor,0,8.75
10,109,perceptual,0.1,0.2,target,target,1,4.366
10,110,numeric,0.03,0.05,competitor,competitor,0,5.832
10,111,perceptual,0.1,0.2,target,target,1,3.618
10,112,numeric,0.1,0.2,target,decoy,0,7.532
10,113,perceptual,0.1,0.05,target,target,1,4.124
10,114,numeric,0.03,0.2,target,target,1,7.223
10,115,numeric,0.03,0.05,target,competitor,0,6.533
10,116,numeric,0.03,0.05,competitor,competitor,0,6.167
10,117,numeric,0.03,0.2,target,competitor,0,5.157
10,118,perceptual,0.03,0.2,target,target,1,5.573
10,119,numeric,0.1,0.05,target,target,1,7.082
10,120,perceptual,0.03,0.2,target,competitor,0,4.912
10,121,perceptual,0.03,0.05,competitor,target,1,6.043
10,122,numeric,0.03,0.2,competitor,competitor,0,7.264
10,123,perceptual,0.1,0.2,competitor,competitor,0,4.143
10,124,numeric,0.1,0.05,target,decoy,0,6.528
10,125,perceptual,0.1,0.05,competitor,target,1,4.436
10,126,perceptual,0.1,0.05,competitor,competitor,0,3.35
10,127,numeric,0.1,0.05,competitor,target,1,7.765
10,128,perceptual,0.1,0.05,target,decoy,0,3.83
10,129,perceptual,0.1,0.2,target,target,1,4.805
10,130,numeric,0.1,0.2,target,target,1,5.535
10,131,perceptual,0.1,0.2,target,target,1,5.199
10,132,numeric,0.03,0.05,target,decoy,0,7.317
10,133,numeric,0.1,0.05,competitor,competitor,0,5.684
10,134,perceptual,0.1,0.2,target,target,1,8.446
10,135,numeric,0.03,0.2,target,target,1,4.298
10,136,perceptual,0.03,0.2,competitor,decoy,0,9.948
10,137,numeric,0.1,0.2,competitor,target,1,5.098
10,138,perceptual,0.03,0.05,competitor,competitor,0,3.501
10,139,perceptual,0.03,0.05,target,target,1,3.932
10,140,perceptual,0.03,0.05,competitor,competitor,0,4.3
10,141,numeric,0.1,0.05,competitor,competitor,0,7.353
10,142,perceptual,0.1,0.2,target,target,1,3.583
10,143,perceptual,0.1,0.05,competitor,competitor,0,5.852
10,144,perceptual,0.1,0.05,target,target,1,5.825
10,145,numeric,0.1,0.2,competitor,competitor,0,7.189
10,146,numeric,0.1,0.2,competitor,target,1,5.999
10,147,numeric,0.1,0.05,target,target,1,5.799
10,148,numeric,0.03,0.2,competitor,competitor,0,7.57
10,149,numeric,0.03,0.2,competitor,competitor,0,11.538
10,150,numeric,0.03,0.2,competitor,competitor,0,4.565
10,151,perceptual,0.03,0.2,target,competitor,0,3.318
10,152,perceptual,0.1,0.05,target,decoy,0,1.766
10,153,perceptual,0.1,0.05,competitor,decoy,0,4.834
10,154,perceptual,0.1,0.05,competitor,target,1,3.868
10,155,perceptual,0.03,0.2,competitor,competitor,0,3.122
10,156,perceptual,0.1,0.2,target,target,1,4.218
10,157,numeric,0.1,0.2,target,target,1,7.317
10,158,numeric,0.03,0.05,target,target,1,6.418
10,159,numeric,0.1,0.2,competitor,target,1,6.934
10,160,numeric,0.1,0.2,competitor,target,1,7.105
10,161,perceptual,0.03,0.05,competitor,target,1,3.193
10,162,perceptual,0.03,0.2,competitor,target,1,4.856
10,163,numeric,0.03,0.05,target,target,1,9.126
10,164,perceptual,0.03,0.2,target,target,1,6.353
10,165,numeric,0.1,0.2,competitor,competitor,0,9.915
10,166,numeric,0.03,0.2,competitor,target,1,7.979
10,167,perceptual,0.1,0.2,competitor,target,1,7.604
10,168,numeric,0.03,0.2,target,competitor,0,12.873
10,169,perceptual,0.03,0.2,target,target,1,6.798
10,170,numeric,0.1,0.2,target,target,1,10.817
10,171,perceptual,0.1,0.05,target,target,1,7.987
10,172,numeric,0.03,0.2,target,target,1,5.514
10,173,numeric,0.03,0.05,target,target,1,0.983
10,174,numeric,0.1,0.05,competitor,target,1,7.721
10,175,perceptual,0.1,0.05,competitor,target,1,4.857
10,176,perceptual,0.03,0.2,competitor,competitor,0,6.518
10,177,perceptual,0.1,0.2,competitor,target,1,4.235
10,178,numeric,0.1,0.05,competitor,target,1,7.039
10,179,perceptual,0.1,0.05,target,target,1,3.622
10,180,perceptual,0.03,0.2,competitor,target,1,3.305
10,181,numeric,0.03,0.05,target,target,1,9.687
10,182,perceptual,0.03,0.05,target,competitor,0,5.77
10,183,perceptual,0.03,0.2,competitor,target,1,4.988
10,184,numeric,0.03,0.2,target,target,1,6.089
10,185,numeric,0.03,0.2,competitor,competitor,0,8.616
10,186,numeric,0.1,0.2,competitor,decoy,0,5.566
10,187,numeric,0.03,0.05,competitor,target,1,7.855
10,188,perceptual,0.03,0.05,competitor,competitor,0,4.422
10,189,numeric,0.03,0.05,target,competitor,0,4.069
10,190,perceptual,0.03,0.2,target,target,1,5.088
10,191,perceptual,0.1,0.2,target,decoy,0,4.32
10,192,perceptual,0.03,0.05,competitor,target,1,4.536
11,1,perceptual,0.1,0.2,competitor,competitor,0,6.533
11,2,perceptual,0.03,0.05,target,target,1,10.012
11,3,numeric,0.1,0.05,competitor,target,1,11.111
11,4,perceptual,0.03,0.2,competitor,competitor,0,9.708
11,5,perceptual,0.03,0.2,target,competitor,0,8.178
11,6,perceptual,0.1,0.2,competitor,decoy,0,6.139
11,7,numeric,0.1,0.2,target,target,1,10.563
11,8,numeric,0.1,0.2,competitor,decoy,0,8.777
11,9,perceptual,0.1,0.2,competitor,competitor,0,4.591
11,10,numeric,0.03,0.05,target,target,1,11.706
11,11,perceptual,0.03,0.2,competitor,target,1,8.154
11,12,perceptual,0.1,0.05,competitor,target,1,3.395
11,13,numeric,0.03,0.2,target,target,1,6.6
11,14,numeric,0.1,0.05,target,target,1,5.635
11,15,perceptual,0.03,0.05,target,decoy,0,4.554
11,16,perceptual,0.03,0.05,target,decoy,0,4.692
11,17,perceptual,0.1,0.2,target,competitor,0,3.596
11,18,perceptual,0.03,0.05,competitor,target,1,4.476
11,19,numeric,0.03,0.2,competitor,competitor,0,8.175
11,20,perceptual,0.03,0.2,target,target,1,6.134
11,21,perceptual,0.03,0.2,competitor,competitor,0,5.263
11,22,perceptual,0.1,0.05,competitor,target,1,4.076
11,23,perceptual,0.1,0.05,target,target,1,9.305
11,24,numeric,0.03,0.05,target,competitor,0,6.243
11,25,perceptual,0.03,0.05,competitor,competitor,0,3.519
11,26,perceptual,0.1,0.2,target,target,1,7.76
11,27,perceptual,0.1,0.05,target,decoy,0,4.851
11,28,numeric,0.03,0.2,target,competitor,0,9.219
11,29,perceptual,0.03,0.2,target,decoy,0,4.446
11,30,perceptual,0.03,0.2,target,decoy,0,5.705
11,31,numeric,0.1,0.05,target,target,1,9.793
11,32,numeric,0.1,0.05,competitor,competitor,0,3.558
11,33,perceptual,0.1,0.2,target,target,1,4.751
11,34,perceptual,0.03,0.2,competitor,target,1,3.138
11,35,numeric,0.1,0.05,competitor,target,1,12.016
11,36,perceptual,0.1,0.05,competitor,target,1,2.992
11,37,perceptual,0.1,0.2,target,decoy,0,3.959
11,38,numeric,0.03,0.05,competitor,target,1,6.992
11,39,perceptual,0.03,0.05,competitor,target,1,8.766
11,40,perceptual,0.03,0.2,competitor,competitor,0,4.114
11,41,numeric,0.03,0.05,competitor,target,1,12.173
11,42,perceptual,0.1,0.2,target,target,1,3.366
11,43,numeric,0.03,0.2,target,decoy,0,6.447
11,44,numeric,0.1,0.2,competitor,competitor,0,7.012
11,45,perceptual,0.03,0.05,competitor,competitor,0,6.005
11,46,numeric,0.1,0.2,target,competitor,0,4
11,47,perceptual,0.03,0.05,target,competitor,0,3.826
11,48,numeric,0.1,0.05,target,target,1,4.568
11,49,perceptual,0.1,0.05,target,competitor,0,4.312
11,50,numeric,0.1,0.05,competitor,target,1,5.212
11,51,numeric,0.1,0.2,competitor,target,1,6.848
11,52,perceptual,0.1,0.2,target,target,1,5.133
11,53,perceptual,0.1,0.05,competitor,target,1,3.305
11,54,perceptual,0.1,0.05,target,competitor,0,4.367
11,55,perceptual,0.03,0.2,competitor,target,1,2.982
11,56,perceptual,0.1,0.05,target,competitor,0,2.571
11,57,numeric,0.1,0.05,target,competitor,0,4.769
11,58,perceptual,0.1,0.05,competitor,competitor,0,2.122
11,59,numeric,0.03,0.2,target,decoy,0,3.342
11,60,numeric,0.03,0.2,competitor,target,1,3.562
11,61,numeric,0.03,0.05,competitor,competitor,0,8.768
11,62,numeric,0.1,0.05,target,decoy,0,6.04
11,63,numeric,0.1,0.05,target,target,1,9.331
11,64,perceptual,0.1,0.2,target,target,1,7.003
11,65,perceptual,0.1,0.2,competitor,target,1,2.954
11,66,perceptual,0.03,0.05,target,target,1,4.069
11,67,numeric,0.1,0.05,target,target,1,0.03
11,68,perceptual,0.1,0.2,competitor,decoy,0,2.283
11,69,perceptual,0.03,0.05,target,decoy,0,1.52
11,70,numeric,0.03,0.05,target,decoy,0,3.597
11,71,perceptual,0.03,0.2,target,competitor,0,3.412
11,72,perceptual,0.03,0.2,competitor,competitor,0,4.362
11,73,perceptual,0.1,0.2,target,target,1,2.59
11,74,perceptual,0.1,0.05,competitor,target,1,3.097
11,75,numeric,0.1,0.2,target,target,1,4.599
11,76,perceptual,0.03,0.2,competitor,decoy,0,3.631
11,77,perceptual,0.1,0.05,competitor,competitor,0,4.265
11,78,numeric,0.03,0.05,target,target,1,6.141
11,79,numeric,0.03,0.2,target,target,1,5.222
11,80,numeric,0.03,0.2,target,target,1,9.43
11,81,perceptual,0.1,0.2,target,target,1,2.777
11,82,numeric,0.03,0.2,competitor,target,1,3.349
11,83,perceptual,0.1,0.2,target,decoy,0,4.119
11,84,numeric,0.1,0.2,competitor,target,1,3.998
11,85,numeric,0.03,0.05,target,competitor,0,8.055
11,86,numeric,0.1,0.05,target,competitor,0,8.606
11,87,numeric,0.03,0.2,competitor,target,1,4.207
11,88,numeric,0.1,0.2,competitor,target,1,6.13
11,89,perceptual,0.03,0.05,target,decoy,0,2.442
11,90,perceptual,0.1,0.05,competitor,target,1,2.448
11,91,numeric,0.03,0.05,target,target,1,7.486
11,92,perceptual,0.03,0.2,target,competitor,0,3.779
11,93,numeric,0.03,0.05,competitor,competitor,0,5.29
11,94,perceptual,0.1,0.05,target,competitor,0,2.566
11,95,numeric,0.03,0.2,competitor,competitor,0,4.267
11,96,numeric,0.03,0.05,competitor,competitor,0,8.699
11,97,perceptual,0.03,0.05,competitor,competitor,0,4.335
11,98,perceptual,0.1,0.2,competitor,competitor,0,3.809
11,99,perceptual,0.03,0.2,target,competitor,0,2.12
11,100,numeric,0.1,0.05,competitor,target,1,6.108
11,101,perceptual,0.03,0.2,target,decoy,0,2.261
11,102,perceptual,0.1,0.2,target,target,1,5.561
11,103,perceptual,0.1,0.2,competitor,competitor,0,1.973
11,104,numeric,0.03,0.05,target,competitor,0,4.876
11,105,perceptual,0.03,0.05,competitor,competitor,0,2.042
11,106,numeric,0.03,0.05,competitor,target,1,5.65
11,107,numeric,0.1,0.2,target,target,1,6.506
11,108,perceptual,0.1,0.2,target,decoy,0,3.05
11,109,numeric,0.03,0.2,competitor,competitor,0,4.668
11,110,numeric,0.03,0.05,target,decoy,0,4.317
11,111,numeric,0.1,0.2,competitor,target,1,3.617
11,112,numeric,0.1,0.2,target,target,1,6.336
11,113,numeric,0.1,0.2,target,target,1,6.613
11,114,perceptual,0.03,0.05,competitor,target,1,5.945
11,115,numeric,0.1,0.2,competitor,target,1,7.838
11,116,numeric,0.03,0.05,target,target,1,8.367
11,117,numeric,0.1,0.05,competitor,target,1,5.933
11,118,perceptual,0.03,0.05,target,target,1,2.407
11,119,perceptual,0.1,0.2,competitor,target,1,3.36
11,120,perceptual,0.03,0.05,target,competitor,0,3.431
11,121,numeric,0.1,0.2,competitor,target,1,8.632
11,122,numeric,0.03,0.05,target,target,1,2.247
11,123,numeric,0.03,0.05,target,competitor,0,3.828
11,124,numeric,0.03,0.05,competitor,target,1,4.85
11,125,perceptual,0.1,0.2,competitor,target,1,2.776
11,126,perceptual,0.1,0.05,target,competitor,0,3.88
11,127,numeric,0.1,0.2,competitor,competitor,0,4.952
11,128,numeric,0.03,0.2,target,target,1,4.299
11,129,numeric,0.1,0.05,competitor,target,1,4.581
11,130,perceptual,0.03,0.05,target,competitor,0,3.558
11,131,numeric,0.1,0.2,target,competitor,0,9.442
11,132,numeric,0.1,0.05,competitor,competitor,0,10.125
11,133,perceptual,0.03,0.05,competitor,competitor,0,7.241
11,134,numeric,0.03,0.05,competitor,competitor,0,1.813
11,135,numeric,0.03,0.2,target,decoy,0,6.718
11,136,perceptual,0.03,0.05,target,decoy,0,2.428
