participant,trial_counter,condition,target_to_competitor,decoy_reduction,decoy_on,chosen_item,correct,rt
1,1,perceptual,0.1,0.05,target,target,1,9.275
1,2,perceptual,0.03,0.05,competitor,competitor,0,5.213
1,3,numeric,0.03,0.05,target,target,1,10.968
1,4,numeric,0.03,0.05,target,competitor,0,13.222
1,5,perceptual,0.1,0.2,competitor,target,1,5.379
1,6,numeric,0.1,0.2,target,target,1,9.899
1,7,numeric,0.1,0.05,competitor,target,1,7.21
1,8,numeric,0.1,0.05,competitor,target,1,12.568
1,9,numeric,0.03,0.05,competitor,competitor,0,12.315
1,10,numeric,0.03,0.05,competitor,competitor,0,14.116
1,11,perceptual,0.03,0.2,target,target,1,9.042
1,12,numeric,0.03,0.05,competitor,target,1,10.265
1,13,numeric,0.1,0.2,target,target,1,9.946
1,14,perceptual,0.03,0.2,competitor,target,1,13.383
1,15,numeric,0.1,0.2,target,target,1,7.004
1,16,numeric,0.03,0.2,target,target,1,17.601
1,17,numeric,0.03,0.2,competitor,target,1,5.444
1,18,perceptual,0.1,0.05,competitor,target,1,4.316
1,19,numeric,0.03,0.05,target,target,1,10.122
1,20,perceptual,0.1,0.05,target,target,1,13.443
1,21,perceptual,0.03,0.05,competitor,competitor,0,9.992
1,22,numeric,0.1,0.2,competitor,target,1,12.121
1,23,perceptual,0.1,0.2,competitor,target,1,3.527
1,24,numeric,0.03,0.05,competitor,competitor,0,11.188
1,25,numeric,0.1,0.2,target,competitor,0,12.951
1,26,numeric,0.03,0.2,target,competitor,0,13.671
1,27,numeric,0.1,0.2,target,competitor,0,9.197
1,28,perceptual,0.03,0.2,target,target,1,10.064
1,29,numeric,0.1,0.05,target,target,1,16.411
1,30,perceptual,0.03,0.05,competitor,decoy,0,4.558
1,31,perceptual,0.1,0.05,target,target,1,5.231
1,32,perceptual,0.1,0.05,competitor,competitor,0,4.102
1,33,perceptual,0.03,0.05,competitor,target,1,3.492
1,34,perceptual,0.03,0.2,competitor,competitor,0,3.149
1,35,perceptual,0.03,0.2,competitor,target,1,5.722
1,36,perceptual,0.1,0.2,competitor,target,1,7.224
1,37,perceptual,0.03,0.2,competitor,target,1,3.983
1,38,numeric,0.03,0.05,target,target,1,5.114
1,39,numeric,0.1,0.2,target,target,1,6.128
1,40,numeric,0.03,0.05,target,target,1,7.147
1,41,numeric,0.1,0.2,competitor,competitor,0,6.709
1,42,numeric,0.03,0.05,competitor,competitor,0,13.675
1,43,numeric,0.1,0.2,competitor,target,1,5.08
1,44,numeric,0.03,0.2,target,competitor,0,11.979
1,45,numeric,0.03,0.05,target,target,1,5.263
1,46,numeric,0.03,0.2,target,competitor,0,10.341
1,47,perceptual,0.03,0.2,target,target,1,9.266
1,48,numeric,0.03,0.2,competitor,competitor,0,12.933
1,49,perceptual,0.03,0.2,competitor,target,1,2.945
1,50,numeric,0.03,0.05,target,target,1,6.011
1,51,numeric,0.03,0.2,target,target,1,5.005
1,52,numeric,0.1,0.05,target,target,1,8.815
1,53,perceptual,0.1,0.05,target,target,1,5.565
1,54,perceptual,0.03,0.05,competitor,competitor,0,8.365
1,55,perceptual,0.03,0.2,target,target,1,5.814
1,56,numeric,0.1,0.05,target,target,1,5.548
1,57,perceptual,0.03,0.05,competitor,target,1,6.558
1,58,numeric,0.1,0.05,competitor,target,1,6.447
1,59,numeric,0.03,0.2,competitor,decoy,0,10.82
1,60,perceptual,0.1,0.05,target,target,1,9.481
1,61,numeric,0.1,0.05,competitor,competitor,0,9.799
1,62,perceptual,0.03,0.05,competitor,target,1,4.468
1,63,perceptual,0.03,0.05,target,decoy,0,6.275
1,64,perceptual,0.03,0.2,competitor,competitor,0,13.356
1,65,numeric,0.1,0.05,target,target,1,7.995
1,66,numeric,0.03,0.2,target,target,1,6.615
1,67,perceptual,0.03,0.05,target,target,1,5.144
1,68,perceptual,0.1,0.05,competitor,target,1,3.428
1,69,perceptual,0.1,0.05,competitor,target,1,3.602
1,70,perceptual,0.1,0.05,target,competitor,0,4.873
1,71,perceptual,0.1,0.05,target,target,1,5.044
1,72,numeric,0.1,0.05,target,target,1,8.516
1,73,perceptual,0.1,0.2,target,target,1,4.126
1,74,numeric,0.1,0.2,competitor,target,1,6.084
1,75,numeric,0.1,0.2,target,target,1,11
1,76,numeric,0.1,0.05,target,target,1,10.13
1,77,numeric,0.1,0.05,competitor,competitor,0,11.838
1,78,perceptual,0.03,0.2,competitor,target,1,3.954
1,79,numeric,0.03,0.2,target,target,1,6.458
1,80,numeric,0.03,0.2,competitor,competitor,0,6.391
1,81,perceptual,0.1,0.05,competitor,competitor,0,4.636
1,82,numeric,0.03,0.2,target,target,1,6.744
1,83,perceptual,0.1,0.2,competitor,target,1,5.292
1,84,numeric,0.1,0.2,competitor,competitor,0,6.81
1,85,numeric,0.1,0.05,competitor,target,1,13.55
1,86,numeric,0.1,0.05,target,target,1,7.062
1,87,numeric,0.1,0.05,competitor,competitor,0,14.425
1,88,perceptual,0.1,0.05,target,target,1,9.187
1,89,perceptual,0.1,0.2,competitor,target,1,4.457
1,90,perceptual,0.1,0.05,target,target,1,4.646
1,91,numeric,0.1,0.2,competitor,target,1,6.161
1,92,perceptual,0.1,0.05,competitor,target,1,4.139
1,93,perceptual,0.03,0.2,target,target,1,4.669
1,94,perceptual,0.1,0.05,competitor,competitor,0,5.808
1,95,perceptual,0.03,0.05,target,target,1,11.758
1,96,perceptual,0.1,0.2,target,target,1,6.1
1,97,numeric,0.1,0.05,competitor,target,1,5.895
1,99,numeric,0.03,0.05,competitor,decoy,0,8.596
1,100,perceptual,0.03,0.2,competitor,target,1,5.77
1,101,numeric,0.03,0.2,competitor,target,1,7.558
1,102,numeric,0.03,0.2,target,target,1,10.007
1,103,numeric,0.1,0.05,target,target,1,6.154
1,104,perceptual,0.1,0.05,target,target,1,10.616
1,105,perceptual,0.1,0.2,target,target,1,5.366
1,106,perceptual,0.1,0.05,competitor,target,1,7.325
1,107,perceptual,0.03,0.2,target,target,1,4.643
1,108,numeric,0.1,0.05,target,target,1,4.939
1,109,perceptual,0.03,0.05,target,target,1,3.716
1,110,numeric,0.03,0.05,target,target,1,8.192
1,111,numeric,0.1,0.2,target,target,1,11.562
1,112,numeric,0.03,0.05,target,target,1,7.296
1,113,perceptual,0.1,0.2,competitor,target,1,3.232
1,114,perceptual,0.03,0.2,competitor,target,1,3.785
1,115,numeric,0.03,0.05,competitor,competitor,0,4.923
1,116,perceptual,0.1,0.2,target,target,1,9.23
1,117,numeric,0.1,0.2,target,decoy,0,9.682
1,118,perceptual,0.03,0.05,target,competitor,0,7.627
1,119,numeric,0.03,0.05,target,target,1,8.211
1,120,perceptual,0.03,0.2,competitor,target,1,7.171
1,121,perceptual,0.03,0.05,target,decoy,0,4.306
1,122,numeric,0.1,0.2,competitor,target,1,6.258
1,123,numeric,0.03,0.2,target,competitor,0,7.107
1,124,perceptual,0.1,0.2,competitor,target,1,11.776
1,125,numeric,0.03,0.05,target,decoy,0,4.989
1,126,perceptual,0.03,0.05,target,target,1,5.807
1,127,perceptual,0.03,0.2,competitor,target,1,3.39
1,128,numeric,0.03,0.2,competitor,competitor,0,4.973
1,129,numeric,0.03,0.2,competitor,competitor,0,11.375
1,130,perceptual,0.03,0.2,target,target,1,4.916
1,131,perceptual,0.1,0.2,competitor,target,1,5.15
1,132,perceptual,0.03,0.2,target,target,1,7.358
1,133,numeric,0.1,0.05,competitor,target,1,8.246
1,134,numeric,0.03,0.05,competitor,competitor,0,5.512
1,135,perceptual,0.03,0.05,competitor,competitor,0,6.795
1,136,numeric,0.03,0.2,target,target,1,6.86
1,137,numeric,0.1,0.2,target,target,1,15.841
1,138,numeric,0.1,0.2,target,competitor,0,17.815
1,139,numeric,0.03,0.2,competitor,competitor,0,10.374
1,140,numeric,0.03,0.05,target,competitor,0,13.582
1,141,numeric,0.03,0.05,competitor,competitor,0,14.078
1,142,numeric,0.1,0.05,competitor,target,1,12.338
1,143,perceptual,0.1,0.05,competitor,competitor,0,5.199
1,144,perceptual,0.03,0.2,target,target,1,3.126
1,145,perceptual,0.1,0.2,target,target,1,4.332
1,146,numeric,0.1,0.05,target,target,1,4.991
1,147,numeric,0.03,0.2,competitor,competitor,0,13.287
1,148,perceptual,0.1,0.2,target,competitor,0,3.239
1,149,perceptual,0.03,0.05,target,target,1,4.754
1,150,numeric,0.1,0.2,competitor,target,1,6.829
1,151,numeric,0.03,0.05,competitor,competitor,0,12.305
1,152,perceptual,0.03,0.05,target,target,1,3.214
1,153,numeric,0.1,0.2,competitor,target,1,4.555
1,154,perceptual,0.1,0.2,competitor,target,1,3.084
1,155,perceptual,0.03,0.2,target,competitor,0,7.898
1,156,perceptual,0.03,0.05,target,target,1,3.228
1,157,numeric,0.1,0.2,competitor,competitor,0,4.358
1,158,perceptual,0.1,0.2,target,target,1,4.846
1,159,perceptual,0.03,0.05,competitor,decoy,0,6.468
1,160,perceptual,0.1,0.2,target,competitor,0,5.735
1,161,numeric,0.1,0.2,target,target,1,6.082
1,162,perceptual,0.1,0.05,target,competitor,0,3.569
1,163,numeric,0.1,0.05,competitor,competitor,0,8.309
1,164,numeric,0.1,0.2,competitor,target,1,8.016
1,165,perceptual,0.1,0.2,competitor,target,1,3.402
1,166,perceptual,0.1,0.05,target,target,1,3.182
1,167,perceptual,0.03,0.05,target,target,1,4.957
1,168,perceptual,0.1,0.2,target,target,1,4.94
1,169,numeric,0.1,0.2,competitor,target,1,5.082
1,170,numeric,0.1,0.05,competitor,competitor,0,5.424
1,171,numeric,0.03,0.05,competitor,competitor,0,11.985
1,172,perceptual,0.1,0.2,target,target,1,3.507
1,173,perceptual,0.1,0.2,target,decoy,0,2.772
1,174,perceptual,0.1,0.2,competitor,target,1,3.137
1,175,perceptual,0.1,0.05,competitor,decoy,0,4.948
1,176,perceptual,0.1,0.2,target,target,1,5.802
1,177,numeric,0.1,0.05,target,target,1,6.282
1,178,numeric,0.03,0.2,competitor,target,1,5.829
1,179,perceptual,0.1,0.2,competitor,target,1,4.27
1,180,perceptual,0.03,0.2,target,competitor,0,3.857
1,181,numeric,0.03,0.2,competitor,competitor,0,5.999
1,182,perceptual,0.1,0.05,competitor,target,1,3.467
1,183,perceptual,0.1,0.05,competitor,decoy,0,2.787
1,184,perceptual,0.03,0.2,competitor,target,1,3.619
1,185,numeric,0.03,0.2,target,target,1,14.359
1,186,numeric,0.03,0.05,competitor,competitor,0,8.433
1,187,perceptual,0.03,0.2,target,target,1,4.382
1,188,perceptual,0.03,0.05,competitor,competitor,0,2.738
1,189,perceptual,0.03,0.05,competitor,target,1,3.509
1,190,perceptual,0.03,0.05,competitor,competitor,0,4.313
1,191,perceptual,0.03,0.05,target,competitor,0,5.113
1,192,numeric,0.1,0.05,target,target,1,5.044
2,2,perceptual,0.1,0.2,competitor,competitor,0,3.527
2,3,perceptual,0.1,0.05,target,target,1,6.081
2,4,perceptual,0.1,0.05,competitor,target,1,6.123
2,5,perceptual,0.1,0.2,competitor,competitor,0,7.424
2,6,numeric,0.03,0.2,competitor,target,1,8.908
2,7,numeric,0.03,0.2,target,competitor,0,9.772
2,8,numeric,0.03,0.2,competitor,target,1,12.333
2,9,perceptual,0.03,0.2,target,target,1,9.519
2,10,numeric,0.1,0.05,competitor,decoy,0,15.026
2,11,numeric,0.03,0.2,target,competitor,0,11.366
2,12,numeric,0.03,0.05,competitor,target,1,10.923
2,13,perceptual,0.03,0.05,competitor,decoy,0,11.749
2,14,perceptual,0.03,0.05,competitor,target,1,9.463
2,15,numeric,0.03,0.05,competitor,competitor,0,7.306
2,16,numeric,0.03,0.2,target,decoy,0,6.713
2,17,numeric,0.03,0.05,target,target,1,12.056
2,18,numeric,0.1,0.05,competitor,competitor,0,6.264
2,19,numeric,0.1,0.05,target,target,1,11.517
2,20,numeric,0.03,0.05,competitor,target,1,6.229
2,21,perceptual,0.1,0.05,competitor,decoy,0,10.695
2,22,perceptual,0.03,0.05,competitor,decoy,0,8.201
2,23,perceptual,0.1,0.05,target,target,1,7.135
2,24,perceptual,0.1,0.2,target,target,1,6.5
2,25,numeric,0.03,0.2,competitor,competitor,0,12.633
2,26,perceptual,0.03,0.2,competitor,target,1,7.876
2,28,perceptual,0.1,0.05,target,target,1,5.973
2,29,perceptual,0.1,0.2,competitor,target,1,7.253
2,30,perceptual,0.03,0.2,competitor,decoy,0,6.177
2,31,numeric,0.03,0.05,target,target,1,10.519
2,32,perceptual,0.1,0.2,competitor,competitor,0,8.05
2,33,numeric,0.03,0.2,competitor,competitor,0,14.486
2,34,perceptual,0.1,0.05,competitor,competitor,0,5.537
2,35,perceptual,0.03,0.2,target,target,1,4.732
2,36,perceptual,0.03,0.2,target,target,1,4.775
2,37,numeric,0.1,0.2,competitor,target,1,9.104
2,38,perceptual,0.1,0.05,target,target,1,6.792
2,39,numeric,0.03,0.05,target,target,1,6.724
2,40,perceptual,0.1,0.2,target,target,1,4.743
2,41,numeric,0.03,0.2,competitor,competitor,0,9.375
2,42,perceptual,0.03,0.05,target,target,1,5.284
2,43,numeric,0.1,0.05,competitor,competitor,0,6.196
2,44,perceptual,0.1,0.2,competitor,competitor,0,5.471
2,45,perceptual,0.03,0.2,competitor,competitor,0,6.979
2,46,perceptual,0.03,0.05,target,target,1,5.353
2,47,perceptual,0.1,0.2,target,target,1,7.114
2,48,numeric,0.1,0.2,target,target,1,7.359
2,49,perceptual,0.1,0.2,target,target,1,5.708
2,50,numeric,0.1,0.05,target,target,1,5.975
2,51,perceptual,0.1,0.2,target,target,1,6.349
2,52,numeric,0.1,0.05,competitor,target,1,7.432
2,53,numeric,0.03,0.05,target,target,1,7.311
2,54,perceptual,0.03,0.05,competitor,target,1,5.809
2,55,numeric,0.1,0.05,target,target,1,5.095
2,56,numeric,0.1,0.2,competitor,target,1,10.741
2,57,numeric,0.1,0.05,competitor,target,1,6.535
2,58,perceptual,0.03,0.05,target,competitor,0,6.21
2,59,perceptual,0.1,0.2,target,target,1,6.474
2,60,numeric,0.03,0.05,competitor,target,1,10.861
2,61,perceptual,0.03,0.05,target,decoy,0,5.162
2,62,perceptual,0.03,0.2,target,target,1,3.888
2,63,numeric,0.1,0.2,target,target,1,7.835
2,64,perceptual,0.03,0.05,competitor,decoy,0,8.86
2,65,perceptual,0.03,0.05,competitor,competitor,0,8.824
2,66,numeric,0.1,0.2,target,target,1,7.289
2,67,numeric,0.1,0.2,target,target,1,4.884
2,68,perceptual,0.03,0.05,competitor,target,1,4.158
2,69,numeric,0.1,0.05,target,target,1,9.019
2,70,perceptual,0.03,0.2,competitor,target,1,7.114
2,71,numeric,0.1,0.05,target,target,1,6.121
2,72,numeric,0.03,0.05,target,target,1,9.945
2,73,numeric,0.1,0.05,competitor,competitor,0,6.949
2,74,perceptual,0.1,0.05,target,target,1,9.871
2,75,perceptual,0.1,0.05,target,target,1,5.845
2,76,numeric,0.1,0.2,competitor,target,1,9.705
2,77,perceptual,0.03,0.2,target,target,1,4.264
2,78,numeric,0.1,0.05,target,target,1,5.82
2,79,perceptual,0.03,0.05,competitor,competitor,0,5.927
2,80,numeric,0.03,0.2,competitor,competitor,0,7.492
2,81,perceptual,0.1,0.05,competitor,target,1,5.134
2,82,perceptual,0.03,0.2,target,target,1,6.412
2,83,perceptual,0.03,0.05,target,decoy,0,4.215
2,84,numeric,0.03,0.05,competitor,competitor,0,7.74
2,85,perceptual,0.03,0.05,target,target,1,5.436
2,86,numeric,0.1,0.05,target,target,1,6.481
2,87,numeric,0.03,0.05,target,target,1,7.579
2,88,numeric,0.03,0.2,target,competitor,0,6.342
2,89,numeric,0.03,0.05,competitor,competitor,0,9.302
2,90,perceptual,0.1,0.2,competitor,competitor,0,5.377
2,91,numeric,0.03,0.2,competitor,competitor,0,9.545
2,92,numeric,0.1,0.2,target,target,1,8.735
2,93,perceptual,0.1,0.2,target,target,1,4.009
2,94,numeric,0.1,0.2,competitor,target,1,9.537
2,95,numeric,0.1,0.05,competitor,target,1,7.7
2,96,perceptual,0.1,0.05,competitor,target,1,5.039
2,97,perceptual,0.1,0.05,competitor,target,1,4.826
2,98,numeric,0.1,0.2,target,competitor,0,6.354
2,99,perceptual,0.03,0.2,competitor,competitor,0,4.7
2,100,numeric,0.1,0.05,competitor,competitor,0,8.252
2,101,perceptual,0.1,0.05,competitor,target,1,5.284
2,102,perceptual,0.1,0.05,competitor,target,1,4.155
2,103,perceptual,0.1,0.05,competitor,target,1,5.228
2,104,numeric,0.1,0.05,target,target,1,5.579
2,105,numeric,0.1,0.2,competitor,competitor,0,6.588
2,106,numeric,0.1,0.05,competitor,target,1,4.645
2,107,numeric,0.1,0.2,target,target,1,5.569
2,108,perceptual,0.03,0.05,competitor,competitor,0,4.308
2,109,perceptual,0.03,0.05,competitor,competitor,0,8.851
2,110,perceptual,0.1,0.05,target,decoy,0,6.77
2,111,perceptual,0.1,0.2,competitor,target,1,4.559
2,112,perceptual,0.1,0.05,target,target,1,4.601
2,113,perceptual,0.1,0.2,target,target,1,5.289
2,114,perceptual,0.1,0.05,target,competitor,0,6.271
2,115,perceptual,0.03,0.05,target,target,1,8.301
2,116,numeric,0.1,0.05,target,decoy,0,7.006
2,117,perceptual,0.1,0.05,target,target,1,4.456
2,118,perceptual,0.1,0.2,target,target,1,5.797
2,119,numeric,0.03,0.05,competitor,target,1,6.529
2,120,perceptual,0.03,0.2,competitor,competitor,0,4.974
2,121,perceptual,0.03,0.2,competitor,competitor,0,4.395
2,122,numeric,0.1,0.05,competitor,competitor,0,5.519
2,123,perceptual,0.03,0.2,target,target,1,4.083
2,124,numeric,0.03,0.2,target,target,1,7.855
2,125,numeric,0.03,0.2,target,target,1,6.311
2,126,numeric,0.03,0.05,target,target,1,7.052
2,127,perceptual,0.1,0.05,competitor,target,1,5.103
2,128,numeric,0.03,0.2,target,target,1,8.206
2,129,numeric,0.03,0.05,competitor,target,1,10.985
2,130,perceptual,0.1,0.2,target,decoy,0,4.848
2,131,perceptual,0.1,0.05,competitor,target,1,6.78
2,132,perceptual,0.03,0.2,target,target,1,4.306
2,133,perceptual,0.03,0.05,target,target,1,6.419
2,134,perceptual,0.03,0.05,competitor,competitor,0,5.925
2,135,perceptual,0.1,0.2,competitor,target,1,7.598
2,136,perceptual,0.1,0.2,target,target,1,3.684
2,137,numeric,0.03,0.2,competitor,target,1,9.75
2,138,perceptual,0.03,0.2,competitor,competitor,0,5.231
2,139,numeric,0.1,0.2,competitor,target,1,10.021
2,140,perceptual,0.03,0.2,competitor,target,1,5.275
2,141,numeric,0.1,0.2,target,target,1,9.378
2,142,numeric,0.03,0.2,competitor,competitor,0,5.743
2,143,numeric,0.03,0.05,target,target,1,7.598
2,144,numeric,0.03,0.05,target,target,1,8.744
2,145,perceptual,0.03,0.05,target,competitor,0,3.343
2,146,numeric,0.1,0.2,competitor,competitor,0,7.444
2,147,numeric,0.1,0.2,competitor,target,1,5.341
2,148,perceptual,0.03,0.2,competitor,decoy,0,18.523
2,149,numeric,0.03,0.2,competitor,target,1,9.286
2,150,numeric,0.1,0.05,competitor,target,1,6.305
2,151,numeric,0.03,0.2,competitor,target,1,6.559
2,152,perceptual,0.03,0.2,competitor,competitor,0,5.701
2,153,perceptual,0.03,0.05,competitor,target,1,9.715
2,154,numeric,0.03,0.05,target,target,1,5.209
2,155,numeric,0.03,0.05,competitor,competitor,0,6.873
2,156,perceptual,0.03,0.2,target,target,1,7.851
2,157,numeric,0.03,0.05,competitor,target,1,12.227
2,158,numeric,0.03,0.2,target,competitor,0,7.512
2,159,perceptual,0.1,0.05,target,target,1,6.982
2,160,numeric,0.1,0.2,competitor,target,1,8.216
2,161,numeric,0.1,0.2,target,target,1,7.068
2,162,numeric,0.03,0.05,target,target,1,7.523
2,163,numeric,0.03,0.05,competitor,competitor,0,10.886
2,164,perceptual,0.1,0.2,competitor,competitor,0,7.048
2,165,numeric,0.1,0.05,target,target,1,5.474
2,166,perceptual,0.03,0.2,target,target,1,8.428
2,167,numeric,0.03,0.2,target,decoy,0,12.411
2,168,perceptual,0.03,0.2,target,target,1,3.413
2,169,perceptual,0.03,0.05,target,target,1,3.739
2,170,perceptual,0.1,0.2,competitor,competitor,0,7.09
2,171,perceptual,0.03,0.05,target,decoy,0,7.732
2,172,numeric,0.03,0.2,target,competitor,0,10.194
2,173,numeric,0.1,0.2,target,target,1,5.359
2,174,numeric,0.03,0.05,target,target,1,9.092
2,175,numeric,0.1,0.05,target,decoy,0,10.739
2,176,numeric,0.1,0.05,competitor,target,1,12.457
2,177,numeric,0.03,0.2,target,decoy,0,7.052
2,178,numeric,0.03,0.05,competitor,decoy,0,4.841
2,179,numeric,0.03,0.2,competitor,target,1,7.099
2,180,numeric,0.1,0.2,competitor,competitor,0,3.712
2,181,perceptual,0.1,0.2,competitor,target,1,6.662
2,182,numeric,0.1,0.05,target,competitor,0,9.955
2,183,numeric,0.1,0.2,competitor,target,1,6.059
2,184,perceptual,0.03,0.2,competitor,competitor,0,8.058
2,185,perceptual,0.1,0.2,competitor,target,1,2.497
2,186,perceptual,0.1,0.05,competitor,competitor,0,8.106
2,187,perceptual,0.1,0.2,target,target,1,7.616
2,188,numeric,0.03,0.2,target,target,1,4.906
2,189,numeric,0.1,0.2,target,target,1,5.937
2,190,numeric,0.1,0.2,target,target,1,6.17
2,191,numeric,0.1,0.2,competitor,competitor,0,8.242
2,192,perceptual,0.03,0.2,target,target,1,5.823
3,1,perceptual,0.03,0.05,target,decoy,0,5.349
3,2,numeric,0.1,0.2,target,target,1,5.342
3,3,numeric,0.03,0.05,target,target,1,8.585
3,4,numeric,0.1,0.05,competitor,target,1,6.642
3,5,numeric,0.03,0.2,competitor,competitor,0,7.642
3,6,numeric,0.03,0.2,target,target,1,6.527
3,7,numeric,0.03,0.05,target,target,1,9.795
3,8,numeric,0.03,0.2,target,target,1,5.972
3,9,perceptual,0.1,0.2,competitor,target,1,3.214
3,10,numeric,0.1,0.05,target,decoy,0,5.609
3,11,numeric,0.1,0.05,target,target,1,5.1
3,12,perceptual,0.03,0.2,competitor,target,1,7.41
3,13,perceptual,0.1,0.2,target,competitor,0,3.853
3,14,numeric,0.03,0.05,competitor,competitor,0,6.314
3,15,numeric,0.03,0.05,competitor,competitor,0,8.062
3,16,perceptual,0.1,0.05,competitor,competitor,0,4.633
3,17,numeric,0.03,0.2,competitor,target,1,4.668
3,18,perceptual,0.1,0.2,competitor,target,1,3.534
3,19,numeric,0.1,0.05,target,target,1,4.636
3,20,numeric,0.03,0.2,competitor,target,1,7.596
3,21,perceptual,0.1,0.05,competitor,decoy,0,3.889
3,22,numeric,0.1,0.2,competitor,target,1,5.69
3,23,perceptual,0.1,0.05,target,target,1,5.117
3,24,perceptual,0.03,0.05,competitor,target,1,3.425
3,25,perceptual,0.1,0.2,target,decoy,0,5.278
3,26,perceptual,0.03,0.05,competitor,decoy,0,6.642
3,27,numeric,0.1,0.2,competitor,target,1,3.903
3,28,perceptual,0.03,0.2,competitor,target,1,3.878
3,29,numeric,0.03,0.05,competitor,competitor,0,5.938
3,30,numeric,0.1,0.05,target,target,1,6.475
3,31,perceptual,0.03,0.05,competitor,target,1,2.569
3,32,numeric,0.03,0.05,competitor,target,1,6.352
3,33,numeric,0.1,0.2,competitor,target,1,6.495
3,34,numeric,0.1,0.2,competitor,competitor,0,5.609
3,35,perceptual,0.03,0.2,target,decoy,0,3.091
3,36,numeric,0.1,0.05,competitor,target,1,4.101
3,37,perceptual,0.1,0.2,competitor,competitor,0,3.159
3,38,numeric,0.1,0.2,competitor,target,1,7.758
3,39,perceptual,0.1,0.2,target,target,1,3.417
3,40,perceptual,0.03,0.05,target,target,1,5.806
3,41,numeric,0.1,0.05,target,target,1,6.206
3,42,numeric,0.1,0.2,target,target,1,4.792
3,43,perceptual,0.03,0.2,competitor,target,1,4.651
3,44,perceptual,0.03,0.05,target,competitor,0,5.392
3,45,perceptual,0.03,0.05,target,competitor,0,3.527
3,46,perceptual,0.1,0.05,competitor,decoy,0,3.881
3,47,perceptual,0.1,0.05,target,competitor,0,2.612
3,48,perceptual,0.1,0.2,target,decoy,0,3.181
3,49,numeric,0.03,0.05,competitor,target,1,5.304
3,50,perceptual,0.03,0.2,competitor,competitor,0,3.247
3,51,numeric,0.03,0.2,target,target,1,4.292
3,52,perceptual,0.1,0.2,competitor,competitor,0,2.787
3,53,perceptual,0.1,0.05,target,decoy,0,2.883
3,54,perceptual,0.03,0.05,target,decoy,0,2.861
3,55,numeric,0.03,0.2,competitor,target,1,4.841
3,56,numeric,0.03,0.05,competitor,competitor,0,8.176
3,57,numeric,0.03,0.05,competitor,target,1,6.139
3,58,perceptual,0.1,0.05,target,decoy,0,3.68
3,59,numeric,0.03,0.2,target,target,1,6.779
3,60,numeric,0.1,0.2,target,target,1,7.08
3,61,perceptual,0.03,0.05,target,target,1,3.513
3,62,perceptual,0.1,0.2,target,competitor,0,3.155
3,63,perceptual,0.03,0.2,target,competitor,0,3.302
3,64,perceptual,0.1,0.05,target,target,1,3.242
3,65,numeric,0.03,0.05,target,target,1,6.584
3,66,numeric,0.03,0.05,competitor,competitor,0,9.858
3,67,perceptual,0.03,0.05,competitor,competitor,0,2.926
3,68,perceptual,0.03,0.2,competitor,target,1,3.783
3,69,perceptual,0.03,0.2,competitor,decoy,0,3.225
3,70,numeric,0.1,0.2,competitor,target,1,4.136
3,71,numeric,0.1,0.2,target,target,1,3.974
3,72,numeric,0.03,0.05,target,target,1,8.881
3,73,perceptual,0.03,0.05,target,decoy,0,3.362
3,74,numeric,0.03,0.2,competitor,competitor,0,6.012
3,75,perceptual,0.03,0.2,target,competitor,0,2.621
3,76,perceptual,0.03,0.2,target,target,1,5.685
3,77,perceptual,0.03,0.05,competitor,decoy,0,4.561
3,78,perceptual,0.1,0.05,target,decoy,0,4.906
3,79,numeric,0.1,0.05,competitor,target,1,4.713
3,80,numeric,0.1,0.2,target,target,1,6.522
3,81,numeric,0.1,0.2,target,decoy,0,4.28
3,82,numeric,0.1,0.05,competitor,competitor,0,3.812
3,83,numeric,0.03,0.2,competitor,target,1,6.774
3,84,perceptual,0.1,0.2,target,decoy,0,2.316
3,85,perceptual,0.03,0.2,target,competitor,0,3.884
3,86,perceptual,0.03,0.05,target,competitor,0,2.962
3,87,perceptual,0.1,0.2,target,decoy,0,3.51
3,88,numeric,0.1,0.05,target,target,1,5.28
3,89,numeric,0.03,0.2,competitor,target,1,7.827
3,90,numeric,0.03,0.05,competitor,competitor,0,7.081
3,91,numeric,0.1,0.2,target,target,1,5.187
3,92,perceptual,0.1,0.05,competitor,target,1,3.758
3,93,numeric,0.1,0.05,competitor,target,1,4.622
3,94,perceptual,0.1,0.05,competitor,decoy,0,6.934
3,95,numeric,0.1,0.05,target,target,1,5.885
3,96,numeric,0.1,0.05,competitor,target,1,6.594
3,97,numeric,0.03,0.2,target,competitor,0,3.599
3,98,numeric,0.03,0.2,target,target,1,8.501
3,99,numeric,0.03,0.2,target,competitor,0,5.408
3,100,numeric,0.03,0.05,target,target,1,4.778
3,101,numeric,0.1,0.2,target,target,1,4.003
3,102,perceptual,0.03,0.05,target,competitor,0,3.437
3,103,perceptual,0.03,0.2,competitor,target,1,2.239
3,104,numeric,0.1,0.05,target,competitor,0,3.05
3,105,numeric,0.1,0.05,target,competitor,0,2.901
3,106,perceptual,0.03,0.2,competitor,target,1,2.095
3,107,numeric,0.03,0.2,target,target,1,4.843
3,108,perceptual,0.03,0.2,target,target,1,2.965
3,109,perceptual,0.1,0.2,competitor,competitor,0,6.379
3,110,perceptual,0.1,0.05,competitor,competitor,0,4.112
3,111,numeric,0.03,0.05,target,target,1,7.127
3,112,perceptual,0.1,0.2,target,decoy,0,2.548
3,113,perceptual,0.1,0.2,competitor,target,1,2.5
3,114,numeric,0.03,0.05,target,competitor,0,2.404
3,115,perceptual,0.1,0.2,target,decoy,0,2.407
3,116,perceptual,0.1,0.05,competitor,decoy,0,2.372
3,117,perceptual,0.03,0.2,competitor,competitor,0,4.965
3,118,perceptual,0.1,0.2,competitor,decoy,0,3.347
3,119,perceptual,0.1,0.2,competitor,competitor,0,6.875
3,120,numeric,0.03,0.2,competitor,competitor,0,3.201
3,121,numeric,0.1,0.05,competitor,target,1,2.896
3,122,numeric,0.1,0.05,target,target,1,4.878
3,123,perceptual,0.1,0.2,competitor,decoy,0,4.282
3,124,perceptual,0.1,0.2,target,target,1,3.185
3,125,numeric,0.1,0.2,competitor,competitor,0,4.046
3,126,numeric,0.03,0.05,target,target,1,5.85
3,127,perceptual,0.03,0.05,target,decoy,0,2.381
3,128,perceptual,0.1,0.05,competitor,decoy,0,2.612
3,129,numeric,0.03,0.2,competitor,competitor,0,6.161
3,130,perceptual,0.1,0.05,target,target,1,4.266
3,131,numeric,0.1,0.2,competitor,target,1,5.336
3,132,numeric,0.1,0.2,target,target,1,6.977
3,133,numeric,0.1,0.2,target,target,1,8.737
3,134,perceptual,0.1,0.2,competitor,decoy,0,2.636
3,135,perceptual,0.03,0.2,target,target,1,3.146
3,136,numeric,0.03,0.2,competitor,competitor,0,8.17
3,137,numeric,0.03,0.2,target,target,1,5.121
3,138,perceptual,0.1,0.2,competitor,target,1,2.807
3,139,numeric,0.03,0.05,competitor,competitor,0,4.447
3,140,numeric,0.1,0.2,competitor,target,1,5.379
3,141,perceptual,0.1,0.05,target,competitor,0,2.49
3,142,perceptual,0.1,0.05,target,competitor,0,2.896
3,143,perceptual,0.03,0.05,target,decoy,0,4.846
3,144,numeric,0.1,0.2,target,target,1,3.997
3,145,numeric,0.03,0.2,competitor,target,1,5.298
3,146,numeric,0.1,0.05,competitor,target,1,3.965
3,147,numeric,0.1,0.05,competitor,target,1,4.282
3,148,numeric,0.03,0.05,target,target,1,5.228
3,149,perceptual,0.03,0.05,competitor,target,1,4.652
3,150,numeric,0.03,0.2,competitor,competitor,0,6.315
3,151,perceptual,0.1,0.05,competitor,decoy,0,3.469
3,152,perceptual,0.03,0.05,competitor,target,1,4.402
3,153,numeric,0.03,0.05,target,target,1,4.774
3,154,numeric,0.03,0.05,target,target,1,5.805
3,155,numeric,0.03,0.05,target,target,1,5.451
3,156,perceptual,0.03,0.2,competitor,target,1,3.298
3,157,perceptual,0.03,0.2,competitor,competitor,0,2.294
3,158,perceptual,0.03,0.05,competitor,target,1,3.37
3,159,numeric,0.03,0.05,competitor,competitor,0,5.919
3,160,numeric,0.1,0.05,target,target,1,4.931
3,161,perceptual,0.03,0.2,target,competitor,0,5.935
3,162,perceptual,0.03,0.2,target,target,1,2.511
3,163,numeric,0.1,0.05,competitor,target,1,5.116
3,164,numeric,0.1,0.2,competitor,target,1,3.643
3,165,perceptual,0.03,0.2,target,competitor,0,2.504
3,166,perceptual,0.03,0.05,competitor,competitor,0,3.843
3,167,perceptual,0.1,0.05,competitor,competitor,0,3.268
3,168,numeric,0.1,0.05,target,target,1,6.648
3,169,perceptual,0.1,0.05,target,target,1,5.898
3,170,perceptual,0.1,0.05,competitor,target,1,2.888
3,171,numeric,0.1,0.2,target,competitor,0,4.912
3,172,perceptual,0.03,0.05,competitor,target,1,2.744
3,173,perceptual,0.03,0.2,target,competitor,0,2.277
3,174,numeric,0.1,0.05,competitor,target,1,3.951
3,175,perceptual,0.1,0.05,target,decoy,0,3.474
3,176,perceptual,0.03,0.05,competitor,decoy,0,4.159
3,177,numeric,0.1,0.05,competitor,target,1,5.197
3,178,numeric,0.03,0.2,target,competitor,0,5.036
3,179,numeric,0.03,0.2,target,target,1,6.981
3,180,perceptual,0.1,0.05,target,competitor,0,3.426
3,181,perceptual,0.03,0.05,competitor,target,1,3.299
3,182,perceptual,0.03,0.2,competitor,decoy,0,3.478
3,183,perceptual,0.03,0.05,target,target,1,2.779
3,184,perceptual,0.1,0.05,competitor,competitor,0,3.38
3,185,perceptual,0.1,0.2,target,target,1,2.442
3,186,numeric,0.03,0.05,competitor,competitor,0,4.407
3,187,numeric,0.1,0.2,competitor,competitor,0,3.885
3,188,numeric,0.03,0.2,target,target,1,3.498
3,189,perceptual,0.1,0.2,target,target,1,2.703
3,190,perceptual,0.1,0.2,competitor,target,1,2.085
3,191,perceptual,0.03,0.2,target,target,1,3.042
3,192,numeric,0.1,0.2,competitor,competitor,0,4.908
4,1,perceptual,0.03,0.05,target,decoy,0,4.81
4,2,perceptual,0.1,0.2,target,decoy,0,8.822
4,3,perceptual,0.03,0.2,target,target,1,3.939
4,4,perceptual,0.03,0.2,target,target,1,3.351
4,5,perceptual,0.03,0.05,target,competitor,0,5.792
4,6,numeric,0.1,0.05,competitor,target,1,3.823
4,7,perceptual,0.1,0.2,competitor,decoy,0,7.319
4,8,perceptual,0.03,0.2,competitor,competitor,0,11.991
4,9,numeric,0.1,0.2,competitor,target,1,5.214
4,10,numeric,0.03,0.2,competitor,target,1,7.764
4,11,perceptual,0.1,0.2,competitor,decoy,0,0.469
4,12,perceptual,0.1,0.2,competitor,target,1,8.505
4,13,numeric,0.1,0.2,target,target,1,7.319
4,14,perceptual,0.1,0.05,target,competitor,0,3.599
4,15,perceptual,0.1,0.2,target,target,1,5.386
4,16,numeric,0.1,0.05,target,target,1,5.288
4,17,perceptual,0.1,0.2,competitor,target,1,3.583
4,18,perceptual,0.03,0.05,target,target,1,6.208
4,19,perceptual,0.1,0.2,competitor,target,1,2.835
4,20,numeric,0.03,0.2,target,target,1,2.582
4,21,perceptual,0.1,0.05,competitor,target,1,3.53
4,22,numeric,0.03,0.05,target,target,1,3.213
4,23,perceptual,0.1,0.2,target,competitor,0,3.718
4,24,numeric,0.1,0.05,target,decoy,0,8.124
4,25,numeric,0.03,0.05,competitor,decoy,0,4.225
4,26,numeric,0.03,0.05,competitor,target,1,10.382
4,27,perceptual,0.03,0.2,target,target,1,3.949
4,28,perceptual,0.1,0.05,target,target,1,3.558
4,29,perceptual,0.03,0.05,competitor,competitor,0,2.549
4,30,perceptual,0.03,0.2,target,competitor,0,3.147
4,31,perceptual,0.03,0.05,competitor,target,1,1.847
4,32,numeric,0.1,0.2,competitor,target,1,1.419
4,33,perceptual,0.03,0.2,target,target,1,2.171
4,34,numeric,0.03,0.2,competitor,decoy,0,1.39
4,35,numeric,0.1,0.05,target,decoy,0,2.025
4,36,numeric,0.1,0.05,target,target,1,2.597
4,37,perceptual,0.03,0.05,competitor,decoy,0,2.049
4,38,perceptual,0.1,0.05,target,target,1,2.015
4,39,numeric,0.03,0.2,competitor,decoy,0,1.379
4,40,perceptual,0.1,0.05,target,decoy,0,2.724
4,41,numeric,0.1,0.05,target,target,1,1.464
4,42,numeric,0.03,0.2,target,competitor,0,1.998
4,43,perceptual,0.03,0.2,target,competitor,0,1.451
4,44,numeric,0.03,0.05,competitor,target,1,3.3
4,45,perceptual,0.1,0.05,competitor,competitor,0,1.913
4,46,numeric,0.03,0.05,target,target,1,2.851
4,47,numeric,0.03,0.05,competitor,decoy,0,1.414
4,48,numeric,0.1,0.2,target,competitor,0,1.298
4,49,numeric,0.1,0.05,competitor,competitor,0,2.755
4,50,numeric,0.03,0.2,competitor,target,1,1.738
4,51,perceptual,0.03,0.05,competitor,decoy,0,2.186
4,52,perceptual,0.1,0.2,target,competitor,0,3.747
4,53,numeric,0.1,0.2,target,competitor,0,1.766
4,54,numeric,0.1,0.05,target,target,1,1.469
4,55,numeric,0.1,0.2,competitor,competitor,0,1.484
4,56,perceptual,0.1,0.05,target,decoy,0,1.731
4,57,numeric,0.1,0.2,competitor,target,1,2.135
4,58,numeric,0.1,0.05,competitor,competitor,0,1.497
4,59,numeric,0.1,0.2,competitor,competitor,0,1.365
4,60,numeric,0.1,0.05,competitor,target,1,1.333
4,61,numeric,0.03,0.2,target,competitor,0,1.302
4,62,numeric,0.1,0.2,target,target,1,1.354
4,63,perceptual,0.1,0.2,competitor,decoy,0,1.286
4,64,numeric,0.1,0.2,target,decoy,0,1.313
4,65,perceptual,0.03,0.05,competitor,competitor,0,6.813
4,66,numeric,0.1,0.2,competitor,target,1,7.035
4,67,numeric,0.1,0.05,competitor,competitor,0,9.999
4,68,numeric,0.03,0.2,competitor,target,1,6.497
4,69,perceptual,0.03,0.2,competitor,decoy,0,3.503
4,70,numeric,0.03,0.05,target,competitor,0,11.931
4,71,perceptual,0.1,0.05,target,competitor,0,6.503
4,72,perceptual,0.1,0.05,target,target,1,2.548
4,73,numeric,0.1,0.2,competitor,target,1,3.921
4,74,perceptual,0.03,0.2,competitor,target,1,3.202
4,75,numeric,0.03,0.2,target,target,1,5.857
4,76,numeric,0.03,0.05,competitor,competitor,0,2.549
4,77,numeric,0.03,0.05,target,target,1,2.666
4,78,numeric,0.03,0.2,target,target,1,1.458
4,79,numeric,0.03,0.2,target,target,1,2.17
4,80,perceptual,0.03,0.2,target,competitor,0,2.214
4,83,perceptual,0.03,0.05,competitor,target,1,5.051
4,84,perceptual,0.03,0.2,target,decoy,0,1.366
4,85,numeric,0.1,0.05,target,decoy,0,1.458
4,86,perceptual,0.03,0.05,target,decoy,0,1.362
4,87,numeric,0.1,0.05,competitor,competitor,0,1.252
4,88,perceptual,0.03,0.05,target,decoy,0,1.552
4,89,numeric,0.03,0.2,competitor,target,1,1.247
4,90,numeric,0.03,0.05,competitor,decoy,0,1.264
4,91,perceptual,0.03,0.2,competitor,decoy,0,1.299
4,92,numeric,0.03,0.2,target,target,1,1.214
4,93,numeric,0.1,0.2,competitor,competitor,0,2.268
4,94,perceptual,0.1,0.2,target,target,1,1.534
4,95,perceptual,0.03,0.05,target,competitor,0,1.402
4,96,perceptual,0.1,0.2,competitor,decoy,0,1.316
4,97,perceptual,0.03,0.05,competitor,decoy,0,1.339
4,98,perceptual,0.03,0.05,competitor,decoy,0,0.962
4,99,perceptual,0.1,0.05,competitor,decoy,0,1.281
4,100,numeric,0.1,0.2,target,target,1,1.228
4,101,numeric,0.1,0.2,competitor,competitor,0,0.964
4,102,numeric,0.03,0.05,competitor,target,1,1.489
4,103,perceptual,0.03,0.2,competitor,competitor,0,1.302
4,104,perceptual,0.1,0.05,target,target,1,1.063
4,105,perceptual,0.03,0.2,competitor,target,1,0.597
4,106,perceptual,0.1,0.05,competitor,target,1,0.537
4,107,perceptual,0.03,0.2,target,decoy,0,0.349
4,108,perceptual,0.03,0.2,competitor,competitor,0,0.3
4,109,numeric,0.03,0.05,target,target,1,0.308
4,110,numeric,0.1,0.05,target,target,1,0.383
4,111,numeric,0.03,0.05,target,target,1,0.225
4,112,numeric,0.03,0.05,competitor,target,1,0.335
4,113,numeric,0.03,0.05,target,competitor,0,1.602
4,114,numeric,0.03,0.2,competitor,competitor,0,0.42
4,115,perceptual,0.1,0.05,competitor,decoy,0,1.651
4,116,numeric,0.1,0.2,competitor,competitor,0,0.613
4,117,numeric,0.03,0.05,target,target,1,0.397
4,118,perceptual,0.03,0.2,target,decoy,0,0.553
4,119,numeric,0.1,0.05,competitor,target,1,1.359
4,120,numeric,0.1,0.05,competitor,competitor,0,1.217
4,121,perceptual,0.03,0.2,competitor,decoy,0,1.283
4,122,numeric,0.03,0.2,competitor,decoy,0,1.297
4,123,perceptual,0.1,0.2,target,competitor,0,1.19
4,124,perceptual,0.03,0.05,target,decoy,0,0.664
4,125,numeric,0.03,0.05,competitor,decoy,0,0.881
4,126,perceptual,0.1,0.05,target,decoy,0,1.447
4,127,perceptual,0.03,0.2,target,competitor,0,1.287
4,128,perceptual,0.03,0.2,competitor,target,1,1.705
4,129,numeric,0.03,0.05,target,decoy,0,1.862
4,130,perceptual,0.1,0.2,competitor,competitor,0,2.463
4,131,perceptual,0.03,0.05,competitor,competitor,0,2.532
4,132,perceptual,0.03,0.2,competitor,competitor,0,1.875
4,133,numeric,0.03,0.2,target,decoy,0,2.453
4,134,numeric,0.1,0.05,target,target,1,5.28
4,135,numeric,0.03,0.05,target,target,1,9.655
4,136,numeric,0.1,0.2,competitor,target,1,10.233
4,137,numeric,0.03,0.2,competitor,decoy,0,8.507
4,138,numeric,0.03,0.2,target,target,1,7.431
4,139,perceptual,0.03,0.05,competitor,target,1,2.653
4,140,numeric,0.03,0.05,competitor,competitor,0,13.53
4,141,numeric,0.1,0.05,competitor,competitor,0,14.115
4,142,perceptual,0.1,0.2,competitor,target,1,12.981
4,143,perceptual,0.1,0.2,target,competitor,0,2.261
4,144,numeric,0.1,0.2,target,competitor,0,3.603
4,145,perceptual,0.03,0.05,competitor,competitor,0,2.501
4,146,numeric,0.1,0.05,competitor,decoy,0,0.365
4,147,perceptual,0.1,0.2,competitor,target,1,0.368
4,148,numeric,0.1,0.05,competitor,competitor,0,0.268
4,149,perceptual,0.03,0.05,target,target,1,0.27
4,150,numeric,0.03,0.2,competitor,target,1,0.338
4,151,numeric,0.1,0.05,target,target,1,0.263
4,152,numeric,0.1,0.2,target,target,1,0.288
4,153,perceptual,0.03,0.05,target,target,1,0.23
4,154,perceptual,0.1,0.05,competitor,competitor,0,0.252
4,155,numeric,0.03,0.2,target,competitor,0,0.325
4,156,numeric,0.1,0.05,target,decoy,0,0.23
4,157,perceptual,0.1,0.05,competitor,target,1,0.221
4,158,perceptual,0.1,0.2,target,decoy,0,0.214
4,159,perceptual,0.03,0.05,target,decoy,0,0.285
4,160,numeric,0.1,0.2,target,competitor,0,0.238
4,161,perceptual,0.1,0.05,competitor,competitor,0,0.364
4,162,numeric,0.03,0.05,target,competitor,0,0.441
4,163,numeric,0.03,0.2,competitor,target,1,0.303
4,164,numeric,0.03,0.2,competitor,decoy,0,0.318
4,165,numeric,0.03,0.2,target,competitor,0,0.234
4,166,perceptual,0.03,0.05,competitor,target,1,0.249
4,167,perceptual,0.03,0.2,competitor,competitor,0,0.206
4,168,numeric,0.03,0.05,target,decoy,0,0.264
4,169,numeric,0.1,0.2,target,decoy,0,0.293
4,170,numeric,0.1,0.2,competitor,competitor,0,0.349
4,171,numeric,0.03,0.05,competitor,decoy,0,0.207
4,172,perceptual,0.1,0.05,competitor,decoy,0,0.314
4,173,perceptual,0.1,0.2,target,competitor,0,0.266
4,174,numeric,0.1,0.2,target,decoy,0,0.32
4,175,perceptual,0.1,0.05,target,target,1,0.43
4,176,perceptual,0.1,0.2,competitor,competitor,0,0.285
4,177,numeric,0.1,0.05,target,competitor,0,0.345
4,178,perceptual,0.1,0.2,target,competitor,0,0.264
4,179,perceptual,0.1,0.2,target,target,1,0.168
4,180,perceptual,0.1,0.05,competitor,target,1,0.347
4,181,perceptual,0.1,0.2,target,competitor,0,0.216
4,182,perceptual,0.1,0.05,competitor,target,1,0.368
4,183,perceptual,0.03,0.05,target,competitor,0,0.318
4,184,numeric,0.1,0.2,target,competitor,0,0.351
4,185,numeric,0.03,0.2,target,target,1,0.746
4,186,perceptual,0.1,0.05,competitor,decoy,0,0.224
4,187,perceptual,0.03,0.2,target,target,1,0.32
4,188,perceptual,0.1,0.2,competitor,decoy,0,0.224
4,189,perceptual,0.03,0.2,competitor,competitor,0,0.601
4,190,numeric,0.03,0.05,competitor,target,1,0.335
4,191,perceptual,0.1,0.05,target,decoy,0,0.425
4,192,perceptual,0.1,0.05,target,target,1,1.788
5,1,numeric,0.03,0.2,competitor,competitor,0,15.784
5,2,numeric,0.1,0.05,target,target,1,15.109
5,3,perceptual,0.03,0.2,target,target,1,6.836
5,5,numeric,0.03,0.05,target,target,1,10.668
5,6,numeric,0.1,0.05,target,target,1,5.398
5,7,numeric,0.1,0.2,competitor,target,1,6.453
5,8,numeric,0.1,0.05,target,target,1,6.682
5,9,perceptual,0.1,0.05,competitor,target,1,3.368
5,10,perceptual,0.1,0.2,target,target,1,3.739
5,11,perceptual,0.03,0.05,competitor,target,1,6.571
5,12,numeric,0.03,0.05,target,target,1,4.868
5,13,perceptual,0.03,0.2,competitor,target,1,6.768
5,14,perceptual,0.1,0.2,competitor,target,1,5.821
5,15,perceptual,0.1,0.2,competitor,target,1,5.303
5,16,perceptual,0.1,0.2,target,competitor,0,4.951
5,17,numeric,0.1,0.2,competitor,target,1,3.498
5,18,perceptual,0.03,0.2,competitor,target,1,3.717
5,19,numeric,0.03,0.05,target,target,1,5.92
5,20,numeric,0.1,0.2,target,decoy,0,7.585
5,21,perceptual,0.1,0.2,competitor,target,1,4.835
5,22,perceptual,0.1,0.2,target,target,1,7.385
5,23,numeric,0.03,0.2,competitor,competitor,0,8.935
5,24,perceptual,0.03,0.05,target,target,1,7.5
5,25,perceptual,0.03,0.05,competitor,target,1,7.34
5,26,numeric,0.1,0.2,target,target,1,7.254
5,27,perceptual,0.03,0.2,competitor,target,1,6.786
5,28,numeric,0.03,0.05,competitor,competitor,0,11.585
5,29,perceptual,0.03,0.2,competitor,competitor,0,5.065
5,30,numeric,0.1,0.05,target,competitor,0,7.985
5,31,perceptual,0.1,0.2,competitor,target,1,4.634
5,32,numeric,0.1,0.05,target,target,1,9.149
5,33,numeric,0.1,0.2,competitor,target,1,4.717
5,34,numeric,0.03,0.05,target,competitor,0,7.72
5,35,perceptual,0.1,0.05,target,decoy,0,4.592
5,36,numeric,0.1,0.05,competitor,competitor,0,4.268
5,37,perceptual,0.03,0.2,competitor,target,1,3.12
5,38,numeric,0.1,0.05,competitor,competitor,0,11.937
5,39,perceptual,0.1,0.2,competitor,target,1,4.292
5,40,perceptual,0.1,0.05,competitor,target,1,5.852
5,41,perceptual,0.1,0.05,target,target,1,7.488
5,42,numeric,0.1,0.2,competitor,target,1,8.999
5,43,perceptual,0.1,0.05,competitor,competitor,0,5.417
5,44,numeric,0.1,0.2,target,target,1,9.067
5,45,perceptual,0.1,0.05,target,target,1,4.984
5,46,numeric,0.1,0.05,competitor,target,1,8.166
5,47,perceptual,0.1,0.05,target,decoy,0,10.367
5,48,numeric,0.03,0.05,competitor,competitor,0,13.167
5,49,perceptual,0.1,0.2,competitor,target,1,4.345
5,50,perceptual,0.03,0.05,competitor,decoy,0,7.942
5,51,perceptual,0.1,0.2,target,target,1,4.483
5,52,numeric,0.1,0.2,competitor,target,1,9.558
5,53,numeric,0.03,0.2,competitor,decoy,0,5.086
5,54,numeric,0.03,0.2,competitor,target,1,9.182
5,55,numeric,0.03,0.05,competitor,target,1,6.52
5,56,numeric,0.1,0.2,competitor,target,1,4.652
5,57,numeric,0.03,0.2,competitor,competitor,0,13.298
5,58,numeric,0.1,0.05,competitor,target,1,9.397
5,59,perceptual,0.03,0.05,competitor,target,1,8.035
5,60,numeric,0.1,0.05,competitor,target,1,13.781
5,61,numeric,0.03,0.2,target,competitor,0,15.315
5,62,perceptual,0.03,0.2,target,competitor,0,3.586
5,63,perceptual,0.03,0.2,competitor,competitor,0,5.353
5,64,numeric,0.1,0.05,target,target,1,8.906
5,65,numeric,0.1,0.05,competitor,target,1,6.175
5,66,perceptual,0.1,0.05,competitor,target,1,4.415
5,67,perceptual,0.03,0.2,competitor,target,1,4.231
5,68,numeric,0.03,0.05,competitor,competitor,0,7.083
5,69,perceptual,0.1,0.05,competitor,target,1,10.349
5,70,numeric,0.1,0.2,competitor,target,1,9.247
5,71,numeric,0.03,0.2,target,target,1,6.305
5,72,numeric,0.1,0.2,target,target,1,8.817
5,73,numeric,0.1,0.2,competitor,target,1,15.901
5,74,perceptual,0.03,0.05,target,target,1,4.292
5,75,numeric,0.03,0.2,target,target,1,7.799
5,76,perceptual,0.03,0.2,target,target,1,3.979
5,77,perceptual,0.03,0.2,target,target,1,4.879
5,78,perceptual,0.1,0.05,competitor,decoy,0,7.755
5,79,numeric,0.03,0.05,competitor,decoy,0,9.03
5,80,perceptual,0.1,0.05,competitor,competitor,0,5.608
5,81,numeric,0.03,0.2,target,target,1,7.921
5,82,numeric,0.03,0.2,competitor,competitor,0,8.439
5,83,perceptual,0.03,0.2,competitor,target,1,7.449
5,84,perceptual,0.03,0.05,competitor,decoy,0,6.982
5,85,perceptual,0.1,0.05,competitor,target,1,3.322
5,86,numeric,0.1,0.2,competitor,competitor,0,9.173
5,87,perceptual,0.03,0.05,target,decoy,0,7.072
5,88,perceptual,0.1,0.05,target,decoy,0,5.616
5,89,numeric,0.03,0.2,target,target,1,12.716
5,90,perceptual,0.03,0.2,target,competitor,0,5.335
5,91,numeric,0.03,0.2,target,target,1,9.782
5,92,perceptual,0.03,0.2,target,target,1,4.857
5,93,numeric,0.1,0.05,target,decoy,0,12.268
5,94,perceptual,0.03,0.05,competitor,target,1,3.683
5,95,perceptual,0.03,0.05,target,competitor,0,2.817
5,96,perceptual,0.03,0.2,competitor,target,1,3.954
5,97,numeric,0.1,0.2,target,target,1,4.115
5,98,numeric,0.03,0.05,target,target,1,9.413
5,99,perceptual,0.1,0.2,target,target,1,5.297
5,100,numeric,0.1,0.05,competitor,decoy,0,11.448
5,101,perceptual,0.1,0.2,competitor,competitor,0,7.651
5,102,numeric,0.03,0.05,target,target,1,6.241
5,103,perceptual,0.1,0.2,target,target,1,8.492
5,104,perceptual,0.03,0.05,target,target,1,9.751
5,105,numeric,0.1,0.2,target,target,1,11.134
5,106,perceptual,0.1,0.05,competitor,decoy,0,4.174
5,107,perceptual,0.03,0.2,target,competitor,0,4.275
5,108,numeric,0.1,0.2,competitor,competitor,0,6.897
5,109,perceptual,0.03,0.05,competitor,target,1,5.923
5,110,numeric,0.1,0.05,target,target,1,12.268
5,111,numeric,0.03,0.05,competitor,target,1,5.385
5,112,perceptual,0.03,0.2,competitor,target,1,7.125
5,113,numeric,0.03,0.05,competitor,target,1,4.424
5,114,perceptual,0.1,0.2,target,target,1,5.585
5,115,numeric,0.1,0.2,target,target,1,5.807
5,116,perceptual,0.03,0.2,target,target,1,6.252
5,117,perceptual,0.03,0.05,competitor,target,1,5.234
5,118,numeric,0.1,0.05,target,decoy,0,5.735
5,119,numeric,0.03,0.2,competitor,target,1,5.234
5,120,perceptual,0.1,0.05,competitor,competitor,0,4.087
5,121,perceptual,0.1,0.2,target,target,1,10.341
5,122,numeric,0.03,0.05,competitor,target,1,8.004
5,123,perceptual,0.1,0.05,target,target,1,10.165
5,124,perceptual,0.1,0.2,competitor,target,1,5.396
5,125,perceptual,0.1,0.2,target,target,1,4.331
5,126,perceptual,0.1,0.05,target,target,1,4.904
5,127,numeric,0.03,0.2,competitor,competitor,0,6.771
5,128,perceptual,0.03,0.2,target,target,1,8.659
5,129,numeric,0.03,0.05,target,target,1,5.85
5,130,perceptual,0.03,0.05,competitor,target,1,9.291
5,131,numeric,0.1,0.2,target,target,1,7.134
5,132,perceptual,0.03,0.05,target,target,1,4.425
5,133,numeric,0.03,0.05,target,target,1,8.842
5,134,numeric,0.03,0.2,target,target,1,7.303
5,135,numeric,0.1,0.05,target,target,1,9.079
5,136,perceptual,0.1,0.05,competitor,target,1,5.373
5,137,numeric,0.1,0.05,competitor,target,1,5.018
5,138,numeric,0.03,0.2,target,target,1,10.366
5,139,numeric,0.1,0.05,competitor,target,1,4.872
5,140,numeric,0.03,0.05,competitor,target,1,7.049
5,141,perceptual,0.03,0.2,target,target,1,3.757
5,142,perceptual,0.1,0.2,target,target,1,5.837
5,143,numeric,0.03,0.05,target,target,1,4.139
5,144,perceptual,0.03,0.05,target,target,1,5.954
5,145,numeric,0.1,0.2,target,target,1,4.866
5,146,numeric,0.03,0.05,target,target,1,7.404
5,147,perceptual,0.1,0.05,target,target,1,6.534
5,148,numeric,0.1,0.05,competitor,target,1,9.524
5,149,perceptual,0.1,0.05,target,target,1,5.031
5,150,perceptual,0.03,0.2,target,decoy,0,8.124
5,151,perceptual,0.1,0.2,target,target,1,9.351
5,152,perceptual,0.1,0.05,competitor,target,1,4.752
5,153,perceptual,0.03,0.2,target,target,1,4.199
5,154,perceptual,0.03,0.2,competitor,competitor,0,5.82
5,155,numeric,0.1,0.05,target,target,1,7.802
5,156,numeric,0.03,0.2,target,target,1,7.979
5,157,numeric,0.03,0.2,target,target,1,13.116
5,158,numeric,0.03,0.05,target,target,1,9.353
5,159,perceptual,0.03,0.2,competitor,target,1,3.624
5,160,numeric,0.1,0.2,target,target,1,8.318
5,161,perceptual,0.1,0.05,target,target,1,4.527
5,162,numeric,0.03,0.2,target,competitor,0,3.503
5,163,numeric,0.03,0.2,competitor,competitor,0,4.634
5,164,perceptual,0.1,0.2,target,target,1,3.028
5,165,perceptual,0.1,0.2,competitor,target,1,3.62
5,166,numeric,0.03,0.2,competitor,competitor,0,8.519
5,167,numeric,0.03,0.05,competitor,target,1,6.301
5,168,perceptual,0.03,0.05,target,target,1,3.475
5,169,perceptual,0.1,0.05,target,decoy,0,7.35
5,170,perceptual,0.03,0.05,competitor,competitor,0,8.191
5,171,perceptual,0.1,0.05,target,target,1,8.682
5,172,numeric,0.1,0.05,competitor,competitor,0,7.799
5,173,perceptual,0.1,0.2,competitor,competitor,0,4.588
5,174,numeric,0.1,0.2,target,competitor,0,12.688
5,175,perceptual,0.03,0.05,competitor,competitor,0,6.117
5,176,numeric,0.03,0.05,target,target,1,12.416
5,177,perceptual,0.1,0.2,competitor,target,1,2.975
5,178,numeric,0.1,0.2,target,target,1,4.983
5,179,perceptual,0.03,0.05,competitor,decoy,0,5.999
5,180,numeric,0.1,0.2,competitor,target,1,8.548
5,181,numeric,0.03,0.2,target,competitor,0,6.472
5,182,numeric,0.1,0.2,competitor,target,1,4.334
5,183,numeric,0.1,0.05,target,target,1,9.8
5,184,numeric,0.03,0.2,competitor,competitor,0,3.924
5,185,numeric,0.03,0.2,competitor,target,1,5.051
5,186,perceptual,0.03,0.05,target,target,1,4.882
5,187,numeric,0.03,0.05,competitor,target,1,11.714
5,188,perceptual,0.1,0.2,competitor,target,1,4.265
5,189,perceptual,0.03,0.05,target,competitor,0,5.721
5,190,perceptual,0.03,0.05,target,decoy,0,4.62
5,191,numeric,0.03,0.05,competitor,competitor,0,7.303
5,192,perceptual,0.03,0.05,target,competitor,0,5.369
6,1,perceptual,0.1,0.05,competitor,competitor,0,14.282
6,2,numeric,0.03,0.2,competitor,target,1,12.368
6,3,numeric,0.1,0.2,target,target,1,10.296
6,4,perceptual,0.1,0.2,competitor,decoy,0,7.109
6,5,perceptual,0.1,0.2,competitor,competitor,0,8.133
6,6,numeric,0.03,0.05,target,competitor,0,14.369
6,7,numeric,0.03,0.05,competitor,decoy,0,12.027
6,8,numeric,0.03,0.05,competitor,competitor,0,12.538
6,9,perceptual,0.1,0.2,competitor,decoy,0,9.388
6,10,numeric,0.03,0.05,target,competitor,0,9.268
6,11,perceptual,0.03,0.2,competitor,target,1,10.046
6,12,perceptual,0.1,0.2,target,decoy,0,9.711
6,13,numeric,0.03,0.05,competitor,target,1,7.706
6,14,numeric,0.1,0.2,target,competitor,0,10.773
6,15,numeric,0.03,0.05,competitor,target,1,7.757
6,17,numeric,0.03,0.05,target,target,1,7.29
6,18,perceptual,0.03,0.2,target,competitor,0,4.545
6,19,numeric,0.03,0.2,target,competitor,0,4.045
6,20,perceptual,0.03,0.2,competitor,decoy,0,4.977
6,21,numeric,0.03,0.2,competitor,competitor,0,6.828
6,22,numeric,0.1,0.05,competitor,target,1,6.75
6,23,perceptual,0.03,0.05,target,competitor,0,7.664
6,24,numeric,0.1,0.05,competitor,target,1,5.829
6,25,numeric,0.03,0.2,target,competitor,0,7.305
6,26,numeric,0.03,0.2,competitor,target,1,6.366
6,27,perceptual,0.03,0.05,competitor,target,1,6.946
6,28,numeric,0.1,0.05,competitor,competitor,0,6.696
6,29,perceptual,0.03,0.05,target,competitor,0,6.535
6,30,numeric,0.1,0.2,competitor,target,1,6.066
6,31,perceptual,0.1,0.2,target,competitor,0,5.618
6,32,perceptual,0.03,0.2,target,competitor,0,6.669
6,33,perceptual,0.03,0.2,target,target,1,3.625
6,34,perceptual,0.03,0.05,competitor,target,1,3.549
6,35,perceptual,0.03,0.2,competitor,target,1,5.327
6,36,perceptual,0.03,0.05,target,competitor,0,5.152
6,37,numeric,0.03,0.2,target,competitor,0,4.967
6,38,perceptual,0.1,0.05,competitor,decoy,0,5.103
6,39,numeric,0.1,0.05,target,target,1,5.187
6,40,numeric,0.1,0.05,competitor,competitor,0,4.801
6,41,numeric,0.1,0.2,target,competitor,0,7.532
6,42,perceptual,0.1,0.05,competitor,decoy,0,4.061
6,43,perceptual,0.1,0.2,competitor,target,1,5.194
6,44,perceptual,0.1,0.05,target,competitor,0,7.462
6,45,perceptual,0.1,0.05,competitor,decoy,0,5.678
6,46,perceptual,0.1,0.2,competitor,competitor,0,4.759
6,47,perceptual,0.03,0.05,target,competitor,0,4.262
6,48,numeric,0.1,0.05,competitor,target,1,8.537
6,49,perceptual,0.1,0.05,target,competitor,0,4.157
6,50,numeric,0.1,0.05,target,target,1,3.905
6,51,numeric,0.03,0.05,competitor,target,1,6.106
6,52,perceptual,0.1,0.05,competitor,competitor,0,5.356
6,53,perceptual,0.1,0.2,competitor,target,1,3.065
6,54,perceptual,0.1,0.05,competitor,target,1,7.335
6,55,perceptual,0.03,0.05,competitor,competitor,0,5.182
6,56,numeric,0.03,0.2,target,target,1,7.837
6,57,perceptual,0.1,0.2,target,decoy,0,4.528
6,58,perceptual,0.03,0.05,target,competitor,0,4.679
6,59,numeric,0.1,0.05,target,target,1,10.233
6,60,perceptual,0.03,0.2,target,decoy,0,6.298
6,61,numeric,0.03,0.2,target,competitor,0,8.314
6,62,perceptual,0.03,0.2,target,target,1,5.196
6,63,perceptual,0.03,0.05,competitor,target,1,5.348
6,64,perceptual,0.03,0.05,competitor,target,1,4.463
6,65,numeric,0.03,0.05,target,target,1,5.065
6,66,numeric,0.1,0.05,competitor,target,1,7.129
6,67,perceptual,0.03,0.05,target,target,1,4.907
6,68,numeric,0.03,0.05,target,target,1,7.867
6,69,numeric,0.03,0.2,competitor,competitor,0,4.999
6,70,perceptual,0.03,0.2,competitor,target,1,4.549
6,71,perceptual,0.03,0.05,target,competitor,0,5.48
6,72,perceptual,0.03,0.05,competitor,decoy,0,7.041
6,73,numeric,0.1,0.2,competitor,target,1,4.886
6,74,perceptual,0.1,0.05,target,decoy,0,4.149
6,75,numeric,0.1,0.2,competitor,competitor,0,5.968
6,76,numeric,0.03,0.2,competitor,target,1,4.502
6,77,perceptual,0.03,0.2,competitor,decoy,0,4.096
6,78,perceptual,0.1,0.2,competitor,competitor,0,5.216
6,79,perceptual,0.1,0.2,competitor,target,1,4.484
6,80,perceptual,0.1,0.05,target,target,1,3.762
6,81,numeric,0.1,0.2,competitor,target,1,4.436
6,82,numeric,0.1,0.2,competitor,target,1,4.002
6,83,perceptual,0.03,0.05,competitor,decoy,0,5.069
6,84,numeric,0.03,0.2,target,competitor,0,4.004
6,85,numeric,0.1,0.05,target,target,1,6.153
6,86,numeric,0.03,0.2,competitor,target,1,7.236
6,87,numeric,0.03,0.05,competitor,target,1,6.737
6,88,numeric,0.1,0.05,target,target,1,5.065
6,89,numeric,0.03,0.05,competitor,target,1,6.232
6,90,numeric,0.1,0.2,competitor,competitor,0,6.681
6,91,numeric,0.03,0.05,target,target,1,6.87
6,92,perceptual,0.1,0.2,target,competitor,0,3.634
6,93,perceptual,0.1,0.05,target,decoy,0,5.388
6,94,numeric,0.1,0.2,target,competitor,0,6.902
6,95,numeric,0.03,0.2,competitor,competitor,0,6.122
6,96,numeric,0.1,0.2,competitor,target,1,4.898
6,97,numeric,0.1,0.05,target,target,1,4.384
6,98,numeric,0.1,0.05,target,target,1,5.327
6,99,perceptual,0.1,0.05,target,decoy,0,4.768
6,100,numeric,0.03,0.05,competitor,target,1,4.853
6,101,numeric,0.1,0.05,competitor,competitor,0,7.364
6,102,perceptual,0.1,0.2,target,competitor,0,4.415
6,103,perceptual,0.1,0.2,target,competitor,0,5.736
6,104,numeric,0.1,0.2,competitor,competitor,0,5.48
6,105,perceptual,0.03,0.05,competitor,target,1,3.112
6,106,numeric,0.03,0.2,target,target,1,6.146
6,107,perceptual,0.03,0.2,competitor,competitor,0,7.299
6,108,perceptual,0.03,0.2,competitor,target,1,6.318
6,109,perceptual,0.03,0.05,competitor,target,1,4.114
6,110,numeric,0.1,0.2,target,competitor,0,4.464
6,111,perceptual,0.03,0.2,competitor,competitor,0,4.479
6,112,numeric,0.1,0.2,competitor,target,1,4.842
6,113,perceptual,0.03,0.05,target,competitor,0,4.749
6,114,perceptual,0.1,0.05,competitor,competitor,0,2.735
6,115,numeric,0.1,0.2,target,target,1,4.431
6,116,numeric,0.1,0.05,competitor,target,1,5.812
6,117,numeric,0.1,0.05,target,target,1,6.668
6,118,numeric,0.1,0.2,target,target,1,7.813
6,119,numeric,0.03,0.2,competitor,target,1,6.851
6,120,numeric,0.03,0.2,competitor,target,1,9.685
6,121,numeric,0.1,0.05,competitor,target,1,5.516
6,122,perceptual,0.1,0.05,target,decoy,0,3.347
6,123,numeric,0.1,0.05,competitor,target,1,5.433
6,124,perceptual,0.03,0.05,target,target,1,4.116
6,125,perceptual,0.1,0.2,target,competitor,0,4.314
6,126,perceptual,0.1,0.2,competitor,target,1,3.318
6,127,perceptual,0.03,0.2,target,competitor,0,4.013
6,128,perceptual,0.1,0.05,competitor,target,1,5.203
6,129,perceptual,0.1,0.05,target,competitor,0,4.541
6,130,numeric,0.03,0.2,competitor,competitor,0,3.903
6,131,perceptual,0.03,0.2,competitor,target,1,4.063
6,132,numeric,0.1,0.05,target,competitor,0,4.147
6,133,perceptual,0.1,0.05,competitor,target,1,3.803
6,134,numeric,0.1,0.2,competitor,target,1,5.316
6,135,numeric,0.03,0.2,target,competitor,0,3.81
6,136,numeric,0.03,0.05,target,target,1,6.232
6,137,perceptual,0.1,0.2,target,competitor,0,3.1
6,138,perceptual,0.1,0.2,competitor,decoy,0,4.43
6,139,perceptual,0.03,0.2,target,competitor,0,3.044
6,140,numeric,0.1,0.2,competitor,competitor,0,4.258
6,141,perceptual,0.03,0.2,competitor,decoy,0,3.722
6,142,numeric,0.1,0.2,target,target,1,6.154
6,143,perceptual,0.03,0.2,target,decoy,0,4.064
6,144,numeric,0.03,0.05,target,target,1,7.732
6,145,numeric,0.03,0.2,target,target,1,4.621
6,146,numeric,0.03,0.05,target,target,1,5.447
6,147,perceptual,0.1,0.05,target,competitor,0,3.51
6,148,numeric,0.03,0.2,target,target,1,4.436
6,149,numeric,0.03,0.05,competitor,target,1,5.305
6,150,perceptual,0.1,0.05,competitor,target,1,3.23
6,151,perceptual,0.1,0.2,target,decoy,0,4.349
6,152,perceptual,0.03,0.2,target,competitor,0,3.8
6,153,numeric,0.03,0.05,target,target,1,3.963
6,154,perceptual,0.03,0.2,target,target,1,4.212
6,155,numeric,0.03,0.05,competitor,target,1,9.312
6,156,numeric,0.03,0.2,target,competitor,0,4.812
6,157,numeric,0.1,0.2,target,target,1,5.068
6,158,perceptual,0.03,0.05,target,decoy,0,4.587
6,159,perceptual,0.1,0.2,target,competitor,0,3.956
6,160,numeric,0.1,0.05,competitor,target,1,5.263
6,161,numeric,0.1,0.05,competitor,target,1,4.139
6,162,perceptual,0.03,0.2,target,competitor,0,3.455
6,163,numeric,0.1,0.05,target,target,1,4.633
6,164,numeric,0.03,0.2,competitor,target,1,4.464
6,165,perceptual,0.1,0.2,competitor,competitor,0,4.866
6,166,perceptual,0.1,0.05,target,target,1,5.867
6,167,perceptual,0.03,0.2,competitor,target,1,3.116
6,168,numeric,0.1,0.2,target,competitor,0,3.702
6,169,perceptual,0.03,0.2,competitor,target,1,0.08
6,170,perceptual,0.1,0.2,competitor,target,1,0.705
6,171,perceptual,0.1,0.2,target,decoy,0,5.03
6,172,numeric,0.1,0.2,target,competitor,0,3.282
6,173,perceptual,0.1,0.05,target,competitor,0,3.697
6,174,numeric,0.03,0.05,competitor,competitor,0,4.56
6,175,perceptual,0.1,0.05,target,decoy,0,3.913
6,176,perceptual,0.03,0.2,target,decoy,0,4.855
6,177,numeric,0.1,0.05,target,competitor,0,3.837
6,178,perceptual,0.1,0.2,target,competitor,0,3.189
6,179,numeric,0.03,0.05,target,target,1,5.137
6,180,numeric,0.1,0.2,competitor,target,1,6.148
6,181,numeric,0.1,0.2,target,target,1,6.148
6,182,perceptual,0.1,0.05,competitor,target,1,5.479
6,183,perceptual,0.03,0.05,target,competitor,0,3.536
6,184,numeric,0.1,0.05,target,target,1,6.899
6,185,perceptual,0.03,0.05,competitor,competitor,0,3.696
6,186,perceptual,0.03,0.05,target,decoy,0,4.218
6,187,perceptual,0.03,0.05,competitor,target,1,4.913
6,188,perceptual,0.03,0.05,competitor,target,1,3.264
6,189,numeric,0.03,0.2,competitor,target,1,8.529
6,190,numeric,0.03,0.05,competitor,target,1,4.636
6,191,numeric,0.03,0.05,target,target,1,5.653
6,192,perceptual,0.1,0.05,competitor,decoy,0,3.44
7,1,numeric,0.03,0.2,competitor,competitor,0,12.259
7,2,numeric,0.1,0.2,competitor,target,1,11.722
7,3,numeric,0.1,0.2,competitor,target,1,7.369
7,4,numeric,0.03,0.2,competitor,target,1,11.654
7,5,perceptual,0.1,0.05,competitor,target,1,8.646
7,6,perceptual,0.03,0.2,target,competitor,0,8.262
7,7,numeric,0.1,0.2,competitor,competitor,0,10.932
7,8,numeric,0.03,0.2,target,competitor,0,5.149
7,9,numeric,0.03,0.05,competitor,competitor,0,4.381
7,10,numeric,0.03,0.05,target,decoy,0,4.286
7,11,numeric,0.03,0.05,competitor,decoy,0,4.067
7,12,perceptual,0.03,0.05,competitor,target,1,4.298
7,13,numeric,0.03,0.2,target,competitor,0,5.2
7,14,perceptual,0.1,0.05,target,competitor,0,5.791
7,15,numeric,0.1,0.05,competitor,target,1,5.564
7,16,perceptual,0.1,0.05,competitor,target,1,3.31
7,17,numeric,0.1,0.2,competitor,competitor,0,5.784
7,18,numeric,0.1,0.2,competitor,target,1,3.573
7,19,numeric,0.1,0.05,competitor,target,1,2.849
7,20,perceptual,0.03,0.2,competitor,competitor,0,4.372
7,21,numeric,0.1,0.2,target,competitor,0,5.091
7,22,numeric,0.1,0.2,competitor,competitor,0,4.596
7,23,perceptual,0.03,0.2,competitor,decoy,0,4.889
7,24,numeric,0.03,0.2,target,target,1,5.796
7,25,perceptual,0.03,0.2,target,competitor,0,3.371
7,26,perceptual,0.1,0.05,target,target,1,3.372
7,27,numeric,0.1,0.2,competitor,target,1,5.607
7,28,numeric,0.03,0.05,target,competitor,0,7.57
7,29,perceptual,0.03,0.2,target,competitor,0,4.851
7,30,perceptual,0.03,0.05,competitor,target,1,5.241
7,31,numeric,0.03,0.05,target,competitor,0,3.007
7,32,perceptual,0.1,0.2,target,decoy,0,5.36
7,33,numeric,0.03,0.05,target,competitor,0,7.762
7,34,perceptual,0.1,0.2,competitor,target,1,5.787
7,35,perceptual,0.1,0.05,competitor,target,1,5.314
7,36,perceptual,0.03,0.2,competitor,target,1,4.201
7,37,perceptual,0.1,0.05,competitor,competitor,0,4.011
7,38,perceptual,0.1,0.2,target,competitor,0,4.255
7,39,perceptual,0.1,0.05,target,competitor,0,3.882
7,40,perceptual,0.1,0.2,competitor,competitor,0,4.697
7,41,numeric,0.03,0.2,competitor,competitor,0,5.838
7,42,perceptual,0.1,0.2,target,target,1,3.058
7,43,numeric,0.03,0.05,target,decoy,0,3.39
7,44,numeric,0.1,0.2,target,target,1,3.23
7,45,perceptual,0.1,0.2,competitor,competitor,0,2.239
7,46,perceptual,0.1,0.05,target,decoy,0,1.952
7,47,perceptual,0.1,0.05,competitor,target,1,2.648
7,48,perceptual,0.1,0.05,target,target,1,4.309
7,49,numeric,0.03,0.2,target,decoy,0,2.565
7,50,perceptual,0.03,0.05,competitor,competitor,0,3.076
7,51,perceptual,0.1,0.2,target,target,1,4.983
7,52,perceptual,0.1,0.2,competitor,target,1,4.645
7,53,numeric,0.1,0.2,competitor,target,1,4.204
7,54,numeric,0.1,0.05,competitor,competitor,0,3.255
7,55,perceptual,0.1,0.05,competitor,decoy,0,5.297
7,56,numeric,0.1,0.2,competitor,decoy,0,3.367
7,57,perceptual,0.1,0.2,competitor,target,1,3.182
7,58,numeric,0.1,0.2,competitor,target,1,4.014
7,59,numeric,0.1,0.2,target,decoy,0,2.999
7,60,numeric,0.03,0.05,target,target,1,4.628
7,61,numeric,0.03,0.2,competitor,decoy,0,4.455
7,62,numeric,0.03,0.05,competitor,target,1,6.051
7,63,perceptual,0.1,0.2,target,competitor,0,7.495
7,64,numeric,0.1,0.05,competitor,target,1,4.517
7,65,numeric,0.03,0.2,target,competitor,0,7.897
7,66,perceptual,0.1,0.05,target,decoy,0,7.192
7,67,numeric,0.03,0.05,target,competitor,0,4.334
7,68,perceptual,0.1,0.2,target,target,1,3.866
7,69,perceptual,0.03,0.2,competitor,target,1,2.6
7,70,perceptual,0.03,0.05,target,target,1,7.501
7,71,numeric,0.1,0.05,competitor,competitor,0,5.665
7,72,numeric,0.1,0.2,competitor,target,1,3.539
7,73,perceptual,0.1,0.2,competitor,competitor,0,4.454
7,74,perceptual,0.03,0.2,competitor,competitor,0,3.73
7,75,perceptual,0.03,0.05,target,competitor,0,2.828
7,76,numeric,0.1,0.05,target,competitor,0,2.776
7,77,perceptual,0.03,0.05,competitor,competitor,0,2.607
7,78,perceptual,0.1,0.05,target,competitor,0,3.345
7,79,perceptual,0.1,0.05,target,competitor,0,3.296
7,80,perceptual,0.03,0.05,competitor,decoy,0,1.808
7,81,numeric,0.03,0.05,target,decoy,0,1.417
7,82,numeric,0.03,0.2,competitor,target,1,1.302
7,83,perceptual,0.03,0.05,competitor,decoy,0,1.348
7,84,numeric,0.1,0.05,competitor,decoy,0,4.444
7,85,perceptual,0.03,0.2,competitor,decoy,0,2.773
7,86,perceptual,0.03,0.05,target,target,1,4.881
7,87,numeric,0.1,0.2,target,target,1,3.424
7,88,perceptual,0.03,0.05,competitor,target,1,6.068
7,89,numeric,0.1,0.2,target,competitor,0,4.323
7,90,perceptual,0.03,0.05,competitor,decoy,0,4.17
7,91,numeric,0.1,0.05,competitor,decoy,0,6.986
7,92,numeric,0.03,0.2,competitor,target,1,4.567
7,93,numeric,0.03,0.2,target,competitor,0,4.815
7,94,perceptual,0.03,0.05,target,competitor,0,4.073
7,95,perceptual,0.03,0.2,target,competitor,0,4.714
7,96,perceptual,0.1,0.2,competitor,target,1,3.402
7,97,perceptual,0.1,0.2,competitor,decoy,0,4.218
7,98,numeric,0.03,0.05,competitor,target,1,5.711
7,99,numeric,0.1,0.2,target,competitor,0,8.943
7,100,numeric,0.1,0.05,target,target,1,6.041
7,101,perceptual,0.1,0.2,target,competitor,0,5.005
7,102,perceptual,0.03,0.2,competitor,target,1,4.125
7,103,perceptual,0.1,0.2,competitor,competitor,0,4.502
7,104,numeric,0.03,0.2,competitor,competitor,0,3.914
7,105,numeric,0.1,0.2,target,target,1,5.123
7,106,perceptual,0.03,0.2,target,competitor,0,2.975
7,107,perceptual,0.1,0.2,target,decoy,0,5.338
7,108,numeric,0.1,0.05,competitor,target,1,5.058
7,109,numeric,0.03,0.05,competitor,competitor,0,4.543
7,110,numeric,0.1,0.2,target,decoy,0,0.108
7,111,numeric,0.1,0.2,target,target,1,5.831
7,112,numeric,0.1,0.2,competitor,target,1,5.05
7,113,numeric,0.1,0.05,target,decoy,0,4.047
7,114,numeric,0.03,0.05,competitor,competitor,0,4.854
7,115,perceptual,0.1,0.05,target,decoy,0,6.047
7,116,numeric,0.1,0.05,target,target,1,6.819
7,117,perceptual,0.03,0.05,target,decoy,0,4.751
7,118,numeric,0.03,0.05,competitor,competitor,0,5.238
7,119,numeric,0.1,0.2,target,target,1,4.149
7,120,numeric,0.1,0.05,competitor,target,1,7.18
7,121,perceptual,0.1,0.2,competitor,competitor,0,5.16
7,122,numeric,0.03,0.2,target,competitor,0,2.907
7,123,numeric,0.03,0.2,target,target,1,4.206
7,124,perceptual,0.1,0.2,target,competitor,0,5.502
7,125,perceptual,0.03,0.2,target,target,1,3.214
7,126,perceptual,0.1,0.05,competitor,target,1,5.607
7,127,numeric,0.1,0.05,target,competitor,0,5.19
7,128,perceptual,0.03,0.2,competitor,competitor,0,7.246
7,129,perceptual,0.03,0.05,competitor,target,1,6.25
7,130,numeric,0.1,0.2,target,target,1,6.857
7,131,numeric,0.03,0.05,target,target,1,5.804
7,132,perceptual,0.1,0.05,target,competitor,0,3.314
7,133,perceptual,0.1,0.2,target,competitor,0,3.653
7,134,perceptual,0.03,0.2,competitor,decoy,0,4.715
7,135,perceptual,0.03,0.05,target,target,1,4.334
7,136,numeric,0.03,0.05,competitor,competitor,0,4.464
7,137,perceptual,0.1,0.2,target,target,1,4
7,138,numeric,0.03,0.05,competitor,target,1,5.336
7,139,perceptual,0.03,0.05,competitor,competitor,0,6.444
7,140,numeric,0.1,0.05,target,decoy,0,5.67
7,141,perceptual,0.03,0.05,target,competitor,0,4.726
7,142,numeric,0.03,0.2,target,competitor,0,4.914
7,143,numeric,0.03,0.2,competitor,competitor,0,8.212
7,144,perceptual,0.03,0.2,competitor,target,1,4.938
7,145,numeric,0.1,0.05,target,target,1,5.869
7,146,perceptual,0.1,0.05,competitor,target,1,4.315
7,147,numeric,0.1,0.05,competitor,target,1,5.207
7,148,perceptual,0.03,0.2,target,target,1,7.714
7,149,numeric,0.1,0.2,target,target,1,7.482
7,150,numeric,0.1,0.05,target,target,1,6.296
7,151,perceptual,0.03,0.05,competitor,target,1,4.979
7,152,perceptual,0.1,0.05,competitor,competitor,0,5.091
7,153,perceptual,0.03,0.05,target,competitor,0,6.367
7,154,perceptual,0.03,0.2,competitor,target,1,5.958
7,155,numeric,0.03,0.05,target,target,1,6.032
7,156,perceptual,0.1,0.05,competitor,target,1,3.337
7,157,perceptual,0.03,0.2,target,competitor,0,5.758
7,158,perceptual,0.03,0.2,competitor,decoy,0,4.564
7,159,numeric,0.03,0.2,target,competitor,0,3.753
7,160,numeric,0.03,0.05,target,competitor,0,4.223
7,161,perceptual,0.03,0.2,target,target,1,4.212
7,162,numeric,0.03,0.2,target,target,1,4.282
7,163,numeric,0.03,0.2,competitor,competitor,0,10.3
7,164,numeric,0.03,0.05,target,target,1,9.312
7,165,numeric,0.1,0.05,competitor,target,1,6.109
7,166,numeric,0.1,0.05,target,decoy,0,8.99
7,167,perceptual,0.1,0.05,target,target,1,5.528
7,168,perceptual,0.03,0.05,target,decoy,0,3.197
7,169,perceptual,0.03,0.2,target,target,1,3.379
7,170,perceptual,0.1,0.2,target,competitor,0,3.764
7,171,numeric,0.03,0.05,competitor,target,1,8.731
7,172,numeric,0.1,0.05,target,competitor,0,7.1
7,173,perceptual,0.03,0.05,target,target,1,3.198
7,174,perceptual,0.03,0.05,target,competitor,0,3.753
7,175,perceptual,0.03,0.05,competitor,decoy,0,7.755
7,176,perceptual,0.1,0.2,competitor,competitor,0,3.43
7,177,perceptual,0.1,0.05,target,competitor,0,4.174
7,178,numeric,0.03,0.2,competitor,target,1,5.153
7,179,numeric,0.03,0.2,competitor,target,1,4.815
7,180,perceptual,0.03,0.2,target,decoy,0,2.405
7,181,perceptual,0.1,0.2,competitor,competitor,0,3.158
7,182,perceptual,0.1,0.05,competitor,target,1,3.684
7,183,numeric,0.1,0.05,target,target,1,5.829
7,184,numeric,0.1,0.05,target,target,1,3.491
7,185,numeric,0.03,0.05,competitor,target,1,4.679
7,186,numeric,0.03,0.05,competitor,competitor,0,7.244
7,187,perceptual,0.1,0.05,competitor,competitor,0,4.707
7,188,numeric,0.1,0.05,competitor,target,1,4.119
7,189,perceptual,0.03,0.2,target,competitor,0,3.942
7,190,numeric,0.03,0.2,target,target,1,3.256
7,191,numeric,0.03,0.2,competitor,target,1,7.489
7,192,perceptual,0.03,0.05,target,competitor,0,2.905
8,1,numeric,0.03,0.05,target,competitor,0,12.137
8,2,numeric,0.03,0.05,target,competitor,0,6.2
8,3,perceptual,0.03,0.05,target,target,1,7.223
8,4,perceptual,0.1,0.05,competitor,target,1,6.204
8,5,perceptual,0.1,0.05,competitor,competitor,0,3.139
8,6,perceptual,0.03,0.05,competitor,target,1,5.551
8,7,numeric,0.03,0.2,competitor,target,1,9.738
8,8,perceptual,0.1,0.05,competitor,target,1,8.384
8,9,perceptual,0.1,0.2,target,target,1,7.132
8,10,numeric,0.1,0.2,target,decoy,0,9.09
8,11,numeric,0.03,0.2,target,target,1,5.208
8,12,perceptual,0.03,0.05,competitor,competitor,0,5.849
8,13,numeric,0.03,0.05,competitor,competitor,0,6.216
8,14,numeric,0.03,0.05,competitor,competitor,0,8.135
8,15,numeric,0.03,0.05,competitor,competitor,0,6.166
8,16,numeric,0.03,0.2,target,competitor,0,11.788
8,17,numeric,0.1,0.2,competitor,competitor,0,7.45
8,18,perceptual,0.03,0.05,competitor,target,1,8.334
8,19,numeric,0.03,0.05,competitor,target,1,7.116
8,20,perceptual,0.1,0.2,target,competitor,0,9.016
8,21,perceptual,0.03,0.05,target,decoy,0,8.535
8,22,perceptual,0.1,0.2,target,target,1,7.695
8,23,numeric,0.03,0.05,target,target,1,7.094
8,24,numeric,0.03,0.2,competitor,competitor,0,6.863
8,25,numeric,0.03,0.05,target,target,1,10.235
8,26,numeric,0.03,0.2,target,target,1,5.882
8,27,numeric,0.1,0.05,competitor,competitor,0,6.335
8,28,perceptual,0.1,0.2,competitor,target,1,5.118
8,29,numeric,0.03,0.05,target,target,1,7.266
8,30,numeric,0.1,0.05,target,target,1,5.484
8,31,perceptual,0.1,0.05,competitor,target,1,4.734
8,32,numeric,0.03,0.2,target,target,1,7.249
8,33,perceptual,0.03,0.2,competitor,target,1,8.557
8,34,perceptual,0.1,0.05,target,target,1,4.775
8,35,perceptual,0.1,0.05,target,decoy,0,10.499
8,36,numeric,0.1,0.05,competitor,competitor,0,7.156
8,37,perceptual,0.03,0.05,competitor,competitor,0,5.801
8,38,numeric,0.03,0.05,competitor,competitor,0,8.599
8,39,numeric,0.1,0.2,target,target,1,6.472
8,40,perceptual,0.03,0.05,competitor,decoy,0,4.091
8,41,perceptual,0.1,0.2,competitor,competitor,0,4.071
8,42,numeric,0.03,0.05,competitor,competitor,0,12.017
8,43,perceptual,0.03,0.2,competitor,competitor,0,5.837
8,44,numeric,0.1,0.05,competitor,target,1,7.449
8,45,perceptual,0.1,0.2,target,competitor,0,3.8
8,46,numeric,0.03,0.05,competitor,decoy,0,11.918
8,47,perceptual,0.1,0.2,competitor,target,1,3.588
8,48,numeric,0.1,0.2,target,target,1,6.933
8,49,numeric,0.03,0.2,competitor,target,1,6.452
8,50,perceptual,0.1,0.05,competitor,competitor,0,6.605
8,51,perceptual,0.1,0.05,target,competitor,0,4.554
8,52,numeric,0.1,0.05,competitor,target,1,7.059
8,53,perceptual,0.03,0.2,competitor,target,1,5.62
8,54,perceptual,0.03,0.2,target,competitor,0,4.652
8,55,perceptual,0.1,0.2,competitor,target,1,4.5
8,56,perceptual,0.1,0.05,competitor,competitor,0,6.303
8,57,perceptual,0.1,0.2,competitor,target,1,4.523
8,58,perceptual,0.03,0.05,competitor,decoy,0,5.305
8,59,numeric,0.03,0.05,target,target,1,8.556
8,60,numeric,0.1,0.05,target,target,1,8.781
8,61,numeric,0.03,0.2,competitor,competitor,0,8.979
8,62,perceptual,0.03,0.2,competitor,target,1,4.786
8,63,numeric,0.1,0.2,target,target,1,8.417
8,64,perceptual,0.1,0.05,target,target,1,2.95
8,65,perceptual,0.03,0.05,target,decoy,0,11.085
8,66,perceptual,0.1,0.05,competitor,target,1,5.784
8,67,perceptual,0.1,0.05,competitor,competitor,0,7.974
8,68,numeric,0.03,0.2,target,target,1,10.833
8,69,numeric,0.03,0.2,competitor,competitor,0,6.767
8,70,perceptual,0.03,0.2,competitor,competitor,0,5.519
8,71,numeric,0.1,0.05,target,target,1,4.337
8,72,perceptual,0.1,0.2,target,competitor,0,6.133
8,73,perceptual,0.1,0.05,target,decoy,0,5.166
8,74,numeric,0.1,0.2,target,target,1,5.4
8,75,perceptual,0.03,0.05,competitor,competitor,0,3.633
8,76,perceptual,0.1,0.2,competitor,target,1,2.988
8,77,perceptual,0.1,0.2,target,target,1,3.289
8,78,perceptual,0.03,0.05,target,target,1,6.572
8,79,perceptual,0.03,0.2,target,target,1,3.8
8,80,numeric,0.1,0.2,competitor,target,1,8.272
8,81,numeric,0.1,0.2,competitor,target,1,6.718
8,82,perceptual,0.1,0.2,target,target,1,7.183
8,83,perceptual,0.1,0.05,target,target,1,4.666
8,84,numeric,0.1,0.2,target,target,1,5.922
8,85,numeric,0.1,0.2,competitor,competitor,0,5.649
8,86,numeric,0.1,0.2,target,competitor,0,9.269
8,87,numeric,0.03,0.2,competitor,competitor,0,6.883
8,88,perceptual,0.03,0.2,target,target,1,3.921
8,89,perceptual,0.03,0.05,target,competitor,0,5.069
8,90,perceptual,0.03,0.2,target,competitor,0,4.733
8,91,numeric,0.03,0.2,target,target,1,6.22
8,92,perceptual,0.1,0.05,target,target,1,4.573
8,93,numeric,0.1,0.05,target,target,1,8.449
8,94,perceptual,0.1,0.05,competitor,competitor,0,4.823
8,95,numeric,0.1,0.05,target,target,1,9.819
8,96,perceptual,0.03,0.2,competitor,competitor,0,4.917
8,97,perceptual,0.03,0.2,competitor,target,1,4.521
8,98,numeric,0.1,0.05,target,target,1,7.148
8,99,perceptual,0.1,0.05,target,target,1,3.913
8,100,numeric,0.1,0.05,target,target,1,10.205
8,101,numeric,0.1,0.05,target,target,1,4.981
8,102,numeric,0.03,0.05,competitor,competitor,0,4.903
8,103,perceptual,0.1,0.05,target,competitor,0,3.818
8,104,perceptual,0.03,0.2,target,competitor,0,2.953
8,105,numeric,0.1,0.05,competitor,competitor,0,7.99
8,106,numeric,0.03,0.2,target,competitor,0,8.834
8,107,perceptual,0.03,0.05,target,competitor,0,5.42
8,108,perceptual,0.03,0.2,target,target,1,5.665
8,109,perceptual,0.03,0.2,competitor,competitor,0,3.349
8,110,numeric,0.03,0.2,target,decoy,0,3.412
8,111,perceptual,0.1,0.2,target,competitor,0,4.47
8,112,numeric,0.03,0.2,target,target,1,9.3
8,113,numeric,0.03,0.2,competitor,target,1,7.333
8,114,perceptual,0.1,0.2,competitor,target,1,3.072
8,115,numeric,0.03,0.05,target,target,1,4.866
8,116,numeric,0.03,0.05,target,target,1,8.18
8,117,perceptual,0.03,0.05,competitor,decoy,0,7.57
8,118,numeric,0.03,0.2,competitor,competitor,0,6.566
8,119,numeric,0.1,0.05,competitor,target,1,12.419
8,120,numeric,0.03,0.05,target,decoy,0,6.482
8,121,numeric,0.1,0.05,competitor,target,1,7.55
8,122,perceptual,0.1,0.2,competitor,target,1,3.449
8,123,numeric,0.03,0.2,competitor,target,1,5.817
8,124,numeric,0.03,0.05,competitor,target,1,4.849
8,125,numeric,0.1,0.05,competitor,decoy,0,6.342
8,126,numeric,0.1,0.05,competitor,competitor,0,6.705
8,127,perceptual,0.1,0.2,competitor,target,1,3.028
8,128,perceptual,0.1,0.2,competitor,target,1,2.663
8,129,perceptual,0.03,0.2,competitor,target,1,3.985
8,130,perceptual,0.1,0.2,target,target,1,3.052
8,131,perceptual,0.1,0.2,target,target,1,3.301
8,132,numeric,0.1,0.2,target,target,1,7.133
8,133,numeric,0.1,0.05,competitor,competitor,0,4.949
8,134,numeric,0.1,0.05,competitor,target,1,5.534
8,135,perceptual,0.03,0.05,target,competitor,0,1.216
8,136,perceptual,0.03,0.2,competitor,target,1,3.199
8,137,perceptual,0.03,0.05,competitor,target,1,3.55
8,138,numeric,0.1,0.05,competitor,target,1,6.45
8,139,perceptual,0.03,0.05,target,decoy,0,4.862
8,140,perceptual,0.03,0.05,competitor,decoy,0,3.513
8,141,numeric,0.1,0.2,competitor,target,1,8.1
8,142,numeric,0.1,0.05,target,target,1,9.849
8,143,numeric,0.1,0.2,target,target,1,4.085
8,144,numeric,0.1,0.2,competitor,target,1,6.7
8,145,numeric,0.1,0.2,competitor,competitor,0,5.752
8,146,numeric,0.03,0.05,competitor,competitor,0,10.552
8,147,perceptual,0.1,0.2,competitor,target,1,2.84
8,148,perceptual,0.1,0.2,target,target,1,3.618
8,149,perceptual,0.1,0.2,target,target,1,3.586
8,150,numeric,0.03,0.2,competitor,competitor,0,6.767
8,151,perceptual,0.03,0.2,competitor,target,1,3.341
8,152,perceptual,0.1,0.05,target,target,1,7.214
8,153,perceptual,0.03,0.05,target,target,1,3.98
8,154,perceptual,0.03,0.05,target,competitor,0,3.847
8,155,numeric,0.03,0.05,target,target,1,7.733
8,156,perceptual,0.03,0.05,target,competitor,0,5.437
8,157,perceptual,0.03,0.2,target,target,1,3.568
8,158,perceptual,0.1,0.05,competitor,decoy,0,6.634
8,159,perceptual,0.03,0.2,target,target,1,3.581
8,160,perceptual,0.1,0.2,competitor,target,1,2.737
8,161,numeric,0.03,0.05,competitor,competitor,0,5.211
8,162,numeric,0.1,0.2,competitor,competitor,0,6.795
8,163,numeric,0.1,0.2,competitor,competitor,0,7.896
8,164,perceptual,0.1,0.05,target,target,1,2.434
8,165,numeric,0.1,0.2,competitor,target,1,4.054
8,166,numeric,0.1,0.2,competitor,competitor,0,6.318
8,167,perceptual,0.03,0.05,target,target,1,5.451
8,168,perceptual,0.03,0.2,target,target,1,3.272
8,169,numeric,0.03,0.2,competitor,target,1,5.636
8,170,numeric,0.03,0.05,target,target,1,10.208
8,171,perceptual,0.03,0.2,target,target,1,3.732
8,172,perceptual,0.03,0.2,target,target,1,4.314
8,173,numeric,0.03,0.05,target,target,1,7.529
8,174,numeric,0.03,0.05,competitor,target,1,4.371
8,175,numeric,0.1,0.2,target,target,1,6.301
8,176,numeric,0.1,0.2,competitor,competitor,0,7.669
8,177,perceptual,0.1,0.05,target,target,1,5.477
8,178,numeric,0.03,0.2,target,target,1,5.168
8,179,numeric,0.1,0.2,target,target,1,4.33
8,180,numeric,0.1,0.05,target,target,1,7.139
8,181,perceptual,0.03,0.2,competitor,target,1,3.668
8,182,numeric,0.1,0.2,target,target,1,10.666
8,183,perceptual,0.03,0.05,competitor,decoy,0,3.651
8,184,numeric,0.03,0.2,target,competitor,0,11.42
8,185,perceptual,0.1,0.05,competitor,target,1,3.368
8,186,numeric,0.1,0.05,target,target,1,5.348
8,187,perceptual,0.03,0.05,competitor,competitor,0,5.62
8,188,perceptual,0.1,0.05,competitor,decoy,0,2.72
8,189,numeric,0.03,0.2,competitor,competitor,0,3.903
8,190,numeric,0.03,0.2,target,target,1,7.317
8,191,numeric,0.1,0.05,target,target,1,11.901
8,192,perceptual,0.03,0.2,target,target,1,3.42
9,1,perceptual,0.1,0.05,competitor,target,1,11.289
9,3,numeric,0.03,0.05,target,target,1,0.185
9,4,perceptual,0.1,0.05,target,target,1,6.052
9,5,numeric,0.03,0.05,target,competitor,0,4.371
9,6,perceptual,0.1,0.2,target,competitor,0,4.804
9,7,perceptual,0.1,0.05,competitor,target,1,3.256
9,8,numeric,0.1,0.05,competitor,target,1,13.249
9,9,numeric,0.03,0.05,competitor,competitor,0,14.071
9,10,numeric,0.1,0.05,target,competitor,0,11.951
9,11,perceptual,0.03,0.05,competitor,target,1,3.126
9,12,numeric,0.03,0.2,competitor,target,1,4.292
9,13,numeric,0.1,0.05,target,target,1,11.358
9,14,numeric,0.03,0.2,target,competitor,0,4.244
9,15,perceptual,0.1,0.05,competitor,target,1,4.562
9,16,perceptual,0.03,0.05,target,target,1,8.365
9,17,numeric,0.1,0.2,competitor,target,1,4.651
9,18,numeric,0.1,0.2,target,target,1,9.7
9,19,numeric,0.03,0.05,target,target,1,15.198
9,21,perceptual,0.1,0.2,competitor,decoy,0,0.325
9,22,perceptual,0.03,0.05,competitor,target,1,3.57
9,23,perceptual,0.1,0.2,target,target,1,4.514
9,24,perceptual,0.1,0.2,competitor,target,1,3.254
9,25,numeric,0.1,0.2,competitor,target,1,6.229
9,26,numeric,0.1,0.2,competitor,target,1,8.313
9,27,perceptual,0.03,0.2,competitor,target,1,10.242
9,28,perceptual,0.1,0.2,target,target,1,4.021
9,29,perceptual,0.03,0.2,target,competitor,0,6.401
9,30,perceptual,0.03,0.2,competitor,target,1,4.824
9,31,perceptual,0.1,0.05,competitor,target,1,4.664
9,32,numeric,0.03,0.2,competitor,competitor,0,12.658
9,33,perceptual,0.1,0.05,target,target,1,9.025
9,34,numeric,0.1,0.2,target,target,1,8.509
9,35,perceptual,0.03,0.2,target,target,1,3.497
9,36,perceptual,0.1,0.05,target,target,1,6.848
9,37,perceptual,0.03,0.05,target,competitor,0,6.119
9,38,perceptual,0.03,0.2,competitor,competitor,0,14.3
9,39,perceptual,0.1,0.2,competitor,target,1,7.37
9,40,numeric,0.1,0.05,competitor,target,1,11.432
9,41,numeric,0.1,0.2,competitor,target,1,8.493
9,42,numeric,0.1,0.05,competitor,decoy,0,11.369
9,43,perceptual,0.03,0.05,target,competitor,0,6.469
9,44,perceptual,0.03,0.05,target,target,1,9.889
9,45,perceptual,0.1,0.05,competitor,target,1,8.994
9,46,perceptual,0.03,0.2,competitor,competitor,0,10.048
9,47,numeric,0.1,0.2,competitor,competitor,0,11.476
9,48,perceptual,0.1,0.2,target,target,1,3.212
9,49,numeric,0.03,0.2,target,competitor,0,5.776
9,50,numeric,0.03,0.05,target,target,1,10.129
9,51,perceptual,0.1,0.05,competitor,target,1,5.114
9,52,numeric,0.03,0.2,target,target,1,5.353
9,53,perceptual,0.1,0.05,target,target,1,3.064
9,54,perceptual,0.1,0.05,target,target,1,2.235
9,55,numeric,0.03,0.2,target,target,1,12.102
9,56,perceptual,0.03,0.05,target,competitor,0,3.905
9,57,numeric,0.03,0.2,competitor,competitor,0,14.573
9,58,numeric,0.03,0.05,competitor,competitor,0,17.555
9,59,numeric,0.1,0.05,competitor,target,1,7.748
9,60,numeric,0.1,0.05,target,competitor,0,6.018
9,61,numeric,0.1,0.2,target,competitor,0,6.683
9,62,numeric,0.03,0.2,competitor,competitor,0,10.466
9,63,perceptual,0.03,0.2,competitor,target,1,7.803
9,64,numeric,0.03,0.2,target,target,1,4.638
9,65,perceptual,0.03,0.05,competitor,competitor,0,7.204
9,66,perceptual,0.03,0.2,competitor,competitor,0,6.634
9,67,perceptual,0.03,0.2,competitor,target,1,2.538
9,68,numeric,0.1,0.2,competitor,competitor,0,9.292
9,69,numeric,0.03,0.2,competitor,target,1,3.688
9,70,perceptual,0.1,0.2,competitor,decoy,0,2.318
9,71,numeric,0.03,0.2,target,target,1,2.76
9,72,numeric,0.1,0.2,target,target,1,2.121
9,73,numeric,0.03,0.05,competitor,competitor,0,4.321
9,74,numeric,0.03,0.2,competitor,target,1,2.009
9,75,perceptual,0.03,0.2,target,competitor,0,2
9,76,numeric,0.1,0.05,target,decoy,0,2.196
9,77,perceptual,0.1,0.05,competitor,decoy,0,2.397
9,78,perceptual,0.1,0.2,competitor,target,1,2.722
9,79,perceptual,0.03,0.05,target,decoy,0,2
9,80,perceptual,0.1,0.2,target,target,1,2.224
9,81,perceptual,0.03,0.05,competitor,target,1,2.1
9,82,numeric,0.1,0.05,target,target,1,2.567
9,83,perceptual,0.1,0.2,target,target,1,2.657
9,84,numeric,0.03,0.05,competitor,target,1,1.989
9,85,perceptual,0.1,0.05,target,target,1,3.366
9,86,numeric,0.03,0.05,competitor,decoy,0,2.518
9,87,numeric,0.1,0.05,competitor,competitor,0,2.349
9,88,perceptual,0.03,0.2,target,target,1,2.739
9,89,numeric,0.1,0.05,competitor,decoy,0,1.821
9,90,perceptual,0.03,0.05,target,competitor,0,1.612
9,91,numeric,0.1,0.2,competitor,decoy,0,1.431
9,92,numeric,0.1,0.05,competitor,decoy,0,1.442
9,93,perceptual,0.03,0.05,competitor,competitor,0,1.653
9,94,numeric,0.03,0.05,competitor,decoy,0,1.689
9,95,perceptual,0.1,0.2,competitor,target,1,2.136
9,96,perceptual,0.03,0.2,target,target,1,1.889
9,97,numeric,0.03,0.05,target,decoy,0,1.511
9,98,perceptual,0.1,0.05,target,competitor,0,1.37
9,99,perceptual,0.03,0.05,target,competitor,0,1.449
9,100,perceptual,0.1,0.2,competitor,target,1,1.693
9,101,numeric,0.03,0.05,target,competitor,0,2.069
9,102,numeric,0.1,0.05,competitor,target,1,2.308
9,103,numeric,0.03,0.2,competitor,target,1,5.397
9,104,numeric,0.03,0.2,target,target,1,2.064
9,105,numeric,0.1,0.2,competitor,target,1,2.082
9,106,perceptual,0.1,0.05,competitor,target,1,2.236
9,107,numeric,0.1,0.2,target,target,1,3.399
9,108,numeric,0.1,0.05,target,target,1,5.421
9,109,perceptual,0.03,0.05,competitor,decoy,0,6.374
9,110,perceptual,0.03,0.2,competitor,competitor,0,10.795
9,111,numeric,0.03,0.05,target,decoy,0,3.423
9,112,numeric,0.1,0.2,target,decoy,0,2.027
9,113,perceptual,0.03,0.05,target,target,1,3.055
9,114,numeric,0.1,0.2,target,target,1,2.429
9,115,numeric,0.03,0.2,target,target,1,2.313
9,116,perceptual,0.1,0.2,competitor,target,1,2.199
9,117,perceptual,0.1,0.05,target,competitor,0,5.469
9,118,perceptual,0.03,0.2,competitor,competitor,0,3.721
9,119,perceptual,0.03,0.2,target,target,1,1.8
9,120,numeric,0.03,0.2,target,decoy,0,2.612
9,121,numeric,0.03,0.05,target,decoy,0,2.574
9,122,perceptual,0.1,0.2,target,decoy,0,1.807
9,123,numeric,0.03,0.05,competitor,target,1,2.57
9,124,perceptual,0.1,0.2,target,target,1,2.211
9,125,perceptual,0.1,0.05,target,target,1,2.147
9,126,numeric,0.1,0.2,target,competitor,0,3.223
9,127,perceptual,0.1,0.2,competitor,target,1,2.883
9,128,numeric,0.1,0.2,competitor,competitor,0,3.762
9,129,numeric,0.1,0.2,target,target,1,3.83
9,130,numeric,0.1,0.2,competitor,competitor,0,1.766
9,131,numeric,0.03,0.05,competitor,competitor,0,1.956
9,132,numeric,0.1,0.05,target,target,1,2.399
9,133,perceptual,0.03,0.2,target,competitor,0,3.383
9,134,numeric,0.1,0.05,target,decoy,0,2.252
9,135,perceptual,0.1,0.05,competitor,competitor,0,2.499
9,136,numeric,0.1,0.2,competitor,competitor,0,2.168
9,137,numeric,0.03,0.2,competitor,decoy,0,2.507
9,138,perceptual,0.03,0.05,competitor,target,1,1.854
9,139,numeric,0.1,0.05,target,target,1,1.614
9,140,perceptual,0.03,0.2,target,target,1,1.944
9,141,numeric,0.1,0.2,target,target,1,2.209
9,142,numeric,0.1,0.2,target,target,1,4.343
9,143,perceptual,0.03,0.05,target,target,1,2.258
9,144,perceptual,0.03,0.05,competitor,target,1,2.284
9,145,perceptual,0.03,0.05,competitor,target,1,4.032
9,146,perceptual,0.03,0.2,competitor,target,1,3.153
9,147,perceptual,0.03,0.05,target,target,1,7.99
9,148,numeric,0.1,0.05,target,target,1,2.833
9,149,numeric,0.03,0.05,competitor,competitor,0,2.858
9,150,perceptual,0.1,0.2,target,target,1,2.672
9,151,numeric,0.03,0.05,competitor,competitor,0,11.398
9,152,perceptual,0.1,0.2,competitor,target,1,4.144
9,153,perceptual,0.1,0.05,competitor,target,1,4.286
9,154,numeric,0.03,0.2,target,decoy,0,7.097
9,155,numeric,0.03,0.2,target,competitor,0,0.309
9,156,numeric,0.03,0.05,target,target,1,6.944
9,157,perceptual,0.03,0.05,competitor,competitor,0,3.166
9,158,perceptual,0.1,0.05,competitor,target,1,3.29
9,159,perceptual,0.1,0.2,target,decoy,0,3.8
9,160,numeric,0.03,0.2,competitor,target,1,5.702
9,161,perceptual,0.1,0.2,competitor,target,1,2.26
9,162,numeric,0.03,0.2,competitor,competitor,0,6.478
9,163,perceptual,0.03,0.2,target,target,1,3.207
9,164,perceptual,0.1,0.2,target,target,1,3.301
9,165,numeric,0.03,0.05,target,target,1,3.973
9,166,perceptual,0.03,0.2,competitor,target,1,4.213
9,167,numeric,0.03,0.2,target,competitor,0,3.924
9,168,numeric,0.1,0.2,competitor,competitor,0,3.334
9,169,perceptual,0.03,0.05,target,decoy,0,4.748
9,170,numeric,0.1,0.05,competitor,competitor,0,2.485
9,171,perceptual,0.1,0.05,target,target,1,6.273
9,172,numeric,0.1,0.2,target,target,1,2.02
9,173,perceptual,0.03,0.2,target,target,1,2.146
9,174,perceptual,0.1,0.05,target,competitor,0,1.723
9,175,perceptual,0.03,0.05,competitor,competitor,0,2.625
9,176,perceptual,0.03,0.05,competitor,target,1,3.064
9,177,numeric,0.1,0.05,competitor,target,1,3.212
9,178,numeric,0.1,0.05,target,target,1,1.83
9,179,numeric,0.03,0.2,competitor,target,1,2.16
9,180,numeric,0.03,0.05,competitor,target,1,2.193
9,182,perceptual,0.03,0.2,target,target,1,2.154
9,183,perceptual,0.1,0.2,target,target,1,4.403
9,184,perceptual,0.03,0.2,target,target,1,15.243
9,185,numeric,0.1,0.05,competitor,decoy,0,9.457
9,186,perceptual,0.1,0.05,competitor,target,1,4.631
9,187,perceptual,0.1,0.05,target,target,1,5.307
9,188,numeric,0.1,0.05,competitor,competitor,0,3.08
9,189,numeric,0.03,0.2,competitor,target,1,3.372
9,190,perceptual,0.03,0.2,competitor,target,1,5.739
9,191,perceptual,0.1,0.2,competitor,competitor,0,4.327
9,192,numeric,0.1,0.05,target,target,1,1.718
10,1,numeric,0.1,0.2,competitor,competitor,0,13.265
10,2,perceptual,0.03,0.05,competitor,decoy,0,7.646
10,3,numeric,0.1,0.05,competitor,competitor,0,15.212
10,4,numeric,0.03,0.2,competitor,target,1,8.77
10,5,numeric,0.1,0.2,competitor,competitor,0,13.802
10,6,numeric,0.03,0.05,target,target,1,8.36
10,7,numeric,0.1,0.05,target,competitor,0,10.053
10,8,numeric,0.03,0.05,competitor,target,1,8.41
10,9,perceptual,0.1,0.05,competitor,target,1,6.725
10,10,numeric,0.1,0.2,target,competitor,0,13.415
10,11,perceptual,0.1,0.2,competitor,target,1,8.348
10,12,perceptual,0.1,0.05,target,target,1,3.637
10,13,perceptual,0.03,0.2,target,target,1,3.723
10,14,perceptual,0.03,0.05,competitor,target,1,3.241
10,15,perceptual,0.03,0.05,competitor,competitor,0,3.094
10,16,perceptual,0.03,0.05,competitor,decoy,0,5.807
10,17,perceptual,0.03,0.2,competitor,target,1,4.177
10,18,perceptual,0.1,0.05,target,target,1,3.688
10,19,perceptual,0.1,0.05,competitor,competitor,0,4.518
10,20,perceptual,0.03,0.05,competitor,target,1,10.589
10,21,numeric,0.03,0.05,target,target,1,8.213
10,22,perceptual,0.03,0.2,target,target,1,6.592
10,23,numeric,0.03,0.05,target,competitor,0,14.127
10,24,numeric,0.03,0.05,competitor,decoy,0,13.77
10,25,numeric,0.1,0.2,target,target,1,13.334
10,26,perceptual,0.1,0.05,target,decoy,0,3.669
10,27,numeric,0.03,0.2,target,target,1,10.204
10,28,perceptual,0.1,0.2,target,decoy,0,0.216
10,29,perceptual,0.1,0.2,target,competitor,0,5.428
10,30,numeric,0.1,0.05,target,target,1,10.938
10,31,perceptual,0.03,0.2,target,target,1,3.752
10,32,perceptual,0.03,0.05,target,target,1,4.03
10,33,numeric,0.03,0.2,competitor,target,1,17.252
10,34,perceptual,0.03,0.2,competitor,target,1,4.704
10,35,perceptual,0.1,0.2,target,target,1,3.672
10,36,perceptual,0.1,0.2,competitor,target,1,4.177
10,37,perceptual,0.1,0.2,target,target,1,3.349
10,38,numeric,0.1,0.2,target,target,1,7.696
10,39,perceptual,0.03,0.05,competitor,target,1,3.184
10,40,perceptual,0.03,0.2,competitor,decoy,0,2.216
10,41,perceptual,0.1,0.05,competitor,target,1,3.196
10,42,numeric,0.1,0.2,target,target,1,12.256
10,43,numeric,0.03,0.05,competitor,target,1,7.852
10,44,numeric,0.03,0.05,target,decoy,0,8.426
10,45,perceptual,0.03,0.05,competitor,target,1,3.247
10,46,numeric,0.1,0.05,competitor,target,1,4.191
10,47,numeric,0.1,0.2,competitor,target,1,7.696
10,48,numeric,0.1,0.05,competitor,target,1,13.381
10,49,numeric,0.03,0.2,target,target,1,9.747
10,50,numeric,0.03,0.2,target,competitor,0,10.247
10,51,numeric,0.03,0.05,competitor,competitor,0,14.44
10,52,perceptual,0.1,0.05,competitor,target,1,5.799
10,53,perceptual,0.1,0.05,target,target,1,4.528
10,54,numeric,0.03,0.2,competitor,competitor,0,6.226
10,55,perceptual,0.1,0.2,competitor,target,1,3.245
10,56,perceptual,0.1,0.05,target,target,1,2.884
10,57,perceptual,0.03,0.2,competitor,competitor,0,3.222
10,59,perceptual,0.1,0.05,target,target,1,1.378
10,60,perceptual,0.03,0.05,target,target,1,2.555
10,61,numeric,0.1,0.2,competitor,competitor,0,4.351
10,62,perceptual,0.1,0.2,target,target,1,4.473
10,63,perceptual,0.03,0.05,target,target,1,3.372
10,64,numeric,0.1,0.05,target,target,1,5.551
10,65,perceptual,0.1,0.2,target,target,1,4.048
10,66,numeric,0.03,0.2,target,competitor,0,7.707
10,67,numeric,0.03,0.2,competitor,competitor,0,9.052
10,68,numeric,0.03,0.05,competitor,target,1,14.139
10,69,perceptual,0.1,0.05,competitor,target,1,3.049
10,70,numeric,0.03,0.2,competitor,target,1,9.416
10,71,numeric,0.03,0.2,competitor,target,1,13.879
10,72,numeric,0.1,0.2,competitor,target,1,8.344
10,73,numeric,0.1,0.05,competitor,target,1,7.349
10,74,numeric,0.03,0.05,target,target,1,12.83
10,75,perceptual,0.1,0.05,competitor,competitor,0,5.067
10,76,perceptual,0.1,0.2,competitor,competitor,0,2.65
10,77,numeric,0.1,0.05,target,target,1,16.281
10,78,perceptual,0.1,0.05,target,target,1,4.826
10,79,numeric,0.03,0.2,target,target,1,7.921
10,80,perceptual,0.1,0.2,target,target,1,4.202
10,81,perceptual,0.1,0.2,competitor,target,1,3.094
10,82,perceptual,0.03,0.2,target,competitor,0,2.518
10,83,numeric,0.1,0.05,target,decoy,0,13.427
10,84,perceptual,0.03,0.2,competitor,competitor,0,3.558
10,85,numeric,0.03,0.05,competitor,competitor,0,16.682
10,86,perceptual,0.1,0.2,competitor,target,1,4.444
10,88,perceptual,0.1,0.2,target,target,1,2.61
10,89,perceptual,0.03,0.2,target,competitor,0,2.142
10,90,perceptual,0.1,0.05,competitor,target,1,3.889
10,91,numeric,0.03,0.05,competitor,competitor,0,10.216
10,92,numeric,0.1,0.05,target,target,1,11.66
10,93,numeric,0.1,0.2,target,target,1,9.182
10,94,numeric,0.1,0.2,competitor,target,1,9.403
10,95,numeric,0.03,0.2,target,target,1,11.18
10,96,perceptual,0.1,0.2,target,target,1,4.55
10,97,perceptual,0.1,0.05,target,decoy,0,2.791
10,98,perceptual,0.03,0.05,target,decoy,0,4.522
10,99,perceptual,0.03,0.2,competitor,competitor,0,4.82
10,100,numeric,0.03,0.05,competitor,target,1,8.47
10,101,numeric,0.03,0.2,target,target,1,12.65
10,102,perceptual,0.03,0.05,competitor,competitor,0,5.009
10,103,numeric,0.1,0.2,target,target,1,12.909
10,104,numeric,0.1,0.2,competitor,target,1,11.305
10,105,numeric,0.03,0.2,competitor,competitor,0,10.641
10,106,perceptual,0.1,0.05,competitor,target,1,4.55
10,107,perceptual,0.1,0.2,target,target,1,2.642
10,108,perceptual,0.1,0.2,competitor,target,1,7.71
10,109,numeric,0.03,0.2,target,competitor,0,12.802
10,110,perceptual,0.03,0.05,target,decoy,0,2.605
10,111,perceptual,0.1,0.05,target,decoy,0,5.482
10,112,numeric,0.1,0.05,target,target,1,8.488
10,113,numeric,0.1,0.05,competitor,target,1,8.793
10,114,perceptual,0.03,0.05,target,target,1,3.796
10,115,numeric,0.03,0.2,target,target,1,10.657
10,116,numeric,0.03,0.05,competitor,target,1,12.673
10,117,perceptual,0.1,0.2,competitor,competitor,0,5.525
10,118,perceptual,0.03,0.2,target,competitor,0,3.848
10,119,perceptual,0.1,0.2,target,competitor,0,2.671
10,120,perceptual,0.03,0.05,competitor,target,1,4.511
10,121,numeric,0.1,0.05,target,target,1,8.884
10,122,perceptual,0.03,0.2,competitor,target,1,3.708
10,123,numeric,0.03,0.05,target,target,1,9.318
10,124,numeric,0.1,0.05,target,target,1,14.4
10,125,numeric,0.1,0.05,competitor,target,1,11.69
10,126,numeric,0.03,0.2,competitor,target,1,11.579
10,127,numeric,0.03,0.2,competitor,competitor,0,10.101
10,128,numeric,0.1,0.2,target,competitor,0,10.342
10,129,perceptual,0.03,0.2,competitor,competitor,0,2.927
10,130,numeric,0.1,0.05,target,target,1,10.537
10,131,perceptual,0.03,0.05,competitor,decoy,0,6.069
10,132,numeric,0.1,0.2,competitor,target,1,11.085
10,133,perceptual,0.03,0.2,competitor,competitor,0,3.122
10,134,numeric,0.1,0.2,target,competitor,0,7.98
10,135,perceptual,0.1,0.05,target,decoy,0,2.397
10,136,perceptual,0.1,0.05,target,target,1,5.438
10,137,perceptual,0.03,0.2,target,target,1,5.635
10,138,perceptual,0.03,0.05,target,decoy,0,5.486
10,139,perceptual,0.03,0.2,target,target,1,2.824
10,140,perceptual,0.03,0.05,competitor,competitor,0,3.297
10,141,perceptual,0.1,0.05,competitor,target,1,3.526
10,142,numeric,0.03,0.05,target,target,1,9.677
10,143,perceptual,0.1,0.05,competitor,target,1,4.238
10,144,numeric,0.03,0.05,competitor,competitor,0,7.828
10,145,numeric,0.03,0.05,target,target,1,13.883
10,146,numeric,0.1,0.05,target,target,1,7.381
10,147,perceptual,0.03,0.05,target,target,1,5.927
10,148,numeric,0.03,0.2,competitor,competitor,0,9.163
10,149,perceptual,0.1,0.2,target,target,1,2.807
10,150,numeric,0.1,0.05,competitor,target,1,10.89
10,151,numeric,0.03,0.05,target,target,1,10.053
10,152,numeric,0.1,0.05,competitor,target,1,14.083
10,153,numeric,0.1,0.2,competitor,target,1,12.026
10,154,perceptual,0.1,0.2,competitor,target,1,3.144
10,155,numeric,0.03,0.2,target,target,1,11.429
10,156,perceptual,0.1,0.2,competitor,target,1,3.265
10,157,numeric,0.03,0.05,target,target,1,11.061
10,158,perceptual,0.03,0.05,competitor,target,1,3.304
10,159,numeric,0.1,0.05,competitor,competitor,0,10.446
10,160,numeric,0.03,0.2,competitor,target,1,11.193
10,161,perceptual,0.1,0.2,competitor,target,1,3.504
10,162,numeric,0.03,0.2,target,target,1,9.903
10,163,perceptual,0.03,0.05,target,target,1,3.269
10,164,perceptual,0.03,0.2,competitor,target,1,3.609
10,165,numeric,0.03,0.05,target,target,1,12.35
10,166,numeric,0.1,0.05,competitor,target,1,10.658
10,167,numeric,0.1,0.2,target,target,1,15.828
10,168,numeric,0.1,0.2,target,target,1,18.904
10,169,numeric,0.1,0.2,competitor,target,1,15.795
10,170,numeric,0.03,0.05,competitor,target,1,11.022
10,171,numeric,0.1,0.05,competitor,target,1,10.944
10,172,perceptual,0.03,0.2,target,target,1,3.01
10,173,perceptual,0.03,0.2,target,competitor,0,2.254
10,174,perceptual,0.03,0.05,target,competitor,0,3.313
10,175,numeric,0.1,0.2,competitor,target,1,10.087
10,176,perceptual,0.03,0.2,target,target,1,4.65
10,177,numeric,0.1,0.05,competitor,target,1,11.366
10,178,perceptual,0.03,0.05,target,target,1,4.97
10,179,perceptual,0.03,0.2,competitor,competitor,0,2.645
10,180,numeric,0.1,0.2,target,target,1,10.223
10,181,perceptual,0.03,0.05,target,target,1,2.926
10,182,perceptual,0.03,0.2,target,target,1,7.573
10,183,numeric,0.03,0.05,target,target,1,10.62
10,184,numeric,0.1,0.05,target,target,1,7.491
10,185,perceptual,0.1,0.05,target,target,1,3.881
10,186,numeric,0.03,0.05,competitor,target,1,10.053
10,187,perceptual,0.1,0.05,competitor,competitor,0,3.207
10,188,perceptual,0.1,0.05,competitor,target,1,5.529
10,189,perceptual,0.03,0.2,competitor,competitor,0,3.821
10,190,numeric,0.1,0.2,competitor,competitor,0,16.33
10,191,numeric,0.03,0.2,competitor,target,1,18.604
10,192,perceptual,0.1,0.2,competitor,target,1,2.966
11,1,perceptual,0.03,0.05,competitor,target,1,5.144
11,2,numeric,0.1,0.05,competitor,competitor,0,8.336
11,3,numeric,0.1,0.2,target,competitor,0,4.794
11,4,perceptual,0.1,0.2,competitor,decoy,0,4.421
11,5,perceptual,0.03,0.2,competitor,competitor,0,5.262
11,6,numeric,0.1,0.05,competitor,target,1,8.802
11,7,numeric,0.03,0.05,target,target,1,5.894
11,8,perceptual,0.1,0.2,target,target,1,5.474
11,9,perceptual,0.03,0.2,competitor,target,1,5.111
11,10,perceptual,0.1,0.2,target,competitor,0,4.414
11,11,perceptual,0.03,0.2,competitor,competitor,0,3.129
11,12,numeric,0.03,0.05,target,target,1,8.272
11,13,numeric,0.1,0.05,target,target,1,7.709
11,14,numeric,0.1,0.05,competitor,target,1,7.969
11,15,numeric,0.1,0.05,target,target,1,6.561
11,16,numeric,0.03,0.05,target,target,1,9.318
11,17,numeric,0.1,0.2,competitor,target,1,7.556
11,18,numeric,0.1,0.2,target,target,1,5.695
11,19,perceptual,0.03,0.2,target,competitor,0,3.101
11,20,perceptual,0.1,0.2,competitor,target,1,6.754
11,21,perceptual,0.03,0.2,target,competitor,0,5.511
11,22,numeric,0.03,0.2,competitor,competitor,0,4.154
11,23,perceptual,0.03,0.2,target,target,1,6.69
11,24,perceptual,0.03,0.05,competitor,target,1,8.469
11,25,perceptual,0.1,0.2,competitor,target,1,8.497
11,26,numeric,0.03,0.05,target,target,1,10.813
11,27,numeric,0.03,0.05,competitor,competitor,0,6.468
11,28,perceptual,0.1,0.05,competitor,target,1,5.244
11,29,numeric,0.03,0.2,target,target,1,5.557
11,30,numeric,0.1,0.05,target,target,1,8.071
11,31,numeric,0.03,0.05,competitor,competitor,0,10.949
11,32,numeric,0.03,0.2,target,target,1,7.992
11,33,numeric,0.1,0.05,target,decoy,0,2.385
11,34,perceptual,0.03,0.05,competitor,decoy,0,5.071
11,35,numeric,0.03,0.05,target,target,1,6.778
11,36,perceptual,0.03,0.2,competitor,target,1,4.923
11,37,perceptual,0.03,0.05,competitor,competitor,0,7.749
11,38,perceptual,0.1,0.05,competitor,target,1,6.296
11,39,perceptual,0.03,0.05,competitor,target,1,4.847
11,40,numeric,0.03,0.2,competitor,competitor,0,7.87
11,41,perceptual,0.1,0.05,competitor,decoy,0,5.601
11,42,perceptual,0.1,0.2,target,competitor,0,5.733
11,43,perceptual,0.03,0.2,target,competitor,0,4.221
11,44,numeric,0.03,0.2,competitor,competitor,0,7.187
11,45,numeric,0.03,0.05,target,target,1,6.848
11,46,numeric,0.1,0.05,target,target,1,8.317
11,47,perceptual,0.1,0.2,competitor,target,1,5.164
11,48,numeric,0.1,0.2,target,target,1,8.877
11,49,perceptual,0.1,0.05,competitor,competitor,0,6.711
11,50,perceptual,0.03,0.05,target,competitor,0,5.07
11,51,numeric,0.03,0.2,target,competitor,0,6.605
11,52,perceptual,0.1,0.05,target,target,1,10.838
11,53,perceptual,0.1,0.05,competitor,target,1,4.866
11,54,perceptual,0.1,0.05,target,competitor,0,7.566
11,55,numeric,0.03,0.2,competitor,competitor,0,6.864
11,56,perceptual,0.03,0.2,competitor,competitor,0,6.781
11,57,perceptual,0.03,0.2,competitor,target,1,11.859
11,58,perceptual,0.03,0.05,target,target,1,5.27
11,59,perceptual,0.03,0.05,target,decoy,0,8.326
11,60,numeric,0.1,0.05,competitor,competitor,0,8.129
11,61,perceptual,0.03,0.2,competitor,competitor,0,5.477
11,62,perceptual,0.03,0.2,target,target,1,5.044
11,63,numeric,0.03,0.2,competitor,competitor,0,5.502
11,64,numeric,0.1,0.2,target,competitor,0,7.888
11,65,numeric,0.1,0.2,target,target,1,5.151
11,66,perceptual,0.03,0.05,competitor,competitor,0,7.38
11,67,numeric,0.1,0.05,target,target,1,8.537
11,68,numeric,0.1,0.2,target,target,1,4.37
11,69,numeric,0.03,0.2,competitor,target,1,6.758
11,70,perceptual,0.1,0.05,target,target,1,10.193
11,71,numeric,0.03,0.05,target,target,1,8.679
11,72,perceptual,0.03,0.05,target,decoy,0,7.263
11,73,perceptual,0.03,0.05,target,competitor,0,5.891
11,74,numeric,0.1,0.05,target,target,1,5.988
11,75,numeric,0.1,0.2,target,target,1,7.228
11,76,numeric,0.03,0.2,competitor,competitor,0,7.176
11,77,perceptual,0.1,0.05,competitor,target,1,5.31
11,78,numeric,0.03,0.05,competitor,target,1,11.905
11,79,perceptual,0.1,0.2,competitor,competitor,0,3.625
11,80,perceptual,0.03,0.05,target,target,1,11.735
11,81,perceptual,0.03,0.05,target,decoy,0,5.186
11,82,perceptual,0.03,0.05,competitor,target,1,6.535
11,83,perceptual,0.03,0.2,target,target,1,4.674
11,84,perceptual,0.1,0.2,target,target,1,5.08
11,85,numeric,0.1,0.05,competitor,competitor,0,6.753
11,86,perceptual,0.1,0.2,target,target,1,6.523
11,87,perceptual,0.03,0.05,target,competitor,0,4.942
11,88,perceptual,0.03,0.05,competitor,target,1,4.507
11,89,numeric,0.1,0.2,target,target,1,6.699
11,90,perceptual,0.1,0.05,competitor,target,1,4.032
11,91,numeric,0.1,0.05,competitor,target,1,5.905
11,92,perceptual,0.1,0.05,target,target,1,10.197
11,93,perceptual,0.1,0.2,target,target,1,5.505
11,94,perceptual,0.1,0.2,target,target,1,3.881
11,95,numeric,0.03,0.2,competitor,target,1,5.018
11,96,numeric,0.1,0.05,target,target,1,8.943
11,97,numeric,0.03,0.05,target,target,1,6.198
11,98,perceptual,0.1,0.05,target,decoy,0,4.017
11,99,numeric,0.03,0.2,target,target,1,8.14
11,100,perceptual,0.1,0.2,target,decoy,0,7.883
11,101,perceptual,0.1,0.2,competitor,target,1,4.503
11,102,numeric,0.03,0.2,competitor,competitor,0,4.896
11,103,perceptual,0.03,0.05,target,target,1,6.176
11,104,perceptual,0.1,0.2,competitor,target,1,5.637
11,105,perceptual,0.1,0.05,target,decoy,0,8.532
11,106,numeric,0.03,0.2,target,target,1,4.632
11,107,numeric,0.1,0.2,competitor,competitor,0,4.205
11,108,perceptual,0.1,0.2,target,target,1,4.372
11,109,perceptual,0.1,0.2,target,target,1,3.348
11,110,perceptual,0.03,0.2,target,competitor,0,5.408
11,111,numeric,0.03,0.2,target,target,1,5.682
11,112,numeric,0.03,0.2,target,target,1,5.03
11,113,numeric,0.1,0.05,competitor,target,1,5.024
11,114,perceptual,0.03,0.05,target,target,1,4.76
11,115,numeric,0.1,0.05,competitor,competitor,0,5.293
11,116,perceptual,0.03,0.05,competitor,target,1,8.133
11,117,numeric,0.1,0.2,competitor,decoy,0,10.057
11,118,perceptual,0.1,0.2,competitor,target,1,4.406
11,119,perceptual,0.03,0.2,target,target,1,6.505
11,120,numeric,0.1,0.05,target,target,1,5.392
11,121,numeric,0.03,0.2,target,target,1,7.438
11,122,perceptual,0.03,0.05,target,competitor,0,11.537
11,123,numeric,0.03,0.2,competitor,competitor,0,4.257
11,124,numeric,0.1,0.05,competitor,competitor,0,5.023
11,125,numeric,0.1,0.2,competitor,target,1,4.072
