participant,trial_counter,condition,target_to_competitor,decoy_reduction,decoy_on,chosen_item,correct,rt
1,1,numeric,0.1,0.05,target,decoy,0,17.251
1,2,numeric,0.1,0.2,target,target,1,10.023
1,3,perceptual,0.1,0.05,target,target,1,5.688
1,4,perceptual,0.1,0.05,target,target,1,8.87
1,5,numeric,0.1,0.2,target,competitor,0,8.052
1,6,numeric,0.03,0.2,competitor,target,1,12.814
1,7,numeric,0.1,0.2,competitor,target,1,6.044
1,8,numeric,0.03,0.2,competitor,decoy,0,9.863
1,9,perceptual,0.03,0.2,target,competitor,0,7.2
1,10,perceptual,0.1,0.05,competitor,target,1,5.344
1,11,numeric,0.03,0.05,competitor,target,1,12.064
1,12,perceptual,0.1,0.2,competitor,target,1,6.336
1,13,perceptual,0.1,0.2,competitor,competitor,0,4.116
1,14,numeric,0.03,0.05,target,decoy,0,9.206
1,15,numeric,0.1,0.05,competitor,target,1,8.693
1,16,numeric,0.03,0.05,target,target,1,7.244
1,17,numeric,0.03,0.05,competitor,target,1,3.152
1,18,numeric,0.03,0.05,target,competitor,0,1.558
1,19,perceptual,0.03,0.2,target,target,1,1.604
1,20,numeric,0.03,0.2,target,competitor,0,4.27
1,21,perceptual,0.03,0.05,competitor,decoy,0,3.862
1,22,perceptual,0.1,0.2,target,competitor,0,4.092
1,23,perceptual,0.1,0.2,target,target,1,4.556
1,24,numeric,0.1,0.05,target,decoy,0,7.326
1,25,perceptual,0.1,0.05,target,target,1,3.958
1,26,numeric,0.03,0.05,competitor,competitor,0,4.537
1,27,numeric,0.03,0.2,target,target,1,3.433
1,28,numeric,0.1,0.2,competitor,target,1,4.168
1,29,numeric,0.03,0.05,target,competitor,0,5.453
1,30,perceptual,0.03,0.05,target,target,1,4.462
1,31,perceptual,0.1,0.2,competitor,target,1,3.661
1,32,numeric,0.03,0.2,competitor,target,1,2.457
1,33,perceptual,0.03,0.2,competitor,decoy,0,2.313
1,34,perceptual,0.1,0.2,target,target,1,3.334
1,35,perceptual,0.03,0.2,target,competitor,0,3.409
1,36,perceptual,0.1,0.2,competitor,competitor,0,2.276
1,37,perceptual,0.03,0.05,target,decoy,0,3.401
1,38,numeric,0.1,0.05,competitor,competitor,0,3.035
1,39,perceptual,0.1,0.2,competitor,competitor,0,3.687
1,40,numeric,0.1,0.2,competitor,target,1,4.397
1,41,numeric,0.03,0.2,competitor,target,1,3.754
1,42,numeric,0.1,0.05,competitor,decoy,0,2.312
1,43,perceptual,0.03,0.2,target,competitor,0,2.393
1,44,perceptual,0.03,0.05,competitor,target,1,2.188
1,45,numeric,0.03,0.05,target,target,1,3.721
1,46,numeric,0.1,0.2,competitor,target,1,2.253
1,47,perceptual,0.1,0.2,competitor,target,1,2.322
1,48,numeric,0.03,0.05,competitor,target,1,2.308
1,49,numeric,0.03,0.05,competitor,decoy,0,3.176
1,50,perceptual,0.1,0.05,competitor,competitor,0,4.389
1,51,numeric,0.1,0.2,competitor,competitor,0,2.902
1,52,perceptual,0.1,0.2,target,target,1,2.597
1,53,numeric,0.03,0.2,target,competitor,0,3.107
1,54,numeric,0.1,0.2,target,competitor,0,2.589
1,55,numeric,0.03,0.2,competitor,decoy,0,2.291
1,56,numeric,0.1,0.05,target,decoy,0,3.074
1,57,perceptual,0.1,0.05,competitor,target,1,2.313
1,58,perceptual,0.03,0.05,competitor,target,1,3.036
1,59,perceptual,0.03,0.05,target,target,1,3.241
1,60,perceptual,0.03,0.05,target,decoy,0,3.036
1,61,numeric,0.03,0.2,competitor,competitor,0,2.104
1,62,numeric,0.1,0.05,competitor,target,1,4.929
1,63,numeric,0.03,0.05,target,target,1,2.077
1,64,numeric,0.1,0.05,competitor,target,1,3.398
1,65,perceptual,0.03,0.05,target,decoy,0,2.173
1,66,perceptual,0.03,0.2,target,competitor,0,2.607
1,67,perceptual,0.1,0.05,target,decoy,0,2.042
1,68,perceptual,0.03,0.05,competitor,competitor,0,2.195
1,69,perceptual,0.1,0.05,competitor,target,1,1.972
1,70,numeric,0.03,0.2,target,competitor,0,2.04
1,71,perceptual,0.1,0.2,competitor,competitor,0,2.98
1,72,perceptual,0.1,0.2,target,competitor,0,1.969
1,73,numeric,0.03,0.2,target,target,1,2.809
1,74,perceptual,0.1,0.05,target,target,1,2.163
1,75,numeric,0.1,0.2,competitor,competitor,0,2.507
1,76,numeric,0.03,0.2,target,decoy,0,2.016
1,77,numeric,0.03,0.2,competitor,target,1,1.977
1,78,perceptual,0.03,0.05,target,target,1,2.401
1,79,perceptual,0.03,0.2,target,target,1,2.114
1,80,numeric,0.1,0.05,target,decoy,0,1.906
1,81,perceptual,0.1,0.2,target,competitor,0,2.233
1,82,numeric,0.1,0.2,competitor,competitor,0,2.188
1,83,numeric,0.1,0.05,target,competitor,0,2.881
1,84,numeric,0.03,0.2,competitor,competitor,0,2.729
1,85,numeric,0.1,0.2,competitor,competitor,0,3.425
1,86,numeric,0.03,0.2,competitor,target,1,2.902
1,87,perceptual,0.1,0.05,target,target,1,6.455
1,88,perceptual,0.03,0.2,target,decoy,0,7.061
1,89,perceptual,0.1,0.05,competitor,target,1,3.902
1,90,numeric,0.03,0.05,competitor,competitor,0,2.609
1,91,numeric,0.03,0.2,target,target,1,3.863
1,92,numeric,0.03,0.2,target,target,1,3.568
1,93,perceptual,0.03,0.05,target,target,1,2.599
1,94,numeric,0.1,0.05,target,competitor,0,3.415
1,95,perceptual,0.03,0.2,competitor,decoy,0,2.018
1,96,numeric,0.1,0.05,target,decoy,0,2.195
1,97,perceptual,0.1,0.05,target,competitor,0,2.658
1,98,numeric,0.03,0.05,target,decoy,0,2.879
1,99,numeric,0.03,0.2,target,target,1,2.557
1,100,perceptual,0.1,0.2,target,competitor,0,2.685
1,101,perceptual,0.03,0.2,target,target,1,2.204
1,102,perceptual,0.1,0.2,target,target,1,5.649
1,103,perceptual,0.03,0.2,target,target,1,3.293
1,104,perceptual,0.03,0.05,competitor,target,1,7.047
1,105,numeric,0.1,0.2,target,competitor,0,4.251
1,106,perceptual,0.1,0.05,competitor,target,1,3.453
1,107,perceptual,0.03,0.2,competitor,competitor,0,3.936
1,108,numeric,0.03,0.05,competitor,target,1,2.216
1,109,numeric,0.1,0.2,competitor,target,1,2.077
1,110,perceptual,0.1,0.05,target,target,1,2.341
1,111,numeric,0.1,0.2,competitor,target,1,2.495
1,112,numeric,0.1,0.05,competitor,decoy,0,2.296
1,113,perceptual,0.03,0.05,competitor,competitor,0,2.02
1,114,perceptual,0.1,0.2,competitor,competitor,0,3.668
1,115,numeric,0.1,0.05,target,target,1,2.274
1,116,numeric,0.03,0.05,competitor,target,1,2.469
1,117,perceptual,0.1,0.05,target,decoy,0,2.151
1,118,perceptual,0.03,0.2,competitor,target,1,3.5
1,119,perceptual,0.1,0.05,competitor,target,1,7.563
1,120,perceptual,0.1,0.2,competitor,target,1,5.402
1,121,numeric,0.03,0.2,target,competitor,0,3.412
1,122,numeric,0.03,0.05,competitor,target,1,6.312
1,123,numeric,0.1,0.05,target,decoy,0,2.815
1,124,numeric,0.03,0.05,competitor,decoy,0,2.541
1,125,numeric,0.03,0.2,target,target,1,3.913
1,126,perceptual,0.03,0.05,competitor,target,1,2.98
1,127,numeric,0.03,0.05,target,target,1,2.832
1,128,numeric,0.1,0.2,target,target,1,4.061
1,129,numeric,0.03,0.05,target,target,1,2.617
1,130,numeric,0.1,0.05,target,decoy,0,3.31
1,131,perceptual,0.03,0.2,competitor,target,1,2.791
1,132,perceptual,0.03,0.05,target,decoy,0,3.971
1,133,perceptual,0.1,0.05,competitor,target,1,4.429
1,134,numeric,0.1,0.2,target,target,1,3.051
1,135,perceptual,0.1,0.05,target,decoy,0,2.996
1,136,numeric,0.03,0.2,competitor,target,1,2.297
1,137,perceptual,0.03,0.2,competitor,target,1,2.075
1,138,perceptual,0.1,0.05,competitor,target,1,2.776
1,139,perceptual,0.1,0.05,competitor,target,1,2.141
1,140,numeric,0.1,0.2,target,target,1,2.819
1,141,perceptual,0.1,0.05,competitor,target,1,3.451
1,142,numeric,0.1,0.2,target,target,1,3.639
1,143,perceptual,0.1,0.05,target,target,1,3.906
1,144,numeric,0.1,0.05,target,target,1,3.271
1,145,perceptual,0.03,0.05,competitor,target,1,3.78
1,146,numeric,0.1,0.2,competitor,target,1,2.391
1,147,numeric,0.03,0.05,competitor,target,1,3.394
1,148,perceptual,0.1,0.2,competitor,target,1,6.015
1,149,numeric,0.1,0.2,competitor,target,1,6.821
1,150,perceptual,0.03,0.2,competitor,competitor,0,5.44
1,151,numeric,0.1,0.05,competitor,target,1,5.687
1,152,numeric,0.03,0.2,target,target,1,4.307
1,153,numeric,0.03,0.2,competitor,target,1,4.104
1,154,perceptual,0.03,0.2,competitor,competitor,0,8.394
1,155,numeric,0.1,0.2,target,target,1,5.194
1,156,numeric,0.1,0.05,competitor,competitor,0,3.532
1,157,numeric,0.03,0.05,competitor,target,1,5.11
1,158,numeric,0.03,0.2,competitor,target,1,4.515
1,159,perceptual,0.1,0.2,target,target,1,4.158
1,160,perceptual,0.03,0.2,competitor,target,1,5.195
1,161,perceptual,0.1,0.05,target,target,1,2.692
1,162,numeric,0.1,0.2,target,target,1,3.764
1,163,perceptual,0.03,0.05,target,target,1,3.164
1,164,perceptual,0.03,0.2,competitor,competitor,0,3.381
1,165,numeric,0.03,0.05,target,competitor,0,3.639
1,166,perceptual,0.03,0.05,competitor,target,1,5.47
1,167,numeric,0.1,0.2,target,target,1,4.338
1,168,perceptual,0.03,0.2,competitor,target,1,8.166
1,169,numeric,0.1,0.05,competitor,target,1,5.472
1,170,perceptual,0.03,0.05,target,target,1,7.451
1,171,perceptual,0.1,0.2,target,decoy,0,5.004
1,172,perceptual,0.03,0.2,target,target,1,5.368
1,173,perceptual,0.03,0.05,target,target,1,4.69
1,174,numeric,0.1,0.2,target,competitor,0,6.825
1,175,perceptual,0.03,0.2,competitor,target,1,4.744
1,176,perceptual,0.1,0.2,target,competitor,0,4.73
1,177,perceptual,0.1,0.2,competitor,target,1,5.266
1,178,numeric,0.1,0.05,competitor,target,1,4.712
1,179,perceptual,0.03,0.05,competitor,competitor,0,5.012
1,180,perceptual,0.03,0.2,target,target,1,4.197
1,181,numeric,0.1,0.05,target,target,1,3.141
1,182,perceptual,0.1,0.2,target,target,1,3.333
1,183,perceptual,0.03,0.2,target,target,1,4.101
1,184,numeric,0.03,0.05,target,decoy,0,6.241
1,185,numeric,0.1,0.05,competitor,competitor,0,2.643
1,186,perceptual,0.03,0.05,competitor,target,1,2.762
1,187,perceptual,0.03,0.05,target,decoy,0,5.65
1,188,perceptual,0.1,0.05,competitor,target,1,4.257
1,189,numeric,0.1,0.05,competitor,target,1,4.78
1,190,numeric,0.03,0.05,target,decoy,0,6.374
1,191,perceptual,0.03,0.05,competitor,competitor,0,6.383
1,192,perceptual,0.1,0.2,competitor,target,1,5.096
2,1,perceptual,0.1,0.2,target,target,1,12.143
2,2,numeric,0.1,0.05,competitor,target,1,8.881
2,3,numeric,0.1,0.2,competitor,target,1,0.244
2,4,perceptual,0.1,0.05,target,target,1,7.187
2,5,perceptual,0.03,0.05,target,target,1,10.422
2,6,numeric,0.1,0.2,target,target,1,6.476
2,7,perceptual,0.03,0.05,competitor,target,1,9.75
2,8,perceptual,0.1,0.05,target,target,1,12.026
2,9,numeric,0.1,0.2,target,target,1,10.14
2,10,perceptual,0.03,0.05,competitor,target,1,11.485
2,11,perceptual,0.03,0.05,target,target,1,15.718
2,12,numeric,0.1,0.05,target,target,1,10.507
2,13,numeric,0.1,0.2,competitor,target,1,8.083
2,14,numeric,0.1,0.05,competitor,target,1,12.734
2,15,numeric,0.03,0.05,target,target,1,7.058
2,16,numeric,0.03,0.2,competitor,target,1,8.274
2,17,numeric,0.1,0.05,competitor,competitor,0,11.845
2,18,perceptual,0.1,0.05,competitor,target,1,7.852
2,19,numeric,0.1,0.2,competitor,competitor,0,13.936
2,20,perceptual,0.1,0.05,target,decoy,0,7.876
2,21,perceptual,0.03,0.05,target,target,1,8.461
2,22,numeric,0.1,0.2,target,target,1,8.799
2,23,perceptual,0.1,0.2,target,target,1,3.488
2,24,perceptual,0.03,0.2,target,competitor,0,3.836
2,25,perceptual,0.03,0.05,competitor,decoy,0,8.185
2,26,perceptual,0.03,0.2,target,competitor,0,3.271
2,27,perceptual,0.1,0.2,competitor,target,1,5.893
2,28,numeric,0.03,0.05,competitor,target,1,9.839
2,29,numeric,0.1,0.2,target,target,1,14.286
2,30,numeric,0.03,0.05,competitor,target,1,13.332
2,31,perceptual,0.1,0.2,target,target,1,7.745
2,32,numeric,0.03,0.2,competitor,competitor,0,7.709
2,33,numeric,0.1,0.2,competitor,competitor,0,16.957
2,34,perceptual,0.03,0.2,target,competitor,0,3.979
2,35,perceptual,0.03,0.05,target,competitor,0,7.81
2,36,numeric,0.03,0.05,target,decoy,0,9.192
2,37,perceptual,0.03,0.05,target,target,1,16.839
2,38,perceptual,0.03,0.2,competitor,target,1,8.445
2,39,perceptual,0.1,0.05,target,target,1,5.211
2,40,perceptual,0.03,0.2,competitor,target,1,3.914
2,41,perceptual,0.03,0.05,competitor,target,1,8.442
2,42,numeric,0.03,0.2,target,target,1,9.175
2,43,numeric,0.03,0.2,target,target,1,6.846
2,44,perceptual,0.03,0.2,competitor,target,1,4.45
2,45,numeric,0.1,0.05,target,target,1,5.209
2,46,perceptual,0.03,0.05,competitor,target,1,2.83
2,47,numeric,0.03,0.05,target,target,1,15.521
2,48,perceptual,0.1,0.05,competitor,target,1,7.562
2,49,perceptual,0.1,0.05,target,target,1,6.757
2,50,numeric,0.03,0.2,target,target,1,4.955
2,51,numeric,0.1,0.05,target,target,1,6.464
2,52,numeric,0.1,0.05,target,target,1,6.596
2,53,numeric,0.1,0.2,competitor,target,1,8.433
2,54,numeric,0.03,0.2,target,target,1,9.131
2,55,numeric,0.1,0.2,competitor,target,1,9.647
2,56,numeric,0.1,0.05,competitor,target,1,18.545
2,57,numeric,0.03,0.05,target,target,1,6.5
2,58,numeric,0.03,0.05,competitor,competitor,0,12.649
2,59,perceptual,0.1,0.2,target,target,1,6.824
2,60,perceptual,0.03,0.2,competitor,target,1,3.234
2,61,perceptual,0.03,0.2,target,target,1,3.786
2,62,perceptual,0.03,0.2,target,target,1,4.422
2,63,perceptual,0.1,0.2,target,target,1,6.841
2,64,numeric,0.03,0.2,target,target,1,11.359
2,65,perceptual,0.1,0.2,competitor,target,1,6.258
2,66,perceptual,0.1,0.05,competitor,target,1,2.82
2,67,perceptual,0.1,0.05,target,decoy,0,3.781
2,68,perceptual,0.1,0.2,target,competitor,0,6.626
2,69,numeric,0.1,0.2,competitor,target,1,17.786
2,70,perceptual,0.03,0.2,target,target,1,5.683
2,71,perceptual,0.03,0.2,competitor,competitor,0,2.207
2,72,perceptual,0.03,0.05,competitor,target,1,3.031
2,73,numeric,0.03,0.05,competitor,competitor,0,5.904
2,74,perceptual,0.03,0.05,target,target,1,6.546
2,75,perceptual,0.03,0.2,target,target,1,3.444
2,76,perceptual,0.1,0.05,competitor,competitor,0,5.974
2,77,perceptual,0.1,0.2,competitor,target,1,8.102
2,78,numeric,0.03,0.05,target,target,1,12.131
2,79,numeric,0.1,0.2,competitor,target,1,8.494
2,80,perceptual,0.03,0.2,competitor,competitor,0,4.853
2,81,perceptual,0.03,0.05,target,target,1,5.844
2,82,perceptual,0.1,0.2,target,target,1,4.177
2,83,perceptual,0.1,0.2,competitor,competitor,0,3.639
2,84,perceptual,0.03,0.05,competitor,target,1,6.048
2,85,perceptual,0.1,0.05,competitor,target,1,3.093
2,86,numeric,0.1,0.2,target,target,1,11.754
2,87,perceptual,0.1,0.05,competitor,target,1,3.054
2,88,numeric,0.1,0.2,competitor,competitor,0,15.756
2,89,perceptual,0.1,0.05,target,target,1,4.394
2,90,numeric,0.1,0.05,competitor,target,1,11.887
2,91,perceptual,0.1,0.2,competitor,decoy,0,2.787
2,92,numeric,0.03,0.05,target,target,1,5.798
2,93,numeric,0.1,0.2,target,target,1,7.484
2,94,perceptual,0.03,0.2,competitor,target,1,2.54
2,95,numeric,0.1,0.05,target,target,1,4.915
2,97,numeric,0.03,0.05,competitor,competitor,0,6.804
2,98,numeric,0.1,0.05,competitor,target,1,10.048
2,99,perceptual,0.1,0.05,competitor,competitor,0,3.904
2,100,perceptual,0.03,0.05,target,decoy,0,2.861
2,101,perceptual,0.03,0.05,competitor,decoy,0,4.19
2,102,numeric,0.1,0.2,target,target,1,15.084
2,103,perceptual,0.03,0.05,competitor,competitor,0,6.896
2,104,numeric,0.03,0.05,target,target,1,7.849
2,105,numeric,0.1,0.05,competitor,target,1,7.761
2,106,numeric,0.03,0.2,competitor,target,1,5.833
2,107,numeric,0.1,0.05,target,target,1,4.749
2,108,perceptual,0.1,0.2,target,decoy,0,2.576
2,109,numeric,0.03,0.05,competitor,competitor,0,11.529
2,110,numeric,0.1,0.05,target,target,1,7.702
2,111,numeric,0.1,0.05,competitor,target,1,7.478
2,112,numeric,0.03,0.2,competitor,competitor,0,8.61
2,113,numeric,0.1,0.2,target,target,1,8.503
2,114,perceptual,0.03,0.2,target,competitor,0,5.042
2,115,perceptual,0.1,0.05,competitor,target,1,3.669
2,116,numeric,0.03,0.2,target,target,1,4.462
2,117,perceptual,0.03,0.2,target,competitor,0,5.45
2,118,numeric,0.1,0.05,target,target,1,4.943
2,119,numeric,0.03,0.05,competitor,competitor,0,7.631
2,120,numeric,0.03,0.2,competitor,competitor,0,8.372
2,121,numeric,0.1,0.2,target,target,1,11.084
2,122,numeric,0.1,0.2,target,target,1,6.171
2,123,numeric,0.03,0.2,target,target,1,9.631
2,124,numeric,0.1,0.2,competitor,target,1,16.086
2,125,numeric,0.1,0.2,target,target,1,7.109
2,126,perceptual,0.03,0.2,competitor,target,1,5.229
2,127,numeric,0.03,0.05,target,target,1,10.665
2,128,numeric,0.03,0.2,target,target,1,11.821
2,129,numeric,0.03,0.05,competitor,target,1,6.179
2,130,numeric,0.03,0.2,competitor,competitor,0,9.813
2,131,perceptual,0.03,0.05,competitor,competitor,0,6.691
2,132,numeric,0.1,0.2,competitor,competitor,0,16.608
2,133,perceptual,0.1,0.05,competitor,competitor,0,3.38
2,134,numeric,0.1,0.05,target,target,1,13.914
2,135,numeric,0.1,0.05,target,target,1,8.376
2,136,perceptual,0.03,0.2,target,target,1,4.585
2,137,numeric,0.03,0.05,target,target,1,5.312
2,138,numeric,0.03,0.05,target,target,1,8.647
2,139,numeric,0.03,0.2,target,target,1,7.472
2,140,perceptual,0.1,0.2,competitor,target,1,7.756
2,141,perceptual,0.1,0.2,target,target,1,5.496
2,142,perceptual,0.03,0.2,target,competitor,0,3.91
2,143,perceptual,0.1,0.05,competitor,target,1,6.129
2,144,numeric,0.03,0.05,target,target,1,9.027
2,145,perceptual,0.03,0.05,target,target,1,6.344
2,146,numeric,0.03,0.2,competitor,target,1,10.446
2,147,perceptual,0.1,0.2,competitor,competitor,0,2.529
2,148,numeric,0.03,0.2,competitor,competitor,0,16.998
2,149,perceptual,0.1,0.05,target,target,1,7.166
2,150,numeric,0.03,0.2,target,target,1,6.82
2,151,numeric,0.1,0.05,competitor,target,1,8.287
2,152,numeric,0.03,0.05,competitor,competitor,0,11.67
2,153,numeric,0.1,0.05,target,target,1,11.467
2,154,perceptual,0.1,0.2,competitor,target,1,4.332
2,155,numeric,0.1,0.05,competitor,competitor,0,10.213
2,156,numeric,0.1,0.05,competitor,competitor,0,13.783
2,157,perceptual,0.1,0.2,competitor,target,1,3.057
2,158,perceptual,0.1,0.2,competitor,target,1,2.079
2,159,numeric,0.03,0.05,competitor,competitor,0,8.892
2,160,perceptual,0.1,0.05,competitor,target,1,4.477
2,161,perceptual,0.1,0.2,competitor,target,1,6.128
2,162,numeric,0.03,0.05,competitor,competitor,0,9.487
2,163,perceptual,0.1,0.2,competitor,target,1,3.694
2,164,perceptual,0.03,0.05,target,competitor,0,6.273
2,165,numeric,0.1,0.2,target,target,1,7.62
2,166,perceptual,0.03,0.2,competitor,competitor,0,7.075
2,167,numeric,0.03,0.2,target,target,1,12.224
2,168,perceptual,0.03,0.2,competitor,competitor,0,3.91
2,169,numeric,0.1,0.05,target,target,1,5.766
2,170,perceptual,0.1,0.2,target,target,1,3.619
2,171,perceptual,0.1,0.05,target,target,1,3.604
2,172,numeric,0.1,0.05,competitor,target,1,6.692
2,173,perceptual,0.03,0.05,competitor,target,1,9.395
2,174,perceptual,0.1,0.05,target,target,1,8.45
2,175,perceptual,0.03,0.2,competitor,competitor,0,6.488
2,176,perceptual,0.1,0.05,target,target,1,7.568
2,177,perceptual,0.1,0.2,target,target,1,7.153
2,178,perceptual,0.1,0.2,target,target,1,7.473
2,179,numeric,0.03,0.05,target,target,1,7.434
2,180,perceptual,0.03,0.05,target,target,1,10.313
2,181,numeric,0.03,0.2,competitor,target,1,5.948
2,182,numeric,0.03,0.2,competitor,competitor,0,12.79
2,183,numeric,0.03,0.05,competitor,target,1,14.299
2,184,numeric,0.03,0.2,target,target,1,11.607
2,185,perceptual,0.03,0.2,target,target,1,3.302
2,186,perceptual,0.03,0.05,competitor,competitor,0,7.935
2,187,perceptual,0.03,0.05,target,target,1,2.238
2,188,perceptual,0.1,0.05,target,target,1,5.305
2,189,numeric,0.03,0.2,competitor,competitor,0,11.276
2,190,perceptual,0.03,0.2,competitor,decoy,0,12.549
2,191,numeric,0.03,0.2,competitor,competitor,0,7.833
2,192,perceptual,0.1,0.05,competitor,competitor,0,9.483
3,1,perceptual,0.1,0.05,competitor,competitor,0,8.192
3,2,numeric,0.03,0.2,target,target,1,7.961
3,3,perceptual,0.1,0.05,target,decoy,0,4.555
3,4,perceptual,0.03,0.05,target,target,1,6.876
3,5,perceptual,0.1,0.05,target,target,1,4.967
3,6,perceptual,0.03,0.05,competitor,decoy,0,4.981
3,7,numeric,0.1,0.2,competitor,competitor,0,9.484
3,8,perceptual,0.03,0.05,competitor,target,1,6.649
3,9,perceptual,0.1,0.2,target,target,1,3.687
3,10,perceptual,0.1,0.2,target,target,1,5.258
3,11,perceptual,0.1,0.05,target,decoy,0,5.081
3,12,perceptual,0.1,0.05,competitor,decoy,0,4.074
3,13,perceptual,0.1,0.2,target,competitor,0,4.509
3,14,numeric,0.03,0.05,target,target,1,8.826
3,15,perceptual,0.03,0.05,target,decoy,0,6.653
3,16,numeric,0.1,0.2,target,target,1,6.523
3,17,perceptual,0.1,0.05,target,decoy,0,4.135
3,18,numeric,0.03,0.05,competitor,competitor,0,10.007
3,19,perceptual,0.03,0.05,competitor,target,1,7.846
3,20,perceptual,0.1,0.05,target,target,1,7.36
3,21,perceptual,0.1,0.05,target,competitor,0,5.031
3,22,numeric,0.1,0.2,competitor,target,1,8.544
3,23,perceptual,0.1,0.2,target,target,1,4.52
3,24,perceptual,0.1,0.2,target,competitor,0,5.189
3,25,numeric,0.03,0.05,competitor,competitor,0,17.614
3,26,perceptual,0.03,0.05,competitor,target,1,7.33
3,27,perceptual,0.03,0.05,target,target,1,3.945
3,28,numeric,0.1,0.2,competitor,target,1,10.477
3,29,perceptual,0.1,0.05,target,target,1,4.862
3,30,numeric,0.1,0.2,competitor,target,1,7.451
3,31,numeric,0.03,0.05,competitor,target,1,7.762
3,32,numeric,0.03,0.2,target,competitor,0,10.778
3,33,numeric,0.1,0.05,competitor,target,1,7.46
3,34,perceptual,0.1,0.2,competitor,competitor,0,6.502
3,35,numeric,0.03,0.05,target,target,1,7.526
3,36,numeric,0.1,0.05,target,target,1,13.18
3,37,perceptual,0.03,0.2,competitor,competitor,0,8.888
3,38,perceptual,0.1,0.2,competitor,competitor,0,5.996
3,39,numeric,0.03,0.2,competitor,target,1,12.153
3,40,perceptual,0.03,0.05,target,decoy,0,3.689
3,41,perceptual,0.1,0.05,competitor,decoy,0,6.961
3,42,numeric,0.1,0.2,target,target,1,6.062
3,43,perceptual,0.03,0.05,competitor,competitor,0,4.309
3,44,numeric,0.1,0.05,competitor,target,1,8.154
3,45,numeric,0.1,0.05,target,target,1,9.817
3,46,numeric,0.03,0.05,target,competitor,0,14.11
3,47,perceptual,0.03,0.05,competitor,target,1,4.362
3,48,numeric,0.03,0.2,competitor,competitor,0,9.931
3,49,perceptual,0.1,0.2,target,competitor,0,6.757
3,50,perceptual,0.03,0.2,competitor,target,1,4.935
3,51,numeric,0.1,0.05,competitor,target,1,7.912
3,52,numeric,0.03,0.2,competitor,competitor,0,14.655
3,53,numeric,0.03,0.2,target,target,1,6.374
3,54,perceptual,0.03,0.2,competitor,competitor,0,4.312
3,55,numeric,0.03,0.2,competitor,target,1,11.392
3,56,numeric,0.03,0.05,competitor,competitor,0,7.001
3,57,numeric,0.1,0.05,target,target,1,17.241
3,58,perceptual,0.1,0.05,target,competitor,0,5.96
3,59,perceptual,0.1,0.2,competitor,target,1,3.586
3,60,numeric,0.1,0.2,target,target,1,17.518
3,61,perceptual,0.03,0.05,competitor,target,1,5.04
3,62,numeric,0.03,0.2,target,target,1,12.144
3,63,perceptual,0.03,0.05,target,competitor,0,6.103
3,64,perceptual,0.03,0.2,competitor,target,1,4.373
3,65,perceptual,0.03,0.05,target,decoy,0,4.587
3,66,perceptual,0.1,0.05,target,decoy,0,3.751
3,67,numeric,0.03,0.05,competitor,target,1,4.639
3,68,perceptual,0.1,0.2,target,competitor,0,3.725
3,69,numeric,0.03,0.05,competitor,target,1,13.446
3,70,numeric,0.1,0.2,target,target,1,7.416
3,71,numeric,0.1,0.05,competitor,competitor,0,11.24
3,72,perceptual,0.03,0.2,target,competitor,0,4.512
3,73,numeric,0.03,0.2,competitor,target,1,6.856
3,74,perceptual,0.1,0.2,competitor,target,1,7.22
3,75,perceptual,0.1,0.2,target,target,1,4.634
3,76,perceptual,0.03,0.2,target,target,1,3.286
3,77,perceptual,0.1,0.2,competitor,competitor,0,6.495
3,78,numeric,0.03,0.2,target,competitor,0,5.353
3,79,perceptual,0.03,0.2,target,target,1,16.503
3,80,numeric,0.03,0.05,target,target,1,10.699
3,81,perceptual,0.1,0.2,target,competitor,0,4.114
3,82,perceptual,0.1,0.2,target,competitor,0,6.592
3,83,numeric,0.1,0.05,competitor,competitor,0,9.291
3,84,perceptual,0.03,0.2,target,decoy,0,6.538
3,85,perceptual,0.1,0.05,competitor,decoy,0,6.015
3,86,numeric,0.03,0.2,competitor,target,1,10.175
3,87,numeric,0.03,0.2,target,target,1,8.181
3,88,perceptual,0.1,0.2,competitor,target,1,5.461
3,89,numeric,0.1,0.05,target,target,1,6.606
3,90,numeric,0.1,0.2,competitor,target,1,11.908
3,91,numeric,0.03,0.05,competitor,competitor,0,8.703
3,92,perceptual,0.03,0.05,target,competitor,0,4.542
3,93,numeric,0.03,0.2,target,target,1,6.27
3,94,numeric,0.1,0.2,target,target,1,14.2
3,95,numeric,0.1,0.05,competitor,target,1,6.757
3,96,numeric,0.1,0.05,target,target,1,6.357
3,97,perceptual,0.03,0.05,competitor,competitor,0,6.727
3,98,numeric,0.03,0.05,target,target,1,7.225
3,99,numeric,0.03,0.2,competitor,competitor,0,5.664
3,100,numeric,0.1,0.05,target,target,1,14.498
3,101,numeric,0.03,0.05,target,target,1,7.369
3,102,perceptual,0.03,0.2,target,target,1,4.019
3,103,perceptual,0.03,0.2,competitor,competitor,0,5.04
3,104,numeric,0.1,0.05,target,target,1,6.426
3,105,perceptual,0.03,0.2,target,competitor,0,3.889
3,106,numeric,0.03,0.05,competitor,competitor,0,9.921
3,107,numeric,0.1,0.2,target,target,1,10.93
3,108,perceptual,0.1,0.05,competitor,decoy,0,5.238
3,109,perceptual,0.03,0.05,target,decoy,0,5.791
3,110,perceptual,0.1,0.2,competitor,decoy,0,5.524
3,111,numeric,0.03,0.2,target,target,1,7.869
3,112,numeric,0.03,0.2,competitor,target,1,6.524
3,113,perceptual,0.1,0.05,competitor,target,1,9.53
3,114,perceptual,0.1,0.2,competitor,decoy,0,6.169
3,115,numeric,0.03,0.05,target,target,1,6.44
3,116,perceptual,0.03,0.05,competitor,target,1,6.574
3,117,numeric,0.03,0.2,competitor,competitor,0,11.061
3,118,perceptual,0.03,0.2,target,competitor,0,3.488
3,119,numeric,0.1,0.2,target,target,1,10.502
3,120,numeric,0.1,0.05,competitor,target,1,8.048
3,121,numeric,0.1,0.2,competitor,competitor,0,14.122
3,122,numeric,0.1,0.05,competitor,target,1,6.53
3,123,numeric,0.1,0.2,competitor,competitor,0,10.139
3,124,perceptual,0.1,0.2,target,competitor,0,4.534
3,125,perceptual,0.1,0.2,competitor,competitor,0,3.968
3,126,numeric,0.03,0.2,target,competitor,0,6.16
3,127,numeric,0.1,0.2,competitor,target,1,7.9
3,128,numeric,0.03,0.05,competitor,target,1,7.175
3,129,numeric,0.03,0.2,target,target,1,5.594
3,130,perceptual,0.03,0.2,target,decoy,0,4.36
3,131,numeric,0.03,0.05,competitor,competitor,0,6.33
3,132,numeric,0.03,0.2,target,target,1,10.689
3,133,numeric,0.03,0.05,target,target,1,9.749
3,134,numeric,0.1,0.05,competitor,competitor,0,10.317
3,135,perceptual,0.03,0.05,competitor,target,1,3.562
3,136,perceptual,0.03,0.05,competitor,competitor,0,4.433
3,137,numeric,0.1,0.05,target,target,1,10.26
3,138,numeric,0.1,0.05,target,target,1,10.307
3,139,numeric,0.03,0.2,competitor,competitor,0,6.599
3,140,perceptual,0.03,0.2,target,competitor,0,3.315
3,141,perceptual,0.1,0.05,competitor,decoy,0,4.708
3,142,numeric,0.1,0.2,target,target,1,9.445
3,143,perceptual,0.03,0.2,competitor,target,1,4.39
3,144,numeric,0.1,0.2,competitor,competitor,0,8.509
3,145,perceptual,0.1,0.05,competitor,competitor,0,6.331
3,146,perceptual,0.1,0.05,competitor,decoy,0,5.971
3,147,perceptual,0.03,0.05,target,competitor,0,4.734
3,148,numeric,0.1,0.2,target,competitor,0,9.053
3,149,perceptual,0.1,0.2,target,decoy,0,4.421
3,150,perceptual,0.1,0.05,competitor,target,1,4.548
3,151,numeric,0.03,0.05,competitor,target,1,7.36
3,152,perceptual,0.1,0.05,competitor,decoy,0,5.256
3,153,perceptual,0.03,0.05,target,target,1,5.353
3,154,numeric,0.03,0.05,target,target,1,8.619
3,155,perceptual,0.03,0.2,competitor,target,1,4.078
3,156,numeric,0.1,0.2,target,target,1,13.341
3,157,numeric,0.1,0.2,target,target,1,7.465
3,158,numeric,0.03,0.05,target,target,1,8.549
3,159,numeric,0.1,0.05,target,target,1,9.288
3,160,perceptual,0.1,0.2,competitor,target,1,5.943
3,161,perceptual,0.03,0.2,competitor,competitor,0,4.357
3,162,perceptual,0.03,0.2,competitor,competitor,0,2.805
3,163,perceptual,0.03,0.2,target,competitor,0,4.751
3,164,perceptual,0.1,0.05,target,target,1,3.953
3,165,perceptual,0.03,0.2,competitor,competitor,0,6.019
3,166,numeric,0.03,0.2,target,competitor,0,15.167
3,167,numeric,0.1,0.2,competitor,target,1,9.355
3,168,perceptual,0.03,0.05,target,decoy,0,4.347
3,169,perceptual,0.03,0.2,competitor,competitor,0,3.95
3,170,perceptual,0.03,0.05,target,competitor,0,3.174
3,171,numeric,0.1,0.05,competitor,competitor,0,6.48
3,172,numeric,0.1,0.05,target,target,1,6.985
3,173,numeric,0.1,0.2,target,target,1,6.931
3,174,perceptual,0.03,0.2,target,target,1,3.942
3,175,perceptual,0.03,0.05,competitor,target,1,3.037
3,176,perceptual,0.03,0.2,target,target,1,3.69
3,177,perceptual,0.1,0.05,competitor,target,1,3.527
3,178,numeric,0.1,0.05,target,target,1,9.845
3,179,numeric,0.03,0.2,competitor,competitor,0,8.875
3,180,perceptual,0.1,0.05,target,decoy,0,4.097
3,181,numeric,0.03,0.2,competitor,competitor,0,7.305
3,182,numeric,0.1,0.05,competitor,target,1,6.69
3,183,numeric,0.03,0.05,target,competitor,0,6.865
3,184,perceptual,0.1,0.2,competitor,target,1,5.147
3,185,perceptual,0.03,0.2,competitor,competitor,0,5.446
3,186,perceptual,0.1,0.05,target,target,1,4.407
3,187,numeric,0.1,0.2,competitor,target,1,8.307
3,188,perceptual,0.1,0.2,competitor,competitor,0,3.371
3,189,numeric,0.03,0.05,target,target,1,5.757
3,190,numeric,0.1,0.2,competitor,competitor,0,8.531
3,191,numeric,0.03,0.05,competitor,target,1,11.791
3,192,numeric,0.1,0.05,competitor,target,1,11.284
4,1,numeric,0.1,0.2,competitor,decoy,0,8.13
4,2,numeric,0.03,0.2,competitor,competitor,0,6.43
4,3,perceptual,0.1,0.2,target,target,1,6.055
4,4,numeric,0.1,0.2,competitor,target,1,7.694
4,5,numeric,0.1,0.2,competitor,target,1,5.361
4,6,numeric,0.03,0.05,target,target,1,7.376
4,7,perceptual,0.03,0.2,target,competitor,0,4.899
4,8,numeric,0.1,0.2,competitor,target,1,8.771
4,9,perceptual,0.03,0.05,target,competitor,0,6.661
4,10,numeric,0.03,0.2,target,competitor,0,5.817
4,11,perceptual,0.1,0.05,competitor,target,1,4.616
4,12,perceptual,0.1,0.2,target,target,1,8.588
4,13,numeric,0.1,0.2,target,decoy,0,5.375
4,14,perceptual,0.1,0.2,target,target,1,6.346
4,15,numeric,0.03,0.2,target,target,1,4.197
4,16,numeric,0.1,0.2,target,target,1,5.983
4,17,numeric,0.1,0.05,target,competitor,0,4.605
4,18,perceptual,0.03,0.2,target,target,1,5.177
4,19,numeric,0.1,0.05,target,target,1,5.203
4,20,perceptual,0.1,0.05,competitor,decoy,0,6.877
4,21,numeric,0.03,0.05,competitor,competitor,0,10.595
4,22,perceptual,0.03,0.2,competitor,competitor,0,5.56
4,23,numeric,0.1,0.05,target,competitor,0,6.243
4,24,perceptual,0.03,0.05,competitor,target,1,4.389
4,25,numeric,0.1,0.05,target,decoy,0,3.714
4,26,numeric,0.03,0.05,target,target,1,4.523
4,27,perceptual,0.1,0.05,target,target,1,5.21
4,28,perceptual,0.03,0.2,competitor,decoy,0,4.024
4,29,perceptual,0.03,0.2,competitor,competitor,0,4.167
4,30,perceptual,0.1,0.2,competitor,target,1,6.589
4,31,numeric,0.03,0.05,competitor,target,1,4.363
4,32,perceptual,0.1,0.2,competitor,target,1,5.59
4,33,numeric,0.03,0.05,competitor,target,1,2.785
4,34,perceptual,0.03,0.2,target,decoy,0,4.633
4,35,numeric,0.03,0.05,target,target,1,8.94
4,36,perceptual,0.03,0.2,target,decoy,0,7.893
4,37,numeric,0.03,0.05,target,target,1,9.828
4,38,perceptual,0.03,0.05,target,target,1,5.31
4,39,perceptual,0.1,0.05,target,target,1,4.14
4,40,perceptual,0.03,0.2,target,competitor,0,3.046
4,41,numeric,0.1,0.2,target,target,1,4.297
4,42,perceptual,0.03,0.05,target,target,1,7.674
4,43,perceptual,0.03,0.05,competitor,competitor,0,4.325
4,44,numeric,0.03,0.2,competitor,decoy,0,0.074
4,45,perceptual,0.03,0.05,target,target,1,9.707
4,46,numeric,0.03,0.05,target,target,1,3.938
4,47,perceptual,0.1,0.05,competitor,target,1,2.794
4,48,perceptual,0.1,0.05,target,target,1,4.331
4,49,perceptual,0.03,0.05,target,competitor,0,4.152
4,50,perceptual,0.03,0.2,competitor,target,1,2.459
4,51,perceptual,0.1,0.2,competitor,target,1,3.273
4,52,perceptual,0.1,0.05,competitor,target,1,6.532
4,53,perceptual,0.1,0.05,competitor,competitor,0,5.07
4,54,perceptual,0.03,0.2,competitor,target,1,2.916
4,55,numeric,0.03,0.05,competitor,decoy,0,5.743
4,56,numeric,0.03,0.2,competitor,target,1,5.473
4,57,perceptual,0.1,0.05,competitor,competitor,0,6.486
4,58,numeric,0.1,0.2,competitor,target,1,4.114
4,59,perceptual,0.1,0.2,target,competitor,0,4.042
4,60,perceptual,0.03,0.2,competitor,target,1,5.342
4,61,numeric,0.03,0.2,competitor,target,1,4.377
4,62,perceptual,0.1,0.05,target,decoy,0,2.365
4,63,perceptual,0.03,0.05,target,decoy,0,5.806
4,64,numeric,0.1,0.05,competitor,competitor,0,8.439
4,65,numeric,0.03,0.2,competitor,decoy,0,3.907
4,66,perceptual,0.1,0.05,competitor,competitor,0,3.693
4,67,perceptual,0.03,0.05,competitor,decoy,0,5.074
4,68,perceptual,0.1,0.2,target,decoy,0,3.324
4,69,perceptual,0.03,0.2,competitor,target,1,4.942
4,70,perceptual,0.1,0.05,target,decoy,0,7.56
4,71,perceptual,0.03,0.05,competitor,competitor,0,3.857
4,72,perceptual,0.03,0.05,target,decoy,0,5.35
4,73,numeric,0.1,0.05,competitor,target,1,3.292
4,74,numeric,0.03,0.2,target,target,1,3.706
4,75,numeric,0.03,0.2,target,competitor,0,5.088
4,76,numeric,0.1,0.2,competitor,target,1,4.101
4,77,numeric,0.1,0.05,target,decoy,0,4.939
4,78,numeric,0.1,0.05,target,target,1,3.074
4,79,numeric,0.1,0.2,competitor,competitor,0,4.856
4,80,perceptual,0.03,0.05,competitor,competitor,0,7.619
4,81,numeric,0.1,0.05,target,decoy,0,3.797
4,82,perceptual,0.03,0.05,competitor,target,1,2.675
4,83,numeric,0.03,0.2,target,competitor,0,3.14
4,84,numeric,0.1,0.2,target,decoy,0,3.543
4,85,perceptual,0.03,0.05,target,target,1,4.456
4,86,perceptual,0.03,0.05,competitor,competitor,0,5.026
4,87,perceptual,0.03,0.2,competitor,competitor,0,5.557
4,88,numeric,0.03,0.05,competitor,target,1,5.308
4,89,numeric,0.03,0.2,competitor,competitor,0,9.926
4,90,perceptual,0.1,0.2,target,competitor,0,5.919
4,91,perceptual,0.03,0.05,competitor,target,1,3.187
4,92,perceptual,0.1,0.05,target,target,1,3.525
4,93,perceptual,0.1,0.05,target,competitor,0,8.042
4,94,numeric,0.1,0.2,competitor,target,1,5.825
4,95,numeric,0.1,0.05,competitor,target,1,2.987
4,96,numeric,0.1,0.05,competitor,competitor,0,6.877
4,97,perceptual,0.1,0.2,competitor,target,1,3.568
4,98,perceptual,0.1,0.2,target,competitor,0,2.727
4,99,numeric,0.03,0.05,competitor,target,1,8.175
4,100,numeric,0.03,0.2,target,competitor,0,6.102
4,101,perceptual,0.03,0.05,competitor,target,1,6.874
4,102,perceptual,0.03,0.2,competitor,decoy,0,7.731
4,103,numeric,0.1,0.05,competitor,decoy,0,2.763
4,104,numeric,0.1,0.2,competitor,competitor,0,4.126
4,105,perceptual,0.1,0.2,competitor,decoy,0,4.746
4,106,numeric,0.1,0.05,target,competitor,0,2.782
4,107,numeric,0.03,0.2,competitor,target,1,11.327
4,108,perceptual,0.1,0.2,competitor,target,1,4.24
4,109,perceptual,0.03,0.05,target,target,1,5.475
4,110,numeric,0.03,0.05,competitor,competitor,0,4.479
4,111,numeric,0.1,0.2,target,competitor,0,6.075
4,112,perceptual,0.03,0.2,competitor,target,1,2.978
4,113,numeric,0.03,0.2,target,target,1,3.24
4,114,numeric,0.1,0.05,competitor,competitor,0,3.259
4,115,numeric,0.1,0.2,target,target,1,4.826
4,116,perceptual,0.1,0.2,competitor,target,1,4.6
4,117,numeric,0.1,0.2,target,competitor,0,4.78
4,118,perceptual,0.1,0.2,competitor,decoy,0,8.007
4,119,numeric,0.03,0.05,competitor,target,1,4.209
4,120,numeric,0.1,0.2,target,target,1,6.827
4,121,numeric,0.1,0.2,competitor,target,1,5.007
4,122,numeric,0.1,0.05,competitor,decoy,0,5.427
4,123,numeric,0.1,0.2,target,target,1,4.094
4,124,perceptual,0.1,0.05,competitor,target,1,5.356
4,125,perceptual,0.03,0.05,target,target,1,3.572
4,126,perceptual,0.03,0.05,competitor,decoy,0,7.211
4,127,perceptual,0.03,0.2,target,decoy,0,4.296
4,128,numeric,0.03,0.05,competitor,target,1,3.977
4,129,numeric,0.1,0.2,competitor,target,1,3.133
4,130,numeric,0.1,0.05,competitor,competitor,0,5.56
4,131,numeric,0.1,0.05,competitor,target,1,5.505
4,132,numeric,0.1,0.05,target,competitor,0,5.476
4,133,numeric,0.03,0.05,target,competitor,0,5.245
4,134,perceptual,0.1,0.2,competitor,target,1,6.56
4,135,numeric,0.1,0.2,target,competitor,0,3.279
4,136,numeric,0.1,0.05,target,target,1,8.341
4,137,numeric,0.03,0.2,target,target,1,3.707
4,138,perceptual,0.03,0.05,competitor,decoy,0,6.106
4,139,perceptual,0.03,0.05,target,decoy,0,4.557
4,140,perceptual,0.03,0.2,target,competitor,0,6.094
4,141,perceptual,0.1,0.2,target,target,1,7.165
4,142,numeric,0.1,0.05,competitor,decoy,0,9.209
4,143,numeric,0.1,0.05,competitor,target,1,6.149
4,144,numeric,0.03,0.2,target,competitor,0,4.315
4,145,numeric,0.03,0.2,competitor,target,1,2.157
4,146,numeric,0.03,0.05,competitor,target,1,2.647
4,147,perceptual,0.1,0.05,target,competitor,0,3.721
4,148,perceptual,0.1,0.2,competitor,competitor,0,3.144
4,149,perceptual,0.03,0.2,competitor,decoy,0,3.53
4,150,numeric,0.03,0.05,target,decoy,0,5.859
4,151,numeric,0.03,0.05,target,competitor,0,3.697
4,152,perceptual,0.03,0.05,target,competitor,0,4.006
4,153,numeric,0.03,0.05,competitor,target,1,3.996
4,154,perceptual,0.1,0.05,competitor,competitor,0,4.008
4,155,numeric,0.03,0.2,competitor,decoy,0,7.411
4,156,perceptual,0.1,0.05,competitor,target,1,4.909
4,157,numeric,0.03,0.05,target,target,1,6.624
4,158,perceptual,0.1,0.2,target,competitor,0,3.525
4,159,perceptual,0.03,0.2,target,competitor,0,2.995
4,160,perceptual,0.1,0.2,target,target,1,2.53
4,161,perceptual,0.03,0.2,target,competitor,0,2.684
4,162,numeric,0.03,0.05,target,competitor,0,3.747
4,163,perceptual,0.1,0.05,competitor,decoy,0,5.935
4,164,numeric,0.03,0.05,competitor,target,1,3.499
4,165,perceptual,0.1,0.05,target,decoy,0,4.209
4,166,perceptual,0.1,0.05,target,target,1,7.293
4,167,numeric,0.03,0.05,target,target,1,6.903
4,168,perceptual,0.1,0.2,competitor,competitor,0,3.359
4,169,numeric,0.03,0.2,competitor,decoy,0,5.695
4,170,numeric,0.1,0.05,target,target,1,10.161
4,171,perceptual,0.03,0.2,competitor,target,1,3.978
4,172,perceptual,0.03,0.2,target,competitor,0,2.937
4,173,numeric,0.03,0.2,target,competitor,0,3.123
4,174,perceptual,0.1,0.2,target,target,1,4.791
4,175,numeric,0.1,0.05,competitor,decoy,0,2.697
4,176,numeric,0.03,0.2,competitor,target,1,4.206
4,177,numeric,0.1,0.2,target,target,1,3.751
4,178,perceptual,0.03,0.2,target,decoy,0,4.348
4,179,perceptual,0.03,0.05,competitor,target,1,4.63
4,180,numeric,0.03,0.2,target,decoy,0,7.343
4,181,perceptual,0.1,0.05,competitor,competitor,0,6.205
4,182,numeric,0.1,0.2,target,target,1,3.953
4,183,numeric,0.1,0.05,target,competitor,0,2.61
4,184,perceptual,0.1,0.2,competitor,competitor,0,8.243
4,185,numeric,0.03,0.05,target,competitor,0,10.962
4,186,numeric,0.03,0.2,competitor,competitor,0,6.417
4,187,perceptual,0.1,0.2,target,competitor,0,10.939
4,188,perceptual,0.1,0.05,target,decoy,0,3.393
4,189,numeric,0.03,0.2,target,competitor,0,4.214
4,190,perceptual,0.03,0.2,target,target,1,5.613
4,191,numeric,0.1,0.2,competitor,competitor,0,3.374
4,192,perceptual,0.1,0.05,target,competitor,0,4.477
5,1,perceptual,0.03,0.2,competitor,competitor,0,18.751
5,2,perceptual,0.1,0.05,target,decoy,0,6.367
5,3,perceptual,0.1,0.05,competitor,target,1,9.231
5,4,numeric,0.1,0.2,competitor,competitor,0,18.072
5,5,numeric,0.03,0.2,target,decoy,0,9.397
5,6,perceptual,0.03,0.05,target,competitor,0,4.925
5,7,numeric,0.1,0.2,competitor,competitor,0,12.02
5,8,perceptual,0.03,0.05,competitor,decoy,0,5.283
5,9,numeric,0.1,0.05,target,target,1,11.018
5,10,numeric,0.1,0.2,competitor,competitor,0,7.475
5,11,perceptual,0.03,0.2,competitor,target,1,6.256
5,12,numeric,0.1,0.05,target,target,1,16.08
5,13,numeric,0.1,0.2,target,target,1,15.294
5,14,numeric,0.1,0.05,target,target,1,7.306
5,15,numeric,0.1,0.2,competitor,target,1,8.671
5,16,numeric,0.03,0.05,target,competitor,0,9.394
5,17,perceptual,0.1,0.2,competitor,competitor,0,8.249
5,18,perceptual,0.1,0.05,target,target,1,11.11
5,19,perceptual,0.1,0.05,competitor,competitor,0,11.149
5,20,numeric,0.03,0.05,target,competitor,0,11.886
5,21,numeric,0.1,0.2,competitor,decoy,0,12.681
5,22,perceptual,0.03,0.2,target,decoy,0,9.284
5,23,numeric,0.03,0.05,competitor,target,1,16.334
5,24,numeric,0.03,0.2,competitor,target,1,8.017
5,25,numeric,0.1,0.2,target,competitor,0,8.386
5,26,numeric,0.1,0.2,target,target,1,7.803
5,27,perceptual,0.1,0.05,target,competitor,0,4.555
5,28,numeric,0.03,0.2,competitor,target,1,10.148
5,29,numeric,0.1,0.2,target,target,1,9.525
5,30,perceptual,0.03,0.05,target,decoy,0,5.433
5,31,perceptual,0.1,0.05,target,target,1,5.685
5,32,numeric,0.03,0.2,competitor,competitor,0,13.125
5,33,numeric,0.03,0.05,target,target,1,6.512
5,34,numeric,0.03,0.2,target,competitor,0,10.041
5,35,perceptual,0.1,0.2,competitor,competitor,0,11.216
5,36,numeric,0.03,0.2,target,target,1,12.418
5,37,perceptual,0.1,0.05,target,target,1,2.269
5,38,numeric,0.03,0.2,competitor,decoy,0,3.023
5,39,perceptual,0.03,0.2,competitor,target,1,2.87
5,40,numeric,0.03,0.2,target,target,1,8.32
5,41,numeric,0.03,0.05,competitor,target,1,7.568
5,42,perceptual,0.03,0.2,competitor,decoy,0,4.06
5,43,perceptual,0.1,0.05,target,target,1,6.158
5,44,numeric,0.1,0.05,competitor,competitor,0,7.683
5,45,perceptual,0.1,0.2,target,decoy,0,5.32
5,46,perceptual,0.1,0.2,competitor,decoy,0,7.243
5,47,numeric,0.03,0.05,competitor,competitor,0,12.983
5,48,numeric,0.1,0.05,competitor,target,1,8.209
5,49,perceptual,0.1,0.05,target,decoy,0,6.92
5,50,numeric,0.03,0.05,competitor,target,1,5.568
5,51,perceptual,0.1,0.2,competitor,target,1,5.187
5,52,numeric,0.03,0.05,competitor,target,1,9.937
5,53,perceptual,0.03,0.05,target,target,1,4.905
5,54,numeric,0.1,0.05,target,target,1,12.537
5,55,numeric,0.1,0.2,target,target,1,9.936
5,56,numeric,0.03,0.2,target,target,1,9.334
5,57,perceptual,0.1,0.2,competitor,target,1,8.539
5,58,numeric,0.1,0.2,competitor,target,1,10.964
5,59,numeric,0.03,0.2,competitor,target,1,12.288
5,60,perceptual,0.1,0.2,competitor,target,1,4.21
5,61,perceptual,0.03,0.05,target,decoy,0,9.496
5,62,numeric,0.1,0.05,competitor,target,1,13.751
5,63,perceptual,0.1,0.05,competitor,target,1,3.242
5,64,numeric,0.1,0.2,competitor,target,1,10.519
5,65,numeric,0.1,0.2,target,decoy,0,9.785
5,66,numeric,0.03,0.05,target,target,1,15.29
5,67,numeric,0.03,0.05,target,competitor,0,7.488
5,68,perceptual,0.03,0.2,target,decoy,0,6.449
5,69,numeric,0.03,0.05,competitor,competitor,0,15.865
5,70,perceptual,0.1,0.2,target,target,1,9.644
5,71,numeric,0.03,0.05,competitor,competitor,0,15.377
5,72,numeric,0.03,0.2,competitor,target,1,10.054
5,73,perceptual,0.1,0.2,target,target,1,4.712
5,74,numeric,0.03,0.05,target,target,1,19.829
5,75,perceptual,0.03,0.05,competitor,target,1,4.651
5,76,perceptual,0.03,0.2,competitor,target,1,8.026
5,77,perceptual,0.1,0.05,target,target,1,3.621
5,78,perceptual,0.03,0.2,target,target,1,7.45
5,79,perceptual,0.03,0.2,competitor,decoy,0,4.269
5,80,numeric,0.1,0.2,target,target,1,9.201
5,81,perceptual,0.03,0.05,competitor,target,1,6.148
5,82,perceptual,0.1,0.2,competitor,target,1,5.712
5,83,perceptual,0.1,0.2,competitor,target,1,4.51
5,84,numeric,0.1,0.2,target,target,1,7.262
5,85,perceptual,0.1,0.2,target,decoy,0,3.208
5,86,perceptual,0.1,0.2,target,competitor,0,3.466
5,87,perceptual,0.03,0.05,competitor,target,1,2.793
5,88,numeric,0.1,0.05,target,target,1,6.493
5,89,perceptual,0.1,0.2,competitor,target,1,2.835
5,90,perceptual,0.03,0.2,target,competitor,0,4.571
5,91,perceptual,0.03,0.2,target,decoy,0,4.668
5,92,perceptual,0.1,0.05,competitor,competitor,0,5.588
5,93,perceptual,0.03,0.2,target,target,1,2.755
5,94,numeric,0.1,0.05,target,target,1,5.415
5,95,numeric,0.1,0.05,target,target,1,8.836
5,96,numeric,0.1,0.05,competitor,target,1,9.386
5,97,perceptual,0.03,0.05,target,competitor,0,3.264
5,98,numeric,0.1,0.05,target,target,1,10.951
5,99,perceptual,0.1,0.05,target,decoy,0,4.468
5,100,perceptual,0.1,0.05,target,competitor,0,3.962
5,101,perceptual,0.1,0.05,competitor,decoy,0,5.737
5,102,perceptual,0.03,0.05,target,competitor,0,2.826
5,103,numeric,0.03,0.05,target,target,1,14.183
5,104,numeric,0.03,0.2,competitor,competitor,0,5.916
5,105,perceptual,0.03,0.2,competitor,competitor,0,2.755
5,106,perceptual,0.03,0.2,competitor,decoy,0,2.565
5,107,perceptual,0.03,0.05,target,competitor,0,3.204
5,108,numeric,0.03,0.2,target,competitor,0,8.233
5,109,perceptual,0.1,0.2,target,competitor,0,3.542
5,110,numeric,0.1,0.2,target,target,1,12.55
5,111,perceptual,0.03,0.2,target,target,1,12.565
5,112,numeric,0.1,0.05,competitor,competitor,0,12.658
5,113,numeric,0.03,0.05,competitor,competitor,0,11.588
5,114,numeric,0.03,0.2,competitor,target,1,10.006
5,115,numeric,0.1,0.2,competitor,target,1,6.565
5,116,numeric,0.03,0.05,competitor,competitor,0,6.435
5,117,numeric,0.03,0.2,target,target,1,6.181
5,118,numeric,0.1,0.2,target,target,1,9.166
5,119,perceptual,0.03,0.2,target,competitor,0,3.856
5,120,numeric,0.03,0.05,competitor,target,1,15.816
5,121,numeric,0.03,0.05,competitor,target,1,3.057
5,122,perceptual,0.1,0.05,competitor,competitor,0,6.099
5,123,perceptual,0.03,0.05,target,competitor,0,2.857
5,124,perceptual,0.03,0.2,competitor,competitor,0,2.686
5,125,numeric,0.03,0.2,target,competitor,0,5.717
5,126,perceptual,0.1,0.05,competitor,target,1,2.685
5,127,numeric,0.1,0.05,competitor,target,1,8.13
5,128,numeric,0.1,0.05,target,target,1,6.103
5,129,perceptual,0.03,0.2,target,competitor,0,4.164
5,130,numeric,0.1,0.05,competitor,target,1,6.619
5,131,perceptual,0.03,0.05,target,target,1,5.486
5,132,perceptual,0.1,0.2,target,decoy,0,5.291
5,133,perceptual,0.03,0.2,target,decoy,0,6.22
5,134,perceptual,0.1,0.05,competitor,decoy,0,2.887
5,135,numeric,0.03,0.2,competitor,target,1,3.737
5,136,perceptual,0.1,0.05,competitor,competitor,0,2.808
5,137,perceptual,0.1,0.2,competitor,decoy,0,2.543
5,138,numeric,0.1,0.05,competitor,target,1,5.179
5,139,numeric,0.03,0.2,target,target,1,7.621
5,140,numeric,0.1,0.05,competitor,target,1,6.287
5,141,perceptual,0.03,0.05,target,target,1,3.386
5,142,numeric,0.1,0.05,competitor,competitor,0,7
5,143,perceptual,0.1,0.2,target,competitor,0,4.99
5,144,perceptual,0.03,0.2,target,target,1,7.352
5,145,perceptual,0.03,0.05,competitor,target,1,5.194
5,147,perceptual,0.1,0.2,competitor,competitor,0,14.271
5,148,perceptual,0.1,0.05,competitor,target,1,5.769
5,149,perceptual,0.03,0.2,target,competitor,0,3.219
5,150,perceptual,0.1,0.05,target,decoy,0,3.708
5,151,numeric,0.1,0.2,competitor,decoy,0,4.149
5,152,perceptual,0.03,0.05,target,competitor,0,3.464
5,153,perceptual,0.1,0.05,competitor,target,1,2.396
5,154,numeric,0.03,0.05,competitor,target,1,7.006
5,155,numeric,0.03,0.05,target,competitor,0,4.356
5,156,perceptual,0.1,0.05,target,competitor,0,2.947
5,157,numeric,0.03,0.05,target,competitor,0,3.286
5,158,numeric,0.03,0.2,target,competitor,0,3.745
5,159,numeric,0.1,0.05,competitor,target,1,4.13
5,160,perceptual,0.1,0.2,target,competitor,0,2.758
5,161,perceptual,0.1,0.2,target,decoy,0,5.402
5,162,perceptual,0.03,0.05,competitor,target,1,3.214
5,163,perceptual,0.03,0.2,competitor,target,1,4.931
5,164,perceptual,0.1,0.05,competitor,target,1,4.173
5,165,numeric,0.03,0.2,target,target,1,7.023
5,166,numeric,0.1,0.2,competitor,target,1,8.993
5,167,perceptual,0.03,0.05,competitor,target,1,4
5,168,perceptual,0.03,0.2,competitor,target,1,3.009
5,169,numeric,0.03,0.05,target,target,1,5.317
5,170,numeric,0.1,0.05,target,target,1,6.243
5,171,numeric,0.1,0.2,competitor,target,1,5.339
5,172,numeric,0.03,0.2,competitor,target,1,8.736
5,173,perceptual,0.03,0.05,competitor,competitor,0,2.865
5,174,numeric,0.03,0.05,target,target,1,6.713
5,175,numeric,0.1,0.05,competitor,competitor,0,8.658
5,176,perceptual,0.1,0.2,competitor,decoy,0,3.359
5,177,numeric,0.1,0.05,target,decoy,0,7.701
5,178,perceptual,0.03,0.05,competitor,competitor,0,2.238
5,179,numeric,0.1,0.05,target,target,1,9.365
5,180,numeric,0.03,0.05,target,target,1,6.199
5,181,perceptual,0.1,0.2,target,target,1,2.731
5,182,numeric,0.1,0.2,target,target,1,5.206
5,183,numeric,0.1,0.2,target,target,1,8.935
5,184,perceptual,0.03,0.05,competitor,target,1,3.736
5,185,perceptual,0.03,0.2,competitor,target,1,4.534
5,186,numeric,0.03,0.2,target,target,1,4.178
5,187,perceptual,0.03,0.05,target,competitor,0,4.917
5,188,perceptual,0.03,0.05,competitor,decoy,0,5.181
5,189,perceptual,0.1,0.2,target,target,1,4.005
5,190,numeric,0.1,0.2,competitor,target,1,8.136
5,191,numeric,0.03,0.2,competitor,competitor,0,8.123
5,192,numeric,0.03,0.2,competitor,target,1,7.481
6,1,numeric,0.1,0.05,target,competitor,0,8.545
6,2,perceptual,0.1,0.05,competitor,target,1,6.388
6,3,perceptual,0.03,0.05,target,target,1,9.68
6,4,perceptual,0.03,0.2,competitor,competitor,0,7.358
6,5,numeric,0.03,0.05,target,target,1,8.042
6,6,numeric,0.1,0.2,target,target,1,5.797
6,7,numeric,0.03,0.2,competitor,competitor,0,9.622
6,8,perceptual,0.1,0.2,competitor,decoy,0,5.94
6,9,perceptual,0.1,0.2,competitor,target,1,8.737
6,10,numeric,0.1,0.05,target,target,1,9.966
6,11,perceptual,0.03,0.05,competitor,competitor,0,8.727
6,12,numeric,0.1,0.2,target,target,1,10.429
6,13,numeric,0.03,0.2,target,competitor,0,7.993
6,14,perceptual,0.1,0.05,target,competitor,0,5.134
6,15,numeric,0.03,0.2,competitor,competitor,0,8.351
6,16,numeric,0.03,0.2,competitor,competitor,0,13.189
6,17,numeric,0.1,0.05,competitor,target,1,7.711
6,18,numeric,0.03,0.2,competitor,decoy,0,12.012
6,19,perceptual,0.03,0.05,competitor,target,1,6.189
6,20,perceptual,0.1,0.2,target,competitor,0,4.81
6,21,perceptual,0.03,0.05,target,target,1,7.507
6,22,perceptual,0.03,0.05,competitor,competitor,0,7.578
6,23,numeric,0.1,0.05,target,target,1,10.039
6,24,numeric,0.1,0.05,competitor,competitor,0,8.644
6,25,perceptual,0.1,0.05,competitor,competitor,0,6.646
6,26,perceptual,0.03,0.05,target,target,1,8.539
6,27,numeric,0.1,0.2,competitor,target,1,6.466
6,28,perceptual,0.03,0.05,target,target,1,9.036
6,29,perceptual,0.1,0.2,competitor,decoy,0,5.455
6,30,numeric,0.1,0.2,target,competitor,0,12.371
6,31,numeric,0.1,0.05,target,decoy,0,8.279
6,32,perceptual,0.03,0.2,target,decoy,0,4.427
6,33,numeric,0.1,0.2,competitor,competitor,0,5.889
6,34,numeric,0.03,0.05,competitor,competitor,0,10.661
6,35,perceptual,0.1,0.2,target,target,1,4.204
6,36,perceptual,0.1,0.2,target,decoy,0,6.561
6,37,numeric,0.1,0.2,competitor,target,1,7.021
6,38,perceptual,0.03,0.2,competitor,competitor,0,7.127
6,39,numeric,0.03,0.05,target,target,1,7.195
6,40,numeric,0.1,0.05,target,target,1,8.032
6,41,numeric,0.03,0.2,target,target,1,8.435
6,42,numeric,0.03,0.05,target,target,1,15.076
6,43,numeric,0.03,0.2,target,target,1,8.363
6,44,numeric,0.03,0.2,target,target,1,7.094
6,45,numeric,0.03,0.05,target,competitor,0,5.043
6,46,numeric,0.1,0.2,competitor,target,1,11.115
6,47,perceptual,0.1,0.05,competitor,target,1,5.818
6,48,perceptual,0.1,0.2,target,target,1,6.738
6,49,perceptual,0.03,0.05,target,decoy,0,5.238
6,50,perceptual,0.1,0.05,target,decoy,0,5.778
6,51,perceptual,0.1,0.05,competitor,decoy,0,4.845
6,52,numeric,0.1,0.2,target,competitor,0,6.26
6,53,numeric,0.03,0.2,target,target,1,9.966
6,54,numeric,0.03,0.05,competitor,target,1,8.093
6,55,perceptual,0.1,0.05,target,decoy,0,4.855
6,56,perceptual,0.03,0.2,competitor,decoy,0,5.309
6,57,numeric,0.03,0.05,competitor,target,1,11.291
6,58,numeric,0.1,0.05,target,target,1,8.196
6,59,numeric,0.03,0.2,target,competitor,0,6.449
6,60,numeric,0.03,0.2,target,target,1,14.003
6,61,perceptual,0.03,0.05,target,target,1,5.904
6,62,perceptual,0.03,0.2,competitor,target,1,4.324
6,63,perceptual,0.03,0.05,competitor,target,1,3.584
6,64,numeric,0.1,0.2,competitor,target,1,12.457
6,65,perceptual,0.03,0.05,competitor,competitor,0,6.22
6,66,perceptual,0.1,0.2,competitor,competitor,0,6.841
6,67,perceptual,0.1,0.05,target,decoy,0,5.212
6,68,numeric,0.03,0.2,competitor,competitor,0,5.849
6,69,numeric,0.03,0.2,target,target,1,4.256
6,70,numeric,0.03,0.05,competitor,target,1,12.032
6,71,perceptual,0.03,0.2,target,target,1,6.626
6,72,perceptual,0.1,0.2,target,target,1,9.792
6,73,numeric,0.03,0.05,competitor,competitor,0,6.589
6,74,perceptual,0.03,0.05,competitor,decoy,0,4.383
6,75,perceptual,0.1,0.2,competitor,target,1,3.506
6,76,numeric,0.03,0.2,competitor,target,1,6.893
6,77,numeric,0.03,0.2,target,target,1,9.093
6,78,numeric,0.03,0.2,competitor,target,1,6.134
6,79,numeric,0.1,0.05,competitor,target,1,10.987
6,80,perceptual,0.1,0.05,target,decoy,0,6.938
6,81,numeric,0.1,0.05,competitor,target,1,5.719
6,82,numeric,0.03,0.05,target,competitor,0,5.665
6,83,perceptual,0.1,0.2,target,target,1,8.937
6,84,perceptual,0.03,0.2,target,target,1,4.296
6,85,numeric,0.1,0.2,target,target,1,6.297
6,86,numeric,0.1,0.05,competitor,target,1,10.109
6,87,perceptual,0.1,0.05,competitor,target,1,7.179
6,88,perceptual,0.03,0.2,competitor,target,1,5.291
6,89,perceptual,0.1,0.05,competitor,target,1,9.689
6,90,perceptual,0.1,0.05,competitor,target,1,7.925
6,91,perceptual,0.03,0.05,competitor,target,1,11.615
6,92,numeric,0.03,0.05,target,competitor,0,7.454
6,93,perceptual,0.03,0.2,competitor,target,1,13.968
6,94,perceptual,0.1,0.2,competitor,target,1,4.173
6,95,perceptual,0.03,0.2,competitor,competitor,0,6.455
6,96,numeric,0.03,0.2,target,competitor,0,5.194
6,97,numeric,0.1,0.2,competitor,competitor,0,8.586
6,98,numeric,0.1,0.05,target,competitor,0,9.904
6,99,perceptual,0.03,0.05,target,target,1,5.567
6,100,perceptual,0.1,0.05,target,target,1,5.28
6,101,perceptual,0.03,0.2,target,competitor,0,6.553
6,102,numeric,0.03,0.05,competitor,competitor,0,9.32
6,103,numeric,0.03,0.2,competitor,competitor,0,5.98
6,104,perceptual,0.03,0.05,target,target,1,4.04
6,105,numeric,0.1,0.2,target,target,1,13.142
6,106,numeric,0.03,0.2,competitor,competitor,0,8.697
6,107,numeric,0.1,0.05,competitor,target,1,5.565
6,108,numeric,0.1,0.2,competitor,competitor,0,11.707
6,109,perceptual,0.1,0.2,competitor,target,1,6.052
6,110,numeric,0.03,0.05,target,target,1,6.733
6,111,numeric,0.03,0.05,target,target,1,11.063
6,112,perceptual,0.1,0.05,competitor,target,1,8.293
6,113,perceptual,0.03,0.05,target,competitor,0,6.351
6,114,perceptual,0.1,0.05,target,target,1,8.939
6,115,numeric,0.1,0.05,competitor,decoy,0,9.826
6,116,perceptual,0.03,0.05,competitor,decoy,0,4.482
6,117,numeric,0.1,0.05,competitor,target,1,7.735
6,118,perceptual,0.1,0.2,competitor,target,1,8.185
6,119,perceptual,0.1,0.05,target,target,1,9.142
6,120,numeric,0.1,0.05,target,target,1,5.06
6,121,numeric,0.1,0.2,target,competitor,0,15.421
6,122,perceptual,0.1,0.2,target,target,1,3.946
6,123,perceptual,0.03,0.2,target,competitor,0,7.281
6,124,perceptual,0.03,0.2,target,target,1,7.092
6,125,perceptual,0.03,0.05,competitor,competitor,0,4.565
6,126,perceptual,0.1,0.05,competitor,target,1,3.459
6,127,numeric,0.1,0.05,competitor,target,1,6.141
6,128,numeric,0.03,0.2,competitor,competitor,0,10.506
6,129,numeric,0.03,0.2,target,competitor,0,10.961
6,130,numeric,0.03,0.05,competitor,target,1,5.536
6,131,numeric,0.03,0.05,target,target,1,8.906
6,132,numeric,0.1,0.05,competitor,target,1,9.509
6,133,numeric,0.03,0.2,competitor,target,1,7.351
6,134,numeric,0.03,0.05,competitor,competitor,0,5.124
6,135,perceptual,0.1,0.05,target,target,1,5.383
6,136,perceptual,0.03,0.05,target,target,1,5.926
6,137,perceptual,0.03,0.05,target,target,1,4.71
6,138,numeric,0.1,0.05,target,target,1,5.687
6,139,perceptual,0.03,0.2,target,target,1,8.115
6,140,numeric,0.1,0.2,competitor,competitor,0,6.423
6,141,numeric,0.1,0.05,target,target,1,10.57
6,142,perceptual,0.03,0.05,competitor,target,1,6.299
6,143,numeric,0.1,0.2,competitor,competitor,0,6.668
6,144,perceptual,0.1,0.2,target,target,1,4.118
6,145,perceptual,0.1,0.05,competitor,target,1,4.237
6,146,numeric,0.03,0.2,competitor,target,1,4.383
6,147,perceptual,0.03,0.2,target,competitor,0,4.962
6,148,numeric,0.1,0.2,target,target,1,5.475
6,149,perceptual,0.1,0.2,competitor,target,1,2.934
6,150,perceptual,0.03,0.2,competitor,target,1,4.142
6,151,numeric,0.1,0.2,target,competitor,0,4.348
6,152,numeric,0.1,0.2,competitor,target,1,7.77
6,153,perceptual,0.03,0.2,competitor,target,1,2.916
6,154,perceptual,0.03,0.2,target,competitor,0,5.08
6,155,numeric,0.03,0.05,target,competitor,0,4.205
6,156,numeric,0.1,0.2,competitor,target,1,8.134
6,157,perceptual,0.1,0.2,target,target,1,5.267
6,158,numeric,0.1,0.2,target,target,1,7.141
6,159,numeric,0.03,0.05,target,competitor,0,5.675
6,160,perceptual,0.03,0.05,competitor,competitor,0,4.816
6,161,perceptual,0.1,0.05,target,target,1,5.991
6,162,numeric,0.03,0.05,competitor,competitor,0,6.389
6,163,perceptual,0.1,0.05,target,decoy,0,6.74
6,164,numeric,0.1,0.2,competitor,target,1,7.17
6,165,numeric,0.1,0.2,target,target,1,6.604
6,166,perceptual,0.1,0.05,competitor,target,1,5.314
6,167,perceptual,0.1,0.2,target,competitor,0,4.487
6,168,perceptual,0.03,0.2,target,competitor,0,15.022
6,169,perceptual,0.03,0.2,competitor,competitor,0,4.163
6,170,perceptual,0.03,0.2,competitor,competitor,0,2.703
6,171,numeric,0.1,0.2,target,competitor,0,5.254
6,172,perceptual,0.1,0.2,competitor,target,1,6.841
6,173,numeric,0.03,0.05,target,competitor,0,6.438
6,174,numeric,0.03,0.05,competitor,target,1,5.036
6,175,numeric,0.1,0.05,competitor,competitor,0,7.773
6,176,numeric,0.03,0.05,competitor,target,1,4.815
6,177,perceptual,0.1,0.2,target,competitor,0,4.762
6,178,perceptual,0.03,0.05,competitor,target,1,3.251
6,179,numeric,0.03,0.05,competitor,target,1,7.313
6,180,numeric,0.1,0.05,competitor,competitor,0,6.427
6,181,numeric,0.1,0.05,target,competitor,0,6.345
6,182,perceptual,0.03,0.2,competitor,target,1,5.484
6,183,perceptual,0.03,0.2,target,target,1,3.822
6,184,perceptual,0.1,0.05,competitor,target,1,4.82
6,185,perceptual,0.1,0.05,target,competitor,0,4.437
6,186,perceptual,0.03,0.2,target,decoy,0,5.66
6,187,perceptual,0.1,0.2,competitor,target,1,3.284
6,188,perceptual,0.03,0.05,target,competitor,0,4.613
6,189,perceptual,0.1,0.2,competitor,target,1,3.017
6,190,numeric,0.03,0.2,target,competitor,0,5.079
6,191,numeric,0.1,0.05,target,target,1,5.928
6,192,perceptual,0.1,0.2,target,competitor,0,3.828
7,1,perceptual,0.03,0.05,target,target,1,8.223
7,2,perceptual,0.1,0.05,target,target,1,4.552
7,3,numeric,0.1,0.2,target,target,1,5.882
7,4,perceptual,0.1,0.2,competitor,target,1,5.027
7,5,numeric,0.03,0.05,target,target,1,6.473
7,6,numeric,0.1,0.2,target,target,1,7.816
7,7,perceptual,0.1,0.2,target,target,1,5.036
7,8,perceptual,0.03,0.2,target,target,1,7.865
7,9,numeric,0.03,0.2,target,target,1,6.283
7,10,numeric,0.1,0.2,competitor,target,1,7.5
7,11,numeric,0.1,0.2,competitor,target,1,5.149
7,12,numeric,0.03,0.2,target,competitor,0,10.17
7,13,numeric,0.03,0.05,target,target,1,7.757
7,14,numeric,0.1,0.05,competitor,target,1,7.516
7,15,numeric,0.1,0.05,target,target,1,9.553
7,16,perceptual,0.1,0.05,competitor,target,1,5.733
7,17,perceptual,0.1,0.05,target,target,1,4.24
7,18,perceptual,0.1,0.2,competitor,target,1,4.764
7,19,perceptual,0.03,0.05,target,target,1,4.973
7,20,perceptual,0.03,0.2,target,target,1,3.915
7,21,numeric,0.1,0.05,competitor,target,1,6.566
7,22,numeric,0.1,0.2,target,target,1,7.373
7,23,perceptual,0.03,0.05,competitor,target,1,7.713
7,24,numeric,0.03,0.05,competitor,target,1,8.084
7,25,perceptual,0.1,0.2,competitor,target,1,6.1
7,26,perceptual,0.03,0.05,competitor,target,1,10.371
7,27,numeric,0.1,0.05,competitor,competitor,0,7.013
7,28,numeric,0.1,0.05,target,competitor,0,10.15
7,29,numeric,0.03,0.05,target,target,1,8.254
7,30,perceptual,0.03,0.05,target,target,1,6.566
7,31,perceptual,0.1,0.2,competitor,competitor,0,5.932
7,32,perceptual,0.03,0.05,competitor,target,1,5.723
7,33,perceptual,0.03,0.2,target,target,1,5.489
7,34,numeric,0.03,0.2,target,target,1,8.917
7,35,numeric,0.03,0.2,competitor,competitor,0,10.589
7,36,perceptual,0.03,0.2,competitor,competitor,0,6.982
7,37,numeric,0.1,0.05,competitor,target,1,5.832
7,38,perceptual,0.03,0.05,competitor,target,1,8.509
7,39,perceptual,0.03,0.05,target,decoy,0,8.241
7,40,perceptual,0.03,0.05,competitor,competitor,0,7.897
7,41,numeric,0.03,0.05,target,target,1,8.055
7,42,perceptual,0.03,0.2,competitor,target,1,9.633
7,43,perceptual,0.03,0.2,target,competitor,0,7.127
7,44,perceptual,0.1,0.2,target,target,1,8.515
7,45,perceptual,0.1,0.05,competitor,target,1,5.916
7,46,perceptual,0.1,0.05,target,target,1,5.834
7,47,perceptual,0.1,0.2,target,competitor,0,9.051
7,48,numeric,0.03,0.2,target,target,1,6.548
7,49,perceptual,0.03,0.2,target,target,1,3.572
7,50,perceptual,0.1,0.05,competitor,decoy,0,3.531
7,51,perceptual,0.03,0.05,target,decoy,0,9.068
7,52,perceptual,0.03,0.05,target,target,1,11.55
7,53,perceptual,0.1,0.2,target,decoy,0,6.11
7,54,perceptual,0.03,0.05,target,competitor,0,8.567
7,55,numeric,0.1,0.2,competitor,competitor,0,7.046
7,56,perceptual,0.03,0.2,competitor,target,1,9.782
7,57,perceptual,0.1,0.05,competitor,target,1,5.183
7,58,numeric,0.1,0.05,target,target,1,7.073
7,59,numeric,0.1,0.2,competitor,competitor,0,8.868
7,60,perceptual,0.1,0.2,target,target,1,4.947
7,61,perceptual,0.03,0.2,target,competitor,0,4.425
7,62,numeric,0.1,0.2,target,target,1,11.048
7,63,perceptual,0.1,0.05,target,target,1,6.157
7,64,numeric,0.1,0.2,target,target,1,4.571
7,65,numeric,0.03,0.05,competitor,target,1,4.587
7,66,perceptual,0.03,0.2,competitor,target,1,5.406
7,67,perceptual,0.1,0.2,competitor,target,1,5.048
7,68,numeric,0.1,0.2,target,target,1,6.552
7,69,perceptual,0.1,0.2,target,target,1,4.144
7,70,numeric,0.1,0.05,competitor,target,1,6.28
7,71,numeric,0.1,0.05,target,target,1,7.332
7,72,numeric,0.03,0.05,competitor,target,1,5.632
7,73,numeric,0.03,0.2,competitor,competitor,0,8.97
7,74,numeric,0.1,0.2,competitor,competitor,0,8.585
7,75,numeric,0.03,0.2,target,target,1,11.853
7,76,numeric,0.03,0.05,target,competitor,0,8.433
7,77,numeric,0.03,0.05,target,target,1,10.098
7,78,perceptual,0.03,0.05,target,target,1,10.765
7,79,perceptual,0.1,0.2,target,target,1,6.741
7,80,perceptual,0.03,0.2,competitor,competitor,0,6.387
7,81,perceptual,0.03,0.05,competitor,decoy,0,9.009
7,82,perceptual,0.03,0.2,target,competitor,0,8.267
7,83,numeric,0.03,0.2,competitor,competitor,0,4.9
7,84,perceptual,0.1,0.2,competitor,target,1,3.706
7,85,numeric,0.03,0.2,competitor,target,1,5.897
7,86,perceptual,0.1,0.2,target,target,1,6.022
7,87,perceptual,0.1,0.2,competitor,target,1,9.89
7,88,perceptual,0.1,0.2,target,target,1,7.382
7,89,numeric,0.1,0.05,competitor,target,1,4.832
7,90,numeric,0.03,0.2,target,competitor,0,8.878
7,91,perceptual,0.03,0.05,target,target,1,10.046
7,92,perceptual,0.1,0.05,target,target,1,8.615
7,93,numeric,0.1,0.05,competitor,target,1,5.151
7,94,perceptual,0.1,0.05,target,decoy,0,7.982
7,95,numeric,0.03,0.05,competitor,competitor,0,11.715
7,96,perceptual,0.1,0.2,target,target,1,7.632
7,97,perceptual,0.1,0.2,competitor,target,1,4.839
7,98,perceptual,0.1,0.05,competitor,target,1,5.337
7,99,perceptual,0.1,0.05,competitor,target,1,7.866
7,100,perceptual,0.1,0.05,target,decoy,0,9.836
7,101,perceptual,0.03,0.05,competitor,target,1,15.931
7,102,perceptual,0.1,0.05,competitor,target,1,4.384
7,103,perceptual,0.1,0.05,target,target,1,11.724
7,104,numeric,0.03,0.05,competitor,target,1,4.92
7,105,perceptual,0.03,0.2,target,target,1,4.564
7,106,numeric,0.1,0.05,competitor,target,1,4.348
7,107,perceptual,0.03,0.05,competitor,target,1,4.43
7,108,numeric,0.1,0.05,target,target,1,5.502
7,109,numeric,0.03,0.2,target,target,1,5.019
7,110,numeric,0.03,0.2,target,target,1,7.433
7,111,perceptual,0.1,0.05,competitor,target,1,4.099
7,112,perceptual,0.1,0.2,target,target,1,3.435
7,113,numeric,0.1,0.2,target,target,1,7.389
7,114,perceptual,0.03,0.2,competitor,target,1,6.052
7,115,numeric,0.1,0.05,target,target,1,5.707
7,116,numeric,0.1,0.2,target,target,1,3.949
7,117,perceptual,0.1,0.2,competitor,target,1,4.399
7,118,numeric,0.1,0.05,competitor,target,1,6.777
7,119,perceptual,0.03,0.2,target,competitor,0,2.748
7,120,numeric,0.03,0.05,target,competitor,0,7.984
7,121,perceptual,0.1,0.2,competitor,target,1,4.117
7,122,perceptual,0.1,0.05,target,target,1,9.683
7,123,numeric,0.03,0.2,competitor,target,1,16.697
7,124,numeric,0.03,0.2,competitor,target,1,13.995
7,125,numeric,0.03,0.05,competitor,target,1,13.321
7,126,numeric,0.1,0.2,competitor,target,1,7.038
7,127,perceptual,0.03,0.2,competitor,competitor,0,10.202
7,128,numeric,0.03,0.05,competitor,target,1,7.15
7,129,perceptual,0.03,0.2,competitor,target,1,4.589
7,130,numeric,0.1,0.05,competitor,target,1,5.8
7,131,numeric,0.1,0.2,target,competitor,0,7.891
7,132,numeric,0.1,0.2,target,target,1,8.719
7,133,numeric,0.03,0.2,competitor,competitor,0,9.55
7,134,numeric,0.1,0.05,target,target,1,8.514
7,135,numeric,0.03,0.05,target,target,1,14.571
7,136,numeric,0.1,0.2,competitor,target,1,10.38
7,137,numeric,0.03,0.2,target,target,1,6.209
7,138,numeric,0.1,0.2,competitor,target,1,6.218
7,139,perceptual,0.1,0.05,competitor,target,1,5.334
7,140,perceptual,0.03,0.05,target,competitor,0,5.92
7,141,numeric,0.1,0.2,target,target,1,10.67
7,142,numeric,0.03,0.05,competitor,target,1,12.132
7,143,numeric,0.03,0.2,target,competitor,0,6.716
7,144,numeric,0.03,0.05,target,target,1,16.32
7,145,perceptual,0.1,0.05,target,target,1,7.376
7,146,numeric,0.1,0.05,target,target,1,5.673
7,147,numeric,0.03,0.2,competitor,target,1,6.507
7,148,numeric,0.03,0.05,target,target,1,10.235
7,149,perceptual,0.1,0.2,target,target,1,7.184
7,150,numeric,0.03,0.2,target,target,1,14.174
7,151,perceptual,0.1,0.05,target,target,1,4.354
7,152,numeric,0.1,0.2,competitor,target,1,9.316
7,153,numeric,0.03,0.05,target,target,1,15.221
7,154,perceptual,0.03,0.2,target,competitor,0,11.732
7,155,numeric,0.1,0.05,target,target,1,5.015
7,156,perceptual,0.03,0.2,target,target,1,10.783
7,157,perceptual,0.03,0.05,target,target,1,8.805
7,158,perceptual,0.03,0.05,target,target,1,6.633
7,159,numeric,0.03,0.05,competitor,target,1,12.865
7,160,perceptual,0.03,0.05,competitor,competitor,0,11.957
7,161,perceptual,0.1,0.05,target,decoy,0,7.928
7,162,numeric,0.03,0.05,competitor,target,1,6.365
7,163,perceptual,0.03,0.2,target,competitor,0,7.016
7,164,numeric,0.1,0.05,target,target,1,8.088
7,165,perceptual,0.1,0.2,competitor,competitor,0,6.998
7,166,numeric,0.03,0.05,target,target,1,6.904
7,167,numeric,0.03,0.05,competitor,competitor,0,8.337
7,168,numeric,0.03,0.2,competitor,target,1,10.551
7,169,numeric,0.03,0.2,competitor,competitor,0,9.415
7,170,perceptual,0.1,0.05,competitor,target,1,5.95
7,171,perceptual,0.1,0.2,competitor,target,1,6.772
7,172,numeric,0.1,0.2,competitor,target,1,10.79
7,173,numeric,0.03,0.05,competitor,competitor,0,9.994
7,174,numeric,0.1,0.05,target,target,1,11.417
7,175,perceptual,0.03,0.2,competitor,competitor,0,6.249
7,176,perceptual,0.03,0.05,competitor,target,1,7.215
7,177,perceptual,0.03,0.2,competitor,target,1,8.429
7,178,numeric,0.1,0.05,competitor,target,1,6.563
7,179,numeric,0.1,0.05,competitor,target,1,6.479
7,180,perceptual,0.1,0.05,competitor,target,1,6.289
7,181,perceptual,0.03,0.2,competitor,competitor,0,6.288
7,182,numeric,0.03,0.2,target,target,1,15.24
7,183,perceptual,0.03,0.2,competitor,target,1,8.155
7,184,numeric,0.1,0.2,competitor,target,1,14.065
7,185,perceptual,0.03,0.05,competitor,competitor,0,6.585
7,186,numeric,0.1,0.2,competitor,target,1,9.049
7,187,perceptual,0.03,0.05,competitor,competitor,0,7.513
7,188,numeric,0.1,0.2,target,target,1,8.176
7,189,numeric,0.1,0.05,target,target,1,8.17
7,190,perceptual,0.1,0.05,competitor,target,1,6.873
7,191,numeric,0.03,0.2,competitor,target,1,7.789
7,192,numeric,0.03,0.2,competitor,target,1,17.549
8,1,perceptual,0.03,0.2,target,competitor,0,5.158
8,2,perceptual,0.1,0.2,target,target,1,3.739
8,3,perceptual,0.1,0.05,target,target,1,6.486
8,4,numeric,0.1,0.2,competitor,target,1,10.978
8,5,numeric,0.1,0.2,competitor,target,1,7.43
8,6,numeric,0.1,0.2,competitor,target,1,5.768
8,7,perceptual,0.03,0.2,target,competitor,0,6.35
8,8,numeric,0.1,0.05,target,target,1,7.49
8,9,numeric,0.03,0.05,competitor,competitor,0,8.353
8,10,numeric,0.03,0.2,competitor,competitor,0,5.777
8,11,perceptual,0.03,0.05,target,target,1,6.159
8,12,perceptual,0.03,0.05,competitor,target,1,7.628
8,13,numeric,0.1,0.2,competitor,competitor,0,8.518
8,14,numeric,0.03,0.2,target,target,1,8
8,15,numeric,0.1,0.05,competitor,target,1,8.076
8,16,perceptual,0.1,0.05,competitor,target,1,4.919
8,17,perceptual,0.03,0.2,competitor,target,1,7.939
8,18,perceptual,0.1,0.05,competitor,competitor,0,6.81
8,19,numeric,0.03,0.05,target,target,1,6.208
8,20,numeric,0.1,0.05,target,target,1,7.993
8,21,perceptual,0.1,0.2,competitor,target,1,5.539
8,22,perceptual,0.1,0.2,target,target,1,6.398
8,23,numeric,0.03,0.2,competitor,target,1,15.624
8,24,numeric,0.1,0.05,target,target,1,8.003
8,25,numeric,0.03,0.05,competitor,target,1,12.208
8,26,numeric,0.03,0.05,competitor,competitor,0,10.904
8,27,perceptual,0.1,0.2,target,target,1,8.111
8,28,perceptual,0.03,0.05,target,target,1,7.76
8,29,numeric,0.1,0.2,competitor,target,1,8.128
8,30,numeric,0.1,0.2,competitor,target,1,5.639
8,31,numeric,0.03,0.05,target,target,1,9.257
8,32,numeric,0.03,0.2,target,target,1,10.635
8,33,numeric,0.1,0.05,competitor,target,1,15.963
8,34,perceptual,0.03,0.05,target,target,1,9
8,35,perceptual,0.03,0.05,target,target,1,5.57
8,36,numeric,0.03,0.05,competitor,target,1,10.646
8,37,numeric,0.03,0.2,target,target,1,14.62
8,38,perceptual,0.03,0.2,competitor,target,1,8.777
8,39,numeric,0.1,0.05,competitor,target,1,4.971
8,40,perceptual,0.03,0.2,competitor,target,1,7.038
8,41,perceptual,0.03,0.2,competitor,target,1,5.481
8,42,numeric,0.03,0.05,target,target,1,13.094
8,43,numeric,0.03,0.05,competitor,competitor,0,16.031
8,44,perceptual,0.03,0.2,target,target,1,6.552
8,45,perceptual,0.1,0.2,competitor,competitor,0,11.951
8,46,numeric,0.1,0.2,competitor,target,1,9.789
8,47,numeric,0.03,0.05,competitor,target,1,13.171
8,48,perceptual,0.03,0.05,competitor,target,1,16.596
8,49,numeric,0.1,0.05,competitor,target,1,8.444
8,50,perceptual,0.1,0.2,target,target,1,8.757
8,51,perceptual,0.1,0.05,target,target,1,9.544
8,52,numeric,0.1,0.05,target,target,1,12.577
8,53,perceptual,0.03,0.05,competitor,competitor,0,10.148
8,54,perceptual,0.1,0.2,competitor,target,1,4.218
8,55,perceptual,0.1,0.2,competitor,target,1,5.528
8,56,perceptual,0.03,0.05,competitor,competitor,0,4.771
8,57,perceptual,0.1,0.05,target,target,1,5.026
8,58,perceptual,0.1,0.2,competitor,target,1,7.31
8,59,perceptual,0.03,0.2,target,target,1,6.576
8,60,perceptual,0.1,0.05,competitor,target,1,10.096
8,61,numeric,0.03,0.2,target,competitor,0,11.905
8,62,numeric,0.03,0.05,competitor,target,1,9.625
8,63,perceptual,0.1,0.05,competitor,target,1,10.419
8,64,numeric,0.03,0.2,competitor,target,1,15.343
8,65,perceptual,0.1,0.2,competitor,target,1,8.556
8,66,numeric,0.1,0.2,target,target,1,9.753
8,67,perceptual,0.03,0.05,competitor,competitor,0,16.547
8,68,perceptual,0.03,0.2,competitor,competitor,0,7.977
8,69,perceptual,0.03,0.05,competitor,target,1,13.3
8,70,numeric,0.1,0.05,competitor,target,1,10.795
8,71,numeric,0.03,0.2,target,competitor,0,17.819
8,72,numeric,0.1,0.05,competitor,target,1,8.475
8,73,numeric,0.03,0.05,competitor,target,1,13.065
8,74,numeric,0.1,0.05,competitor,target,1,14.088
8,75,perceptual,0.1,0.2,target,target,1,9.501
8,76,numeric,0.03,0.2,target,target,1,7.275
8,77,numeric,0.1,0.2,target,target,1,9.496
8,78,numeric,0.1,0.05,competitor,target,1,7.29
8,79,perceptual,0.1,0.05,target,target,1,12.075
8,80,perceptual,0.03,0.05,target,target,1,5.439
8,81,numeric,0.03,0.05,target,competitor,0,19.594
8,82,perceptual,0.1,0.2,target,target,1,4.861
8,83,numeric,0.1,0.05,target,target,1,11.302
8,84,numeric,0.1,0.05,target,target,1,12.193
8,85,perceptual,0.03,0.05,competitor,target,1,13.251
8,86,numeric,0.03,0.05,target,competitor,0,14.594
8,87,perceptual,0.1,0.2,target,target,1,12.924
8,88,perceptual,0.03,0.05,competitor,target,1,8.77
8,89,numeric,0.1,0.05,competitor,target,1,11.306
8,90,perceptual,0.03,0.2,competitor,target,1,7.897
8,91,perceptual,0.1,0.05,target,target,1,5.806
8,92,numeric,0.03,0.05,competitor,target,1,10.224
8,93,perceptual,0.1,0.2,target,target,1,6.284
8,94,numeric,0.1,0.2,target,competitor,0,16.764
8,95,perceptual,0.1,0.05,competitor,target,1,7.908
8,96,numeric,0.1,0.2,target,target,1,10.623
8,97,perceptual,0.03,0.05,target,target,1,8.796
8,98,perceptual,0.03,0.05,target,target,1,6.276
8,99,perceptual,0.03,0.2,target,target,1,12.812
8,100,perceptual,0.03,0.05,target,target,1,11.156
8,101,numeric,0.1,0.2,competitor,competitor,0,16.764
8,102,perceptual,0.1,0.2,competitor,target,1,8.504
8,103,perceptual,0.1,0.2,competitor,target,1,7.834
8,104,numeric,0.1,0.05,target,target,1,8.179
8,105,perceptual,0.03,0.2,competitor,target,1,7.304
8,106,perceptual,0.03,0.2,competitor,target,1,6.626
8,107,numeric,0.03,0.2,competitor,target,1,11.968
8,108,numeric,0.1,0.2,competitor,target,1,12.364
8,109,numeric,0.03,0.05,target,target,1,10.89
8,110,numeric,0.03,0.2,competitor,competitor,0,9.963
8,111,numeric,0.1,0.05,competitor,target,1,8.869
8,112,numeric,0.1,0.2,target,target,1,10.046
8,113,perceptual,0.1,0.05,target,target,1,7.533
8,114,numeric,0.03,0.2,competitor,competitor,0,10.029
8,115,numeric,0.1,0.2,target,target,1,15.274
8,116,numeric,0.1,0.05,target,target,1,13.723
8,117,numeric,0.03,0.2,target,competitor,0,12.826
8,118,numeric,0.03,0.2,target,target,1,13.333
8,119,perceptual,0.1,0.2,competitor,target,1,9.976
8,120,numeric,0.1,0.2,target,target,1,7.421
8,121,numeric,0.03,0.05,target,competitor,0,10.964
8,122,perceptual,0.1,0.05,competitor,competitor,0,5.636
8,123,perceptual,0.1,0.2,target,target,1,9.257
8,124,numeric,0.1,0.2,competitor,target,1,12.388
8,125,perceptual,0.1,0.05,competitor,target,1,9.643
8,126,numeric,0.03,0.2,competitor,target,1,8.58
8,127,perceptual,0.03,0.2,competitor,target,1,7.153
8,128,perceptual,0.03,0.05,target,target,1,5.7
8,129,numeric,0.03,0.2,target,target,1,13.239
8,130,perceptual,0.03,0.05,competitor,target,1,8.406
8,131,numeric,0.03,0.05,competitor,target,1,9.831
8,132,perceptual,0.1,0.05,competitor,target,1,7.26
8,133,perceptual,0.03,0.2,target,target,1,9.379
8,134,numeric,0.03,0.05,target,target,1,11.465
8,135,perceptual,0.03,0.05,competitor,target,1,5.467
8,136,perceptual,0.1,0.05,target,target,1,8.621
8,137,perceptual,0.03,0.2,competitor,target,1,7.373
8,138,perceptual,0.03,0.2,target,competitor,0,7.849
8,139,numeric,0.1,0.05,target,decoy,0,8.921
8,140,numeric,0.03,0.05,target,target,1,12.894
8,141,perceptual,0.03,0.05,competitor,target,1,11.384
8,142,numeric,0.1,0.05,competitor,target,1,11.875
8,143,numeric,0.03,0.2,target,target,1,15.178
8,144,numeric,0.1,0.2,competitor,target,1,8.712
8,145,numeric,0.1,0.2,target,target,1,7.706
8,146,numeric,0.1,0.2,competitor,target,1,9.192
8,147,numeric,0.03,0.05,competitor,target,1,9.54
8,148,perceptual,0.1,0.05,target,target,1,6.902
8,149,numeric,0.1,0.05,target,target,1,9.369
8,150,numeric,0.03,0.2,competitor,target,1,13.587
8,151,perceptual,0.03,0.2,target,target,1,6.691
8,152,perceptual,0.1,0.05,competitor,target,1,6.248
8,153,perceptual,0.1,0.05,competitor,target,1,5.921
8,154,numeric,0.03,0.2,competitor,competitor,0,6.155
8,155,perceptual,0.1,0.05,competitor,target,1,5.027
8,156,numeric,0.1,0.2,target,target,1,6.395
8,157,perceptual,0.1,0.2,competitor,competitor,0,6.621
8,158,numeric,0.1,0.2,target,competitor,0,8.489
8,159,perceptual,0.03,0.2,competitor,target,1,4.914
8,160,perceptual,0.1,0.05,competitor,decoy,0,4.752
8,161,perceptual,0.1,0.2,target,target,1,6.508
8,162,numeric,0.1,0.2,target,target,1,9.447
8,163,perceptual,0.1,0.2,competitor,target,1,5.883
8,164,numeric,0.03,0.2,competitor,target,1,6.013
8,165,perceptual,0.1,0.2,target,target,1,5.461
8,166,numeric,0.03,0.05,competitor,target,1,9.231
8,167,perceptual,0.1,0.05,target,target,1,4.622
8,168,perceptual,0.03,0.2,competitor,competitor,0,5.928
8,169,numeric,0.03,0.2,target,competitor,0,8.541
8,170,numeric,0.03,0.05,target,target,1,9.932
8,171,perceptual,0.03,0.2,target,target,1,4.473
8,172,perceptual,0.1,0.2,target,target,1,8.849
8,173,numeric,0.03,0.2,target,competitor,0,14.012
8,174,perceptual,0.03,0.05,target,decoy,0,13.08
8,175,perceptual,0.03,0.2,target,target,1,6.827
8,176,numeric,0.1,0.05,competitor,target,1,8.748
8,177,numeric,0.03,0.2,competitor,target,1,10.478
8,178,perceptual,0.03,0.05,target,competitor,0,9.62
8,179,numeric,0.1,0.05,target,target,1,13.257
8,180,perceptual,0.03,0.05,competitor,target,1,8.471
8,181,numeric,0.03,0.05,target,competitor,0,10.844
8,182,perceptual,0.1,0.05,target,target,1,8.882
8,183,perceptual,0.1,0.05,target,target,1,7.043
8,184,perceptual,0.03,0.2,target,competitor,0,8.857
8,185,numeric,0.1,0.05,target,decoy,0,12.846
8,186,numeric,0.1,0.2,target,target,1,14.124
8,187,perceptual,0.03,0.05,target,competitor,0,10.093
8,188,perceptual,0.03,0.2,target,competitor,0,6.063
8,189,perceptual,0.1,0.05,target,target,1,5.726
8,190,numeric,0.03,0.2,competitor,competitor,0,11.864
8,192,perceptual,0.1,0.2,competitor,target,1,6.297
9,2,perceptual,0.03,0.2,target,competitor,0,18.746
9,3,numeric,0.1,0.05,competitor,target,1,5.228
9,4,numeric,0.03,0.2,target,competitor,0,8.032
9,5,perceptual,0.03,0.2,target,target,1,9.009
9,6,numeric,0.1,0.05,target,target,1,14.311
9,7,numeric,0.1,0.2,target,target,1,9.55
9,8,numeric,0.03,0.05,competitor,competitor,0,8.249
9,9,perceptual,0.03,0.2,target,competitor,0,8.678
9,10,numeric,0.1,0.2,competitor,target,1,13.302
9,11,perceptual,0.03,0.05,competitor,competitor,0,11.949
9,12,perceptual,0.1,0.2,target,target,1,2.907
9,13,numeric,0.03,0.2,target,competitor,0,5.503
9,14,numeric,0.1,0.2,competitor,target,1,4.485
9,15,numeric,0.03,0.05,competitor,target,1,5.998
9,16,perceptual,0.03,0.05,target,target,1,7.109
9,17,numeric,0.03,0.05,competitor,target,1,13.32
9,18,numeric,0.03,0.2,competitor,target,1,10.948
9,19,perceptual,0.1,0.05,target,decoy,0,5.652
9,20,perceptual,0.1,0.2,competitor,target,1,7.328
9,21,numeric,0.03,0.05,competitor,competitor,0,10.296
9,22,perceptual,0.1,0.05,target,target,1,11.885
9,23,numeric,0.1,0.2,competitor,target,1,3.669
9,24,perceptual,0.03,0.05,competitor,target,1,8.564
9,25,numeric,0.03,0.2,competitor,competitor,0,13.397
9,26,numeric,0.1,0.05,competitor,target,1,7.804
9,27,numeric,0.1,0.05,competitor,target,1,8.496
9,28,perceptual,0.03,0.05,target,target,1,8.521
9,29,perceptual,0.03,0.05,competitor,competitor,0,6.791
9,30,numeric,0.03,0.05,target,competitor,0,9.55
9,31,numeric,0.1,0.2,target,target,1,8.842
9,32,numeric,0.03,0.2,competitor,target,1,7.213
9,33,perceptual,0.03,0.2,competitor,target,1,4.992
9,34,numeric,0.03,0.2,target,target,1,9.127
9,35,perceptual,0.1,0.2,target,target,1,5.511
9,36,numeric,0.1,0.05,competitor,decoy,0,14.135
9,37,perceptual,0.03,0.05,competitor,target,1,8.294
9,38,numeric,0.1,0.2,target,target,1,11.964
9,39,numeric,0.1,0.05,competitor,target,1,8.776
9,40,numeric,0.03,0.2,competitor,target,1,8.477
9,41,perceptual,0.1,0.05,competitor,competitor,0,6.824
9,42,perceptual,0.03,0.2,competitor,competitor,0,5.685
9,43,perceptual,0.03,0.2,competitor,target,1,4.64
9,44,perceptual,0.03,0.2,target,target,1,5.572
9,45,perceptual,0.03,0.05,target,competitor,0,6.058
9,46,perceptual,0.1,0.2,target,target,1,3.533
9,47,perceptual,0.03,0.2,target,competitor,0,4.017
9,48,numeric,0.03,0.05,competitor,target,1,13.169
9,49,perceptual,0.1,0.2,target,decoy,0,3.645
9,50,numeric,0.03,0.05,target,competitor,0,4.99
9,51,perceptual,0.03,0.05,target,competitor,0,3.336
9,52,perceptual,0.03,0.2,competitor,target,1,3.789
9,53,numeric,0.1,0.05,target,target,1,2.563
9,54,perceptual,0.03,0.05,competitor,target,1,4.012
9,55,numeric,0.1,0.05,target,decoy,0,2.474
9,56,numeric,0.03,0.2,target,competitor,0,3.141
9,57,perceptual,0.1,0.2,competitor,competitor,0,2.418
9,58,numeric,0.1,0.2,competitor,competitor,0,3.912
9,59,numeric,0.1,0.2,competitor,target,1,4.208
9,60,perceptual,0.1,0.05,target,decoy,0,2.762
9,61,perceptual,0.1,0.2,competitor,target,1,2.275
9,62,numeric,0.03,0.2,target,competitor,0,3.798
9,63,perceptual,0.1,0.2,competitor,target,1,2.667
9,64,numeric,0.1,0.05,competitor,target,1,2.904
9,65,perceptual,0.1,0.2,target,decoy,0,3.727
9,66,numeric,0.03,0.2,target,competitor,0,3.485
9,67,perceptual,0.1,0.05,competitor,decoy,0,2.772
9,68,numeric,0.1,0.05,target,target,1,2.954
9,69,numeric,0.03,0.2,target,competitor,0,3.896
9,70,perceptual,0.03,0.05,competitor,competitor,0,3.151
9,71,numeric,0.03,0.05,target,competitor,0,3.117
9,72,numeric,0.03,0.05,target,decoy,0,2.639
9,73,perceptual,0.1,0.2,target,target,1,2.165
9,74,perceptual,0.03,0.05,target,decoy,0,2.175
9,75,perceptual,0.03,0.2,target,target,1,2.205
9,76,numeric,0.03,0.2,target,decoy,0,3.531
9,77,perceptual,0.1,0.05,competitor,competitor,0,3.61
9,78,perceptual,0.1,0.2,competitor,target,1,3.782
9,79,numeric,0.1,0.2,competitor,target,1,3.352
9,80,perceptual,0.1,0.05,target,target,1,1.941
9,81,numeric,0.03,0.2,competitor,target,1,2.667
9,82,numeric,0.1,0.05,target,decoy,0,2.275
9,83,numeric,0.1,0.2,competitor,competitor,0,2.444
9,84,numeric,0.1,0.2,target,competitor,0,2.289
9,85,numeric,0.03,0.05,target,decoy,0,2.511
9,86,numeric,0.1,0.2,target,competitor,0,2.012
9,87,perceptual,0.1,0.2,target,target,1,2.434
9,88,perceptual,0.03,0.2,competitor,target,1,2.051
9,89,numeric,0.1,0.2,target,target,1,3.705
9,90,numeric,0.1,0.05,target,decoy,0,2.019
9,91,numeric,0.03,0.2,competitor,competitor,0,2.733
9,92,numeric,0.03,0.2,competitor,competitor,0,2.712
9,93,perceptual,0.1,0.05,competitor,competitor,0,1.935
9,94,perceptual,0.03,0.05,competitor,decoy,0,1.994
9,95,perceptual,0.03,0.05,target,decoy,0,2.751
9,96,perceptual,0.03,0.2,target,decoy,0,1.844
9,97,perceptual,0.03,0.2,target,competitor,0,3.223
9,98,perceptual,0.1,0.2,competitor,target,1,1.95
9,99,perceptual,0.03,0.2,competitor,competitor,0,2.4
9,100,numeric,0.03,0.2,target,target,1,7.938
9,101,perceptual,0.1,0.2,competitor,target,1,3.887
9,102,perceptual,0.1,0.2,competitor,target,1,3.995
9,103,perceptual,0.03,0.05,target,competitor,0,1.997
9,104,perceptual,0.1,0.05,competitor,target,1,2.259
9,105,numeric,0.1,0.2,target,target,1,9.395
9,106,numeric,0.03,0.05,competitor,decoy,0,3.628
9,107,perceptual,0.03,0.05,competitor,decoy,0,2.544
9,108,numeric,0.1,0.05,target,target,1,2.699
9,109,perceptual,0.03,0.2,competitor,competitor,0,2.387
9,110,numeric,0.1,0.2,competitor,target,1,4.809
9,111,perceptual,0.03,0.05,competitor,competitor,0,2.303
9,112,perceptual,0.1,0.05,competitor,target,1,2.588
9,113,numeric,0.1,0.2,target,target,1,2.965
9,114,perceptual,0.03,0.2,target,competitor,0,2.302
9,115,numeric,0.1,0.05,target,decoy,0,1.824
9,116,numeric,0.03,0.2,target,target,1,2.609
9,117,numeric,0.03,0.05,target,target,1,3.389
9,118,numeric,0.1,0.05,competitor,decoy,0,1.894
9,119,numeric,0.03,0.2,competitor,competitor,0,2.025
9,120,perceptual,0.1,0.05,target,competitor,0,2.259
9,121,numeric,0.1,0.2,target,competitor,0,2.402
9,122,perceptual,0.1,0.2,target,decoy,0,1.935
9,123,numeric,0.03,0.05,competitor,competitor,0,8.388
9,124,perceptual,0.03,0.05,competitor,target,1,3.361
9,125,perceptual,0.1,0.05,competitor,target,1,2.332
9,126,perceptual,0.1,0.2,competitor,competitor,0,2.229
9,127,perceptual,0.03,0.2,competitor,competitor,0,2.408
9,128,perceptual,0.1,0.05,competitor,target,1,1.73
9,129,perceptual,0.1,0.05,target,competitor,0,1.769
9,130,perceptual,0.1,0.05,target,decoy,0,2.474
9,131,numeric,0.1,0.05,target,target,1,8.431
9,132,perceptual,0.1,0.05,target,competitor,0,2.315
9,133,numeric,0.1,0.05,competitor,target,1,2.445
9,134,numeric,0.1,0.05,target,target,1,4.965
9,135,perceptual,0.03,0.05,target,decoy,0,2.68
9,136,perceptual,0.1,0.2,competitor,target,1,2.072
9,137,perceptual,0.1,0.05,target,target,1,2.236
9,138,numeric,0.1,0.2,competitor,competitor,0,2.805
9,139,numeric,0.03,0.05,competitor,competitor,0,2.142
9,140,perceptual,0.1,0.2,target,competitor,0,1.77
9,141,perceptual,0.03,0.2,target,competitor,0,1.807
9,142,perceptual,0.03,0.2,target,decoy,0,1.854
9,143,numeric,0.1,0.05,target,target,1,2.13
9,144,numeric,0.03,0.2,target,competitor,0,1.829
9,145,perceptual,0.1,0.05,competitor,decoy,0,2.162
9,146,perceptual,0.03,0.2,competitor,decoy,0,1.797
9,147,perceptual,0.1,0.05,target,competitor,0,1.989
9,148,numeric,0.1,0.05,competitor,target,1,5.196
9,149,perceptual,0.03,0.05,target,decoy,0,2.861
9,150,perceptual,0.1,0.05,competitor,target,1,2.944
9,151,perceptual,0.03,0.2,competitor,competitor,0,2.325
9,152,numeric,0.1,0.05,target,target,1,3.681
9,153,numeric,0.03,0.05,competitor,target,1,2.595
9,154,numeric,0.03,0.05,target,target,1,7.197
9,155,numeric,0.03,0.2,competitor,target,1,5.525
9,156,numeric,0.1,0.2,competitor,target,1,2.941
9,157,perceptual,0.03,0.2,competitor,decoy,0,2.163
9,158,perceptual,0.03,0.05,target,target,1,1.786
9,159,numeric,0.03,0.2,competitor,target,1,3.231
9,160,perceptual,0.03,0.05,competitor,target,1,2.109
9,161,numeric,0.03,0.05,competitor,decoy,0,1.878
9,162,numeric,0.03,0.05,target,competitor,0,2.288
9,163,numeric,0.03,0.2,target,competitor,0,2.158
9,164,numeric,0.03,0.2,competitor,competitor,0,1.875
9,165,perceptual,0.1,0.05,competitor,competitor,0,2.072
9,166,perceptual,0.1,0.05,target,decoy,0,2.412
9,167,numeric,0.03,0.05,target,competitor,0,1.794
9,168,perceptual,0.1,0.2,competitor,competitor,0,1.62
9,169,numeric,0.03,0.05,target,target,1,1.713
9,170,perceptual,0.1,0.05,competitor,competitor,0,1.953
9,171,numeric,0.1,0.2,target,target,1,1.809
9,172,perceptual,0.03,0.05,target,target,1,2.044
9,173,perceptual,0.1,0.2,competitor,competitor,0,2.229
9,174,numeric,0.03,0.05,target,decoy,0,1.611
9,175,numeric,0.1,0.2,target,decoy,0,1.807
9,176,numeric,0.03,0.05,competitor,competitor,0,1.772
9,177,perceptual,0.1,0.2,target,competitor,0,3.537
9,178,perceptual,0.1,0.2,target,competitor,0,1.957
9,179,perceptual,0.03,0.2,target,target,1,2.362
9,180,numeric,0.1,0.05,competitor,competitor,0,2.747
9,181,numeric,0.1,0.05,competitor,target,1,2.676
9,182,perceptual,0.1,0.05,target,target,1,1.774
9,183,perceptual,0.03,0.05,target,competitor,0,1.846
9,184,numeric,0.1,0.2,competitor,decoy,0,2.312
9,185,perceptual,0.1,0.2,target,competitor,0,1.764
9,186,numeric,0.03,0.05,target,competitor,0,2.667
9,187,numeric,0.03,0.05,competitor,target,1,2.488
9,188,perceptual,0.03,0.2,competitor,target,1,1.834
9,189,perceptual,0.03,0.05,competitor,decoy,0,2.144
9,190,numeric,0.1,0.2,target,target,1,3.376
9,191,numeric,0.03,0.2,competitor,target,1,4.909
9,192,numeric,0.1,0.2,competitor,target,1,7.934
10,1,numeric,0.1,0.05,target,decoy,0,14.063
10,2,perceptual,0.03,0.05,competitor,competitor,0,6.315
10,3,numeric,0.1,0.05,competitor,competitor,0,7.461
10,4,numeric,0.1,0.05,competitor,target,1,5.25
10,5,perceptual,0.03,0.2,competitor,target,1,5.004
10,7,numeric,0.03,0.05,target,competitor,0,4.507
10,8,perceptual,0.1,0.05,target,target,1,6.507
10,9,numeric,0.1,0.2,competitor,competitor,0,12.048
10,10,numeric,0.03,0.2,competitor,target,1,12.008
10,11,numeric,0.1,0.05,competitor,decoy,0,12.903
10,12,numeric,0.03,0.05,competitor,target,1,4.982
10,13,perceptual,0.1,0.05,competitor,target,1,3.731
10,14,numeric,0.1,0.2,target,target,1,8.651
10,15,perceptual,0.03,0.2,competitor,target,1,9.787
10,16,perceptual,0.1,0.05,competitor,target,1,6.516
10,17,perceptual,0.03,0.05,target,target,1,10.858
10,18,numeric,0.03,0.2,target,competitor,0,11.346
10,19,perceptual,0.1,0.2,competitor,target,1,3.093
10,20,numeric,0.1,0.05,competitor,competitor,0,9.471
10,21,perceptual,0.1,0.2,target,target,1,4.933
10,22,numeric,0.1,0.05,competitor,target,1,6.606
10,23,numeric,0.03,0.2,target,competitor,0,6.326
10,24,perceptual,0.03,0.2,target,target,1,7.149
10,25,perceptual,0.03,0.05,target,competitor,0,3.988
10,26,perceptual,0.1,0.05,competitor,decoy,0,7.73
10,27,perceptual,0.03,0.05,target,target,1,5.557
10,28,perceptual,0.03,0.2,competitor,target,1,5.215
10,29,numeric,0.1,0.2,target,target,1,5.99
10,30,numeric,0.03,0.05,competitor,competitor,0,8.331
10,31,perceptual,0.03,0.05,competitor,decoy,0,6.556
10,32,perceptual,0.1,0.05,competitor,competitor,0,7.834
10,33,numeric,0.1,0.05,competitor,target,1,4.508
10,34,numeric,0.03,0.2,target,target,1,6.448
10,35,perceptual,0.1,0.05,target,target,1,5.878
10,36,perceptual,0.1,0.05,target,target,1,6.458
10,37,perceptual,0.1,0.2,target,decoy,0,5.299
10,38,perceptual,0.03,0.05,target,decoy,0,4.014
10,39,perceptual,0.03,0.2,target,decoy,0,3.766
10,40,numeric,0.03,0.2,target,target,1,9.041
10,41,numeric,0.03,0.05,competitor,competitor,0,7.563
10,42,perceptual,0.03,0.05,competitor,target,1,4.06
10,43,numeric,0.03,0.2,target,target,1,4.199
10,44,perceptual,0.1,0.2,target,target,1,6.714
10,45,perceptual,0.1,0.2,target,target,1,4.909
10,46,numeric,0.1,0.05,target,decoy,0,6.019
10,47,perceptual,0.03,0.2,competitor,target,1,5.385
10,48,numeric,0.1,0.2,competitor,target,1,6.087
10,49,perceptual,0.03,0.05,competitor,decoy,0,4.31
10,50,numeric,0.1,0.05,competitor,competitor,0,3.627
10,51,numeric,0.1,0.05,target,competitor,0,3.169
10,52,numeric,0.1,0.05,target,target,1,3.573
10,53,perceptual,0.1,0.2,target,target,1,3.014
10,54,numeric,0.03,0.2,competitor,competitor,0,6.334
10,55,perceptual,0.03,0.05,target,target,1,3.345
10,56,numeric,0.03,0.05,competitor,competitor,0,5.658
10,57,numeric,0.1,0.2,target,target,1,5.131
10,58,perceptual,0.03,0.2,target,competitor,0,5.604
10,59,numeric,0.1,0.2,competitor,competitor,0,5.588
10,60,numeric,0.1,0.05,target,target,1,8.593
10,61,perceptual,0.1,0.05,competitor,target,1,5.182
10,62,perceptual,0.1,0.05,target,competitor,0,3.689
10,63,numeric,0.1,0.05,competitor,target,1,7.188
10,64,perceptual,0.1,0.05,target,decoy,0,3.905
10,65,numeric,0.03,0.05,target,competitor,0,7.37
10,66,perceptual,0.03,0.05,competitor,target,1,3.314
10,67,perceptual,0.03,0.05,competitor,competitor,0,2.979
10,68,numeric,0.1,0.2,target,target,1,8.373
10,69,perceptual,0.1,0.05,competitor,competitor,0,3.098
10,70,numeric,0.1,0.2,competitor,target,1,6.447
10,71,perceptual,0.03,0.2,target,competitor,0,3.793
10,72,numeric,0.1,0.05,target,decoy,0,2.43
10,73,numeric,0.03,0.05,competitor,target,1,2.446
10,74,perceptual,0.03,0.05,target,competitor,0,4.216
10,75,perceptual,0.03,0.2,target,decoy,0,2.344
10,76,perceptual,0.03,0.2,competitor,decoy,0,4.452
10,77,numeric,0.03,0.2,competitor,target,1,3.688
10,78,numeric,0.03,0.05,competitor,target,1,4.002
10,79,numeric,0.03,0.2,competitor,target,1,2.662
10,80,numeric,0.03,0.2,target,competitor,0,3.135
10,81,perceptual,0.1,0.2,competitor,decoy,0,3.006
10,82,perceptual,0.03,0.2,competitor,target,1,2.628
10,83,perceptual,0.03,0.2,competitor,target,1,2.616
10,84,numeric,0.03,0.2,target,decoy,0,7.89
10,85,numeric,0.03,0.2,target,competitor,0,10.167
10,86,perceptual,0.1,0.05,competitor,target,1,3.616
10,87,numeric,0.1,0.2,target,competitor,0,3.565
10,88,perceptual,0.1,0.2,target,target,1,2.303
10,89,numeric,0.1,0.2,competitor,target,1,8.8
10,90,numeric,0.03,0.05,competitor,competitor,0,7.512
10,91,perceptual,0.03,0.05,target,competitor,0,3.347
10,92,numeric,0.1,0.05,target,target,1,10.129
10,93,numeric,0.03,0.05,competitor,competitor,0,7.212
10,94,numeric,0.03,0.05,target,target,1,5.499
10,95,numeric,0.1,0.05,target,target,1,7.162
10,96,numeric,0.1,0.2,competitor,competitor,0,7.278
10,97,perceptual,0.1,0.05,target,target,1,6.196
10,98,perceptual,0.03,0.05,target,competitor,0,6.04
10,99,numeric,0.03,0.2,competitor,competitor,0,5.049
10,100,perceptual,0.03,0.05,target,decoy,0,4.117
10,101,numeric,0.03,0.2,target,competitor,0,4.782
10,102,perceptual,0.1,0.05,competitor,competitor,0,4.187
10,103,perceptual,0.1,0.2,competitor,competitor,0,2.498
10,104,numeric,0.03,0.05,competitor,target,1,5.776
10,105,numeric,0.03,0.2,target,target,1,4.95
10,106,perceptual,0.1,0.2,target,target,1,3.362
10,107,numeric,0.03,0.05,target,target,1,6.449
10,108,numeric,0.03,0.05,target,competitor,0,4.877
10,109,perceptual,0.1,0.2,target,competitor,0,4.139
10,110,numeric,0.03,0.2,competitor,target,1,3.821
10,111,numeric,0.1,0.2,target,target,1,3.773
10,112,numeric,0.03,0.2,target,target,1,2.328
10,113,numeric,0.1,0.2,competitor,target,1,2.897
10,114,perceptual,0.03,0.2,target,decoy,0,3.594
10,115,numeric,0.03,0.2,competitor,competitor,0,3.272
10,116,numeric,0.1,0.05,target,target,1,2.961
10,117,perceptual,0.03,0.05,competitor,competitor,0,2.949
10,118,numeric,0.03,0.05,target,target,1,5.953
10,119,numeric,0.1,0.05,competitor,target,1,3.873
10,120,numeric,0.1,0.05,competitor,target,1,5.178
10,121,perceptual,0.1,0.05,competitor,decoy,0,3.112
10,122,perceptual,0.1,0.05,competitor,competitor,0,2.901
10,123,perceptual,0.03,0.05,competitor,decoy,0,2.969
10,124,numeric,0.03,0.05,target,competitor,0,2.328
10,125,perceptual,0.03,0.05,competitor,target,1,3.748
10,126,numeric,0.03,0.05,competitor,competitor,0,3.781
10,127,numeric,0.1,0.2,competitor,decoy,0,4.027
10,128,perceptual,0.1,0.05,target,competitor,0,3.293
10,129,perceptual,0.1,0.2,competitor,competitor,0,3.971
10,130,numeric,0.03,0.2,competitor,target,1,3.075
10,131,perceptual,0.03,0.2,competitor,target,1,2.559
10,132,numeric,0.03,0.2,competitor,competitor,0,4.842
10,133,numeric,0.03,0.05,competitor,target,1,6.545
10,134,numeric,0.1,0.2,competitor,competitor,0,5.714
10,135,perceptual,0.1,0.05,target,competitor,0,3.759
10,136,numeric,0.1,0.2,target,target,1,3.057
10,137,perceptual,0.1,0.2,target,decoy,0,5.089
10,138,perceptual,0.03,0.2,target,competitor,0,2.326
10,139,perceptual,0.03,0.2,competitor,target,1,5.007
10,140,perceptual,0.03,0.05,target,target,1,3.195
10,141,perceptual,0.1,0.2,competitor,target,1,2.634
10,142,numeric,0.03,0.05,target,target,1,6.315
10,143,perceptual,0.1,0.2,competitor,decoy,0,3.229
10,144,perceptual,0.03,0.2,target,competitor,0,2.17
10,145,perceptual,0.03,0.05,target,decoy,0,4.19
10,146,perceptual,0.1,0.05,competitor,decoy,0,2.34
10,147,numeric,0.1,0.2,competitor,competitor,0,2.57
10,148,perceptual,0.03,0.2,target,decoy,0,2.595
10,149,perceptual,0.03,0.2,competitor,decoy,0,2.544
10,150,numeric,0.1,0.05,target,target,1,6.743
10,151,numeric,0.03,0.2,target,target,1,6.318
10,152,numeric,0.03,0.05,target,target,1,7.317
10,153,numeric,0.1,0.2,competitor,target,1,6.017
10,154,numeric,0.1,0.2,target,competitor,0,2.848
10,155,perceptual,0.03,0.2,competitor,decoy,0,2.42
10,156,perceptual,0.03,0.05,target,decoy,0,3.288
10,157,perceptual,0.03,0.2,target,target,1,5.222
10,158,numeric,0.03,0.05,target,target,1,5.682
10,159,numeric,0.1,0.2,competitor,target,1,2.772
10,160,numeric,0.1,0.05,target,decoy,0,3.125
10,161,perceptual,0.1,0.05,target,target,1,2.365
10,162,perceptual,0.1,0.05,target,target,1,3.887
10,163,numeric,0.03,0.2,competitor,competitor,0,3.004
10,164,perceptual,0.1,0.2,competitor,competitor,0,2.985
10,165,numeric,0.1,0.2,target,target,1,3.821
10,166,perceptual,0.03,0.05,competitor,target,1,2.948
10,167,numeric,0.1,0.2,target,target,1,6.312
10,168,perceptual,0.1,0.2,competitor,competitor,0,4.037
10,169,numeric,0.1,0.2,target,competitor,0,4.268
10,170,numeric,0.03,0.2,competitor,competitor,0,3.292
10,171,perceptual,0.03,0.05,competitor,target,1,5.916
10,172,numeric,0.03,0.05,target,competitor,0,6.874
10,173,perceptual,0.1,0.2,competitor,competitor,0,3.443
10,174,perceptual,0.03,0.2,target,competitor,0,3.987
10,175,numeric,0.1,0.05,competitor,target,1,4.018
10,176,perceptual,0.1,0.2,target,competitor,0,3.025
10,177,perceptual,0.1,0.2,target,decoy,0,2.947
10,178,perceptual,0.03,0.05,competitor,decoy,0,2.763
10,179,perceptual,0.03,0.2,target,target,1,2.488
10,180,numeric,0.1,0.2,target,competitor,0,7.237
10,181,numeric,0.1,0.05,competitor,competitor,0,5.466
10,182,perceptual,0.1,0.05,target,competitor,0,2.51
10,183,perceptual,0.03,0.2,competitor,competitor,0,3.26
10,184,perceptual,0.1,0.2,competitor,target,1,3.388
10,185,numeric,0.03,0.05,competitor,target,1,6.826
10,186,perceptual,0.1,0.2,target,competitor,0,3.351
10,187,numeric,0.03,0.2,competitor,target,1,6.927
10,188,perceptual,0.1,0.2,competitor,target,1,2.618
10,189,numeric,0.1,0.05,target,decoy,0,2.82
10,190,perceptual,0.1,0.05,competitor,target,1,2.793
10,191,perceptual,0.1,0.05,target,decoy,0,3.564
10,192,perceptual,0.1,0.2,competitor,competitor,0,4.195
11,1,perceptual,0.1,0.05,target,target,1,11.206
11,2,perceptual,0.03,0.2,target,decoy,0,12.097
11,3,numeric,0.1,0.2,competitor,target,1,8.41
11,4,perceptual,0.03,0.05,competitor,target,1,8.313
11,5,perceptual,0.1,0.05,target,competitor,0,10.328
11,6,numeric,0.1,0.2,target,target,1,18.981
11,7,numeric,0.1,0.2,competitor,competitor,0,12.611
11,8,numeric,0.03,0.05,competitor,competitor,0,12.367
11,9,numeric,0.03,0.05,competitor,competitor,0,11.434
11,10,numeric,0.03,0.05,target,target,1,12.887
11,11,numeric,0.1,0.2,target,target,1,10.796
11,12,perceptual,0.03,0.2,target,competitor,0,9.093
11,13,numeric,0.1,0.05,target,target,1,14.211
11,14,perceptual,0.03,0.2,competitor,target,1,4.743
11,15,numeric,0.03,0.2,target,target,1,4.178
11,16,numeric,0.1,0.05,target,target,1,5.412
11,17,perceptual,0.1,0.05,competitor,decoy,0,13.547
11,18,numeric,0.03,0.05,competitor,decoy,0,11.395
11,21,numeric,0.1,0.05,competitor,competitor,0,14.61
11,22,perceptual,0.03,0.05,target,target,1,12.142
11,23,numeric,0.1,0.05,competitor,target,1,17.925
11,24,numeric,0.1,0.2,target,target,1,13.219
11,25,numeric,0.03,0.2,competitor,competitor,0,8.198
11,26,perceptual,0.03,0.2,competitor,target,1,13.919
11,28,numeric,0.03,0.05,target,target,1,0.645
11,29,numeric,0.1,0.05,competitor,competitor,0,8.711
11,30,numeric,0.1,0.05,target,target,1,11.496
11,31,numeric,0.03,0.2,competitor,competitor,0,15.347
11,32,perceptual,0.03,0.2,target,competitor,0,9.986
11,33,perceptual,0.03,0.2,competitor,competitor,0,12.761
11,34,numeric,0.1,0.05,target,competitor,0,11.923
11,35,perceptual,0.03,0.05,competitor,competitor,0,4.994
11,36,numeric,0.1,0.2,target,target,1,11.101
11,37,numeric,0.1,0.05,target,target,1,5.422
11,38,perceptual,0.1,0.2,target,target,1,6.362
11,39,numeric,0.1,0.2,competitor,decoy,0,6.207
11,40,numeric,0.03,0.2,target,target,1,7.294
11,41,numeric,0.1,0.05,competitor,target,1,6.317
11,42,numeric,0.1,0.2,competitor,target,1,3.096
11,43,numeric,0.03,0.2,target,target,1,5.232
11,44,perceptual,0.03,0.05,target,target,1,5.496
11,45,perceptual,0.03,0.2,target,target,1,4.976
11,46,numeric,0.03,0.2,target,target,1,6.928
11,47,perceptual,0.1,0.2,target,target,1,4.28
11,48,perceptual,0.1,0.2,competitor,target,1,2.374
11,49,perceptual,0.1,0.2,target,target,1,4.385
11,52,numeric,0.1,0.2,target,target,1,5.676
11,53,perceptual,0.03,0.2,target,target,1,5.164
11,54,numeric,0.1,0.2,target,target,1,4.145
11,55,numeric,0.03,0.2,competitor,target,1,5.767
11,56,perceptual,0.03,0.2,target,target,1,9.227
11,57,perceptual,0.1,0.2,target,target,1,6.896
11,58,numeric,0.1,0.2,target,target,1,5.278
11,59,perceptual,0.1,0.05,competitor,target,1,4.428
11,60,perceptual,0.03,0.05,target,decoy,0,7.694
11,61,perceptual,0.1,0.05,target,target,1,2.408
11,62,numeric,0.03,0.05,target,decoy,0,4.829
11,63,perceptual,0.1,0.2,target,target,1,5.101
11,64,numeric,0.03,0.2,competitor,target,1,7.423
11,65,perceptual,0.03,0.2,competitor,target,1,5.351
11,66,numeric,0.03,0.05,competitor,target,1,6.697
11,67,perceptual,0.1,0.2,competitor,target,1,16.691
11,68,numeric,0.03,0.05,target,decoy,0,6.2
11,69,numeric,0.03,0.05,target,competitor,0,2.505
11,70,numeric,0.1,0.2,target,competitor,0,3.166
11,71,numeric,0.03,0.2,competitor,target,1,2.671
11,72,numeric,0.03,0.2,target,competitor,0,2.832
11,73,perceptual,0.03,0.05,competitor,competitor,0,4.265
11,74,numeric,0.1,0.05,competitor,target,1,3.995
11,75,perceptual,0.03,0.05,target,target,1,4.875
11,76,perceptual,0.03,0.2,target,target,1,5.691
11,77,perceptual,0.03,0.05,target,decoy,0,5.425
11,78,numeric,0.1,0.05,target,decoy,0,4.796
11,79,numeric,0.1,0.05,competitor,target,1,4.465
11,80,numeric,0.03,0.05,target,target,1,16.767
11,81,numeric,0.1,0.05,competitor,target,1,7.164
11,82,numeric,0.03,0.05,target,decoy,0,4.729
11,83,perceptual,0.03,0.2,competitor,target,1,4.951
11,84,numeric,0.1,0.05,target,decoy,0,7.14
11,85,perceptual,0.03,0.2,competitor,competitor,0,3.207
11,86,numeric,0.03,0.2,competitor,target,1,2.203
11,87,perceptual,0.1,0.2,target,decoy,0,4.238
11,88,perceptual,0.03,0.2,competitor,competitor,0,3.729
11,89,numeric,0.03,0.2,target,target,1,5.858
11,90,numeric,0.1,0.05,target,decoy,0,5.092
11,91,numeric,0.03,0.05,competitor,decoy,0,6.741
11,92,numeric,0.1,0.2,target,target,1,9.161
11,93,perceptual,0.03,0.2,competitor,target,1,5.728
11,94,numeric,0.1,0.2,target,target,1,5.347
11,95,perceptual,0.03,0.05,target,decoy,0,12.749
11,96,perceptual,0.1,0.2,competitor,decoy,0,4.259
11,97,perceptual,0.03,0.05,competitor,target,1,3.817
11,98,perceptual,0.03,0.05,competitor,target,1,5.178
11,99,numeric,0.03,0.05,competitor,target,1,9.246
11,100,perceptual,0.03,0.2,target,target,1,7.906
11,101,numeric,0.1,0.05,competitor,target,1,5.303
11,102,numeric,0.03,0.05,target,target,1,5.372
11,103,perceptual,0.1,0.05,competitor,target,1,5.468
11,104,numeric,0.1,0.05,target,decoy,0,4.121
11,105,perceptual,0.03,0.2,target,target,1,3.469
11,106,numeric,0.03,0.2,target,competitor,0,3.932
11,107,perceptual,0.1,0.05,competitor,target,1,4.067
11,108,numeric,0.1,0.05,competitor,target,1,3.904
11,109,perceptual,0.1,0.05,competitor,target,1,4.747
11,110,perceptual,0.03,0.05,competitor,competitor,0,4.822
11,111,numeric,0.1,0.2,competitor,target,1,8.832
11,112,perceptual,0.1,0.05,competitor,competitor,0,5.482
11,113,perceptual,0.1,0.2,target,target,1,3.699
11,114,perceptual,0.03,0.05,target,target,1,7.839
11,115,perceptual,0.03,0.05,target,target,1,3.826
11,116,perceptual,0.03,0.2,competitor,competitor,0,3.88
11,117,numeric,0.03,0.05,competitor,competitor,0,4.984
11,118,perceptual,0.1,0.05,competitor,decoy,0,7.961
11,119,perceptual,0.1,0.05,competitor,target,1,8.147
11,120,numeric,0.1,0.2,competitor,target,1,3.543
11,121,numeric,0.1,0.2,competitor,decoy,0,3.985
11,122,numeric,0.03,0.05,target,decoy,0,4.431
11,123,numeric,0.03,0.05,competitor,decoy,0,8.253
11,124,numeric,0.03,0.05,target,decoy,0,10.387
