participant,trial_counter,condition,target_to_competitor,decoy_reduction,decoy_on,chosen_item,correct,rt
1,1,perceptual,0.03,0.2,target,decoy,0,9.071
1,2,perceptual,0.1,0.05,target,decoy,0,4.962
1,3,numeric,0.1,0.05,target,target,1,9.711
1,4,perceptual,0.1,0.2,target,target,1,6.938
1,5,perceptual,0.03,0.2,competitor,decoy,0,2.798
1,6,perceptual,0.1,0.05,target,target,1,5.245
1,7,perceptual,0.1,0.05,target,competitor,0,5.13
1,8,perceptual,0.03,0.05,target,competitor,0,4.403
1,9,numeric,0.03,0.05,competitor,decoy,0,7.147
1,10,perceptual,0.03,0.05,target,competitor,0,5.41
1,11,numeric,0.03,0.05,target,competitor,0,9.128
1,12,perceptual,0.03,0.2,competitor,target,1,8.331
1,13,numeric,0.1,0.05,competitor,competitor,0,4.232
1,14,numeric,0.03,0.2,target,target,1,7.445
1,15,numeric,0.03,0.2,target,target,1,7.33
1,16,numeric,0.1,0.05,competitor,target,1,8.087
1,17,numeric,0.1,0.05,target,target,1,6.417
1,18,perceptual,0.1,0.2,target,competitor,0,3.821
1,19,perceptual,0.03,0.2,competitor,target,1,6.184
1,20,numeric,0.1,0.2,target,target,1,5.265
1,21,perceptual,0.1,0.2,competitor,target,1,6.035
1,22,perceptual,0.03,0.05,target,decoy,0,6.9
1,23,perceptual,0.1,0.05,competitor,target,1,4.073
1,24,perceptual,0.1,0.05,target,target,1,4.787
1,25,numeric,0.03,0.2,competitor,competitor,0,8.783
1,26,perceptual,0.1,0.2,competitor,target,1,4.01
1,27,perceptual,0.1,0.2,competitor,competitor,0,5.5
1,28,perceptual,0.03,0.2,target,target,1,7.517
1,29,numeric,0.03,0.05,competitor,competitor,0,13.548
1,30,numeric,0.03,0.2,target,target,1,7.075
1,31,perceptual,0.1,0.2,competitor,decoy,0,6.066
1,32,numeric,0.1,0.2,competitor,target,1,7.241
1,33,perceptual,0.1,0.2,competitor,target,1,3.356
1,34,perceptual,0.03,0.05,target,target,1,7.397
1,35,numeric,0.03,0.05,target,competitor,0,6.491
1,36,numeric,0.03,0.2,target,target,1,10.867
1,37,perceptual,0.03,0.05,competitor,competitor,0,8.148
1,38,numeric,0.03,0.2,target,competitor,0,5.565
1,39,numeric,0.1,0.2,competitor,target,1,6.815
1,40,perceptual,0.1,0.05,target,target,1,6.395
1,41,perceptual,0.1,0.05,competitor,competitor,0,4.63
1,42,perceptual,0.03,0.2,target,target,1,4.645
1,43,perceptual,0.03,0.2,competitor,competitor,0,4.375
1,44,perceptual,0.03,0.05,competitor,target,1,5.245
1,45,perceptual,0.03,0.05,competitor,target,1,3.694
1,46,perceptual,0.1,0.2,competitor,competitor,0,5.758
1,47,perceptual,0.03,0.2,target,competitor,0,5.462
1,48,perceptual,0.1,0.2,competitor,target,1,5.695
1,49,numeric,0.1,0.05,target,decoy,0,9.315
1,50,numeric,0.03,0.05,target,target,1,8.235
1,51,perceptual,0.03,0.05,competitor,target,1,5.934
1,52,numeric,0.03,0.05,target,target,1,8.297
1,53,numeric,0.03,0.2,competitor,target,1,10.787
1,54,perceptual,0.1,0.2,target,target,1,8.623
1,55,perceptual,0.03,0.2,competitor,target,1,4.521
1,56,numeric,0.03,0.2,target,competitor,0,11.988
1,57,numeric,0.1,0.2,target,target,1,10.634
1,58,perceptual,0.03,0.05,target,target,1,4.963
1,59,perceptual,0.1,0.05,competitor,target,1,4.35
1,60,perceptual,0.03,0.05,competitor,target,1,4.157
1,61,numeric,0.03,0.05,target,target,1,6.948
1,62,perceptual,0.03,0.2,competitor,competitor,0,6.665
1,63,numeric,0.1,0.2,competitor,target,1,7.433
1,64,perceptual,0.1,0.05,target,target,1,8.07
1,65,perceptual,0.1,0.2,competitor,decoy,0,4.983
1,66,numeric,0.03,0.2,competitor,competitor,0,11.936
1,67,perceptual,0.1,0.2,target,target,1,6.464
1,68,numeric,0.03,0.2,target,target,1,8.081
1,69,perceptual,0.1,0.05,competitor,competitor,0,7.899
1,70,numeric,0.03,0.05,competitor,target,1,4.478
1,71,numeric,0.03,0.05,target,target,1,7.659
1,72,numeric,0.03,0.05,target,target,1,6.262
1,73,numeric,0.03,0.2,competitor,target,1,7.533
1,74,numeric,0.03,0.2,target,target,1,10.182
1,75,numeric,0.03,0.05,competitor,target,1,7.416
1,76,perceptual,0.03,0.2,target,competitor,0,4.729
1,77,perceptual,0.03,0.2,target,target,1,7.299
1,78,numeric,0.1,0.05,target,target,1,6.086
1,79,numeric,0.03,0.05,target,target,1,4.446
1,80,numeric,0.03,0.2,competitor,target,1,8.635
1,81,numeric,0.1,0.2,competitor,target,1,4.99
1,82,perceptual,0.03,0.05,target,competitor,0,4.285
1,83,perceptual,0.1,0.05,competitor,target,1,3.252
1,84,numeric,0.1,0.2,competitor,target,1,4.63
1,85,perceptual,0.1,0.2,competitor,competitor,0,5.517
1,86,perceptual,0.1,0.2,target,target,1,4.715
1,87,numeric,0.03,0.05,competitor,competitor,0,12.793
1,88,numeric,0.03,0.05,target,target,1,6.181
1,89,numeric,0.03,0.05,target,target,1,7.426
1,90,perceptual,0.1,0.05,target,competitor,0,3.396
1,91,perceptual,0.03,0.2,target,competitor,0,4.544
1,92,perceptual,0.1,0.05,competitor,decoy,0,6.513
1,93,numeric,0.03,0.2,competitor,competitor,0,8.706
1,94,numeric,0.03,0.05,competitor,target,1,11.79
1,95,perceptual,0.03,0.05,competitor,decoy,0,8.171
1,96,perceptual,0.1,0.05,competitor,target,1,3.913
1,97,numeric,0.1,0.05,competitor,competitor,0,7.508
1,98,numeric,0.03,0.2,target,target,1,5.624
1,99,perceptual,0.03,0.05,competitor,target,1,3.448
1,100,perceptual,0.03,0.05,target,competitor,0,5.315
1,101,perceptual,0.1,0.05,target,competitor,0,6.248
1,102,numeric,0.1,0.05,target,decoy,0,6.479
1,103,numeric,0.1,0.05,competitor,target,1,10.251
1,104,perceptual,0.03,0.05,target,competitor,0,7.696
1,105,numeric,0.1,0.05,competitor,competitor,0,5.28
1,106,perceptual,0.1,0.2,target,decoy,0,9.776
1,107,numeric,0.1,0.2,target,competitor,0,5.23
1,108,numeric,0.1,0.2,competitor,competitor,0,6.649
1,109,perceptual,0.1,0.2,target,target,1,5.451
1,110,perceptual,0.03,0.05,target,decoy,0,8.831
1,111,perceptual,0.1,0.2,competitor,target,1,4.776
1,112,numeric,0.03,0.05,competitor,target,1,9.389
1,113,numeric,0.1,0.2,target,target,1,8.754
1,114,perceptual,0.1,0.05,target,decoy,0,5.292
1,115,numeric,0.1,0.05,target,target,1,11.245
1,116,numeric,0.1,0.05,competitor,target,1,9.604
1,117,perceptual,0.03,0.2,target,target,1,8.751
1,118,numeric,0.1,0.2,competitor,target,1,5.122
1,119,numeric,0.1,0.2,target,target,1,6.815
1,120,perceptual,0.03,0.2,competitor,target,1,3.207
1,121,numeric,0.1,0.05,target,competitor,0,11.088
1,122,numeric,0.03,0.2,competitor,competitor,0,6.301
1,123,perceptual,0.1,0.05,competitor,competitor,0,7.931
1,124,numeric,0.03,0.05,competitor,competitor,0,11.35
1,125,perceptual,0.03,0.2,competitor,competitor,0,5.532
1,126,perceptual,0.1,0.05,competitor,target,1,5.652
1,127,perceptual,0.1,0.05,competitor,target,1,4.065
1,128,numeric,0.1,0.05,target,target,1,9.628
1,129,perceptual,0.1,0.2,competitor,target,1,4.8
1,130,numeric,0.03,0.2,target,target,1,8.239
1,131,numeric,0.03,0.05,competitor,competitor,0,8.368
1,132,perceptual,0.03,0.2,target,target,1,7.712
1,133,numeric,0.1,0.05,target,target,1,8.348
1,134,numeric,0.1,0.05,competitor,target,1,7.42
1,135,numeric,0.03,0.2,target,target,1,10.519
1,136,perceptual,0.03,0.2,target,target,1,6.255
1,137,numeric,0.03,0.05,competitor,target,1,10.414
1,138,numeric,0.1,0.2,target,target,1,6.819
1,139,numeric,0.03,0.2,target,target,1,9.514
1,140,numeric,0.03,0.2,competitor,competitor,0,11.484
1,141,perceptual,0.03,0.05,target,target,1,6.549
1,142,perceptual,0.03,0.05,target,competitor,0,7.363
1,143,perceptual,0.03,0.2,competitor,target,1,6.547
1,144,numeric,0.1,0.2,target,target,1,9.585
1,145,numeric,0.1,0.05,target,target,1,10.161
1,146,perceptual,0.1,0.2,target,target,1,6.15
1,147,numeric,0.1,0.2,competitor,target,1,12.118
1,148,numeric,0.03,0.2,competitor,competitor,0,9.255
1,149,perceptual,0.1,0.05,competitor,target,1,6.349
1,150,perceptual,0.03,0.2,competitor,competitor,0,4.837
1,151,numeric,0.1,0.05,target,target,1,6.866
1,152,numeric,0.1,0.2,target,target,1,11.022
1,153,numeric,0.1,0.05,competitor,target,1,8.899
1,154,perceptual,0.03,0.05,competitor,decoy,0,9.512
1,155,numeric,0.1,0.05,competitor,target,1,8.826
1,156,perceptual,0.1,0.2,target,target,1,6.14
1,157,perceptual,0.1,0.05,target,target,1,7.357
1,158,perceptual,0.1,0.05,competitor,decoy,0,0.232
1,159,numeric,0.03,0.2,competitor,target,1,9.948
1,160,numeric,0.1,0.2,competitor,target,1,6.862
1,161,numeric,0.1,0.05,competitor,target,1,6.91
1,162,perceptual,0.1,0.2,target,target,1,4.952
1,163,perceptual,0.03,0.2,target,competitor,0,6.796
1,164,numeric,0.1,0.2,target,target,1,10.383
1,165,numeric,0.1,0.2,competitor,target,1,10.703
1,166,numeric,0.1,0.2,target,target,1,7.563
1,167,perceptual,0.1,0.2,target,target,1,8.181
1,168,perceptual,0.1,0.2,target,competitor,0,8.459
1,169,perceptual,0.03,0.2,competitor,target,1,7.649
1,170,numeric,0.1,0.05,target,target,1,12.398
1,171,numeric,0.03,0.2,competitor,competitor,0,8.151
1,172,numeric,0.1,0.2,target,target,1,8.612
1,173,perceptual,0.03,0.05,competitor,competitor,0,9.398
1,174,perceptual,0.1,0.05,target,target,1,7.171
1,175,numeric,0.03,0.05,target,target,1,12.554
1,176,perceptual,0.1,0.05,target,target,1,6.5
1,177,numeric,0.03,0.2,competitor,target,1,12.371
1,178,numeric,0.03,0.05,target,target,1,9.728
1,179,numeric,0.03,0.05,competitor,target,1,6.863
1,180,numeric,0.1,0.2,competitor,target,1,6.85
1,181,perceptual,0.03,0.2,target,target,1,5.256
1,182,perceptual,0.1,0.2,competitor,competitor,0,5.048
1,183,numeric,0.1,0.05,competitor,target,1,7.427
1,184,numeric,0.1,0.2,competitor,target,1,10.163
1,185,numeric,0.03,0.05,competitor,competitor,0,8.564
1,186,perceptual,0.03,0.05,competitor,target,1,7.2
1,187,perceptual,0.03,0.2,competitor,target,1,8.615
1,188,perceptual,0.03,0.05,target,decoy,0,4.405
1,189,perceptual,0.03,0.05,competitor,competitor,0,5.804
1,190,numeric,0.1,0.05,competitor,target,1,9.588
1,191,perceptual,0.03,0.05,competitor,target,1,8.256
1,192,numeric,0.1,0.2,target,target,1,6.554
2,1,perceptual,0.1,0.2,competitor,competitor,0,6.533
2,2,perceptual,0.03,0.05,target,target,1,10.012
2,3,numeric,0.1,0.05,competitor,target,1,11.111
2,4,perceptual,0.03,0.2,competitor,competitor,0,9.708
2,5,perceptual,0.03,0.2,target,competitor,0,8.178
2,6,perceptual,0.1,0.2,competitor,decoy,0,6.139
2,7,numeric,0.1,0.2,target,target,1,10.563
2,8,numeric,0.1,0.2,competitor,decoy,0,8.777
2,9,perceptual,0.1,0.2,competitor,competitor,0,4.591
2,10,numeric,0.03,0.05,target,target,1,11.706
2,11,perceptual,0.03,0.2,competitor,target,1,8.154
2,12,perceptual,0.1,0.05,competitor,target,1,3.395
2,13,numeric,0.03,0.2,target,target,1,6.6
2,14,numeric,0.1,0.05,target,target,1,5.635
2,15,perceptual,0.03,0.05,target,decoy,0,4.554
2,16,perceptual,0.03,0.05,target,decoy,0,4.692
2,17,perceptual,0.1,0.2,target,competitor,0,3.596
2,18,perceptual,0.03,0.05,competitor,target,1,4.476
2,19,numeric,0.03,0.2,competitor,competitor,0,8.175
2,20,perceptual,0.03,0.2,target,target,1,6.134
2,21,perceptual,0.03,0.2,competitor,competitor,0,5.263
2,22,perceptual,0.1,0.05,competitor,target,1,4.076
2,23,perceptual,0.1,0.05,target,target,1,9.305
2,24,numeric,0.03,0.05,target,competitor,0,6.243
2,25,perceptual,0.03,0.05,competitor,competitor,0,3.519
2,26,perceptual,0.1,0.2,target,target,1,7.76
2,27,perceptual,0.1,0.05,target,decoy,0,4.851
2,28,numeric,0.03,0.2,target,competitor,0,9.219
2,29,perceptual,0.03,0.2,target,decoy,0,4.446
2,30,perceptual,0.03,0.2,target,decoy,0,5.705
2,31,numeric,0.1,0.05,target,target,1,9.793
2,32,numeric,0.1,0.05,competitor,competitor,0,3.558
2,33,perceptual,0.1,0.2,target,target,1,4.751
2,34,perceptual,0.03,0.2,competitor,target,1,3.138
2,35,numeric,0.1,0.05,competitor,target,1,12.016
2,36,perceptual,0.1,0.05,competitor,target,1,2.992
2,37,perceptual,0.1,0.2,target,decoy,0,3.959
2,38,numeric,0.03,0.05,competitor,target,1,6.992
2,39,perceptual,0.03,0.05,competitor,target,1,8.766
2,40,perceptual,0.03,0.2,competitor,competitor,0,4.114
2,41,numeric,0.03,0.05,competitor,target,1,12.173
2,42,perceptual,0.1,0.2,target,target,1,3.366
2,43,numeric,0.03,0.2,target,decoy,0,6.447
2,44,numeric,0.1,0.2,competitor,competitor,0,7.012
2,45,perceptual,0.03,0.05,competitor,competitor,0,6.005
2,46,numeric,0.1,0.2,target,competitor,0,4
2,47,perceptual,0.03,0.05,target,competitor,0,3.826
2,48,numeric,0.1,0.05,target,target,1,4.568
2,49,perceptual,0.1,0.05,target,competitor,0,4.312
2,50,numeric,0.1,0.05,competitor,target,1,5.212
2,51,numeric,0.1,0.2,competitor,target,1,6.848
2,52,perceptual,0.1,0.2,target,target,1,5.133
2,53,perceptual,0.1,0.05,competitor,target,1,3.305
2,54,perceptual,0.1,0.05,target,competitor,0,4.367
2,55,perceptual,0.03,0.2,competitor,target,1,2.982
2,56,perceptual,0.1,0.05,target,competitor,0,2.571
2,57,numeric,0.1,0.05,target,competitor,0,4.769
2,58,perceptual,0.1,0.05,competitor,competitor,0,2.122
2,59,numeric,0.03,0.2,target,decoy,0,3.342
2,60,numeric,0.03,0.2,competitor,target,1,3.562
2,61,numeric,0.03,0.05,competitor,competitor,0,8.768
2,62,numeric,0.1,0.05,target,decoy,0,6.04
2,63,numeric,0.1,0.05,target,target,1,9.331
2,64,perceptual,0.1,0.2,target,target,1,7.003
2,65,perceptual,0.1,0.2,competitor,target,1,2.954
2,66,perceptual,0.03,0.05,target,target,1,4.069
2,67,numeric,0.1,0.05,target,target,1,0.03
2,68,perceptual,0.1,0.2,competitor,decoy,0,2.283
2,69,perceptual,0.03,0.05,target,decoy,0,1.52
2,70,numeric,0.03,0.05,target,decoy,0,3.597
2,71,perceptual,0.03,0.2,target,competitor,0,3.412
2,72,perceptual,0.03,0.2,competitor,competitor,0,4.362
2,73,perceptual,0.1,0.2,target,target,1,2.59
2,74,perceptual,0.1,0.05,competitor,target,1,3.097
2,75,numeric,0.1,0.2,target,target,1,4.599
2,76,perceptual,0.03,0.2,competitor,decoy,0,3.631
2,77,perceptual,0.1,0.05,competitor,competitor,0,4.265
2,78,numeric,0.03,0.05,target,target,1,6.141
2,79,numeric,0.03,0.2,target,target,1,5.222
2,80,numeric,0.03,0.2,target,target,1,9.43
2,81,perceptual,0.1,0.2,target,target,1,2.777
2,82,numeric,0.03,0.2,competitor,target,1,3.349
2,83,perceptual,0.1,0.2,target,decoy,0,4.119
2,84,numeric,0.1,0.2,competitor,target,1,3.998
2,85,numeric,0.03,0.05,target,competitor,0,8.055
2,86,numeric,0.1,0.05,target,competitor,0,8.606
2,87,numeric,0.03,0.2,competitor,target,1,4.207
2,88,numeric,0.1,0.2,competitor,target,1,6.13
2,89,perceptual,0.03,0.05,target,decoy,0,2.442
2,90,perceptual,0.1,0.05,competitor,target,1,2.448
2,91,numeric,0.03,0.05,target,target,1,7.486
2,92,perceptual,0.03,0.2,target,competitor,0,3.779
2,93,numeric,0.03,0.05,competitor,competitor,0,5.29
2,94,perceptual,0.1,0.05,target,competitor,0,2.566
2,95,numeric,0.03,0.2,competitor,competitor,0,4.267
2,96,numeric,0.03,0.05,competitor,competitor,0,8.699
2,97,perceptual,0.03,0.05,competitor,competitor,0,4.335
2,98,perceptual,0.1,0.2,competitor,competitor,0,3.809
2,99,perceptual,0.03,0.2,target,competitor,0,2.12
2,100,numeric,0.1,0.05,competitor,target,1,6.108
2,101,perceptual,0.03,0.2,target,decoy,0,2.261
2,102,perceptual,0.1,0.2,target,target,1,5.561
2,103,perceptual,0.1,0.2,competitor,competitor,0,1.973
2,104,numeric,0.03,0.05,target,competitor,0,4.876
2,105,perceptual,0.03,0.05,competitor,competitor,0,2.042
2,106,numeric,0.03,0.05,competitor,target,1,5.65
2,107,numeric,0.1,0.2,target,target,1,6.506
2,108,perceptual,0.1,0.2,target,decoy,0,3.05
2,109,numeric,0.03,0.2,competitor,competitor,0,4.668
2,110,numeric,0.03,0.05,target,decoy,0,4.317
2,111,numeric,0.1,0.2,competitor,target,1,3.617
2,112,numeric,0.1,0.2,target,target,1,6.336
2,113,numeric,0.1,0.2,target,target,1,6.613
2,114,perceptual,0.03,0.05,competitor,target,1,5.945
2,115,numeric,0.1,0.2,competitor,target,1,7.838
2,116,numeric,0.03,0.05,target,target,1,8.367
2,117,numeric,0.1,0.05,competitor,target,1,5.933
2,118,perceptual,0.03,0.05,target,target,1,2.407
2,119,perceptual,0.1,0.2,competitor,target,1,3.36
2,120,perceptual,0.03,0.05,target,competitor,0,3.431
2,121,numeric,0.1,0.2,competitor,target,1,8.632
2,122,numeric,0.03,0.05,target,target,1,2.247
2,123,numeric,0.03,0.05,target,competitor,0,3.828
2,124,numeric,0.03,0.05,competitor,target,1,4.85
2,125,perceptual,0.1,0.2,competitor,target,1,2.776
2,126,perceptual,0.1,0.05,target,competitor,0,3.88
2,127,numeric,0.1,0.2,competitor,competitor,0,4.952
2,128,numeric,0.03,0.2,target,target,1,4.299
2,129,numeric,0.1,0.05,competitor,target,1,4.581
2,130,perceptual,0.03,0.05,target,competitor,0,3.558
2,131,numeric,0.1,0.2,target,competitor,0,9.442
2,132,numeric,0.1,0.05,competitor,competitor,0,10.125
2,133,perceptual,0.03,0.05,competitor,competitor,0,7.241
2,134,numeric,0.03,0.05,competitor,competitor,0,1.813
2,135,numeric,0.03,0.2,target,decoy,0,6.718
2,136,perceptual,0.03,0.05,target,decoy,0,2.428
2,137,numeric,0.1,0.05,competitor,target,1,4.174
2,138,numeric,0.1,0.2,target,competitor,0,9.114
2,139,numeric,0.1,0.05,competitor,target,1,4.655
2,140,numeric,0.03,0.05,competitor,competitor,0,11.024
2,141,numeric,0.03,0.05,competitor,target,1,4.723
2,142,numeric,0.03,0.2,target,target,1,6.547
2,143,numeric,0.03,0.2,target,target,1,6.038
2,144,numeric,0.03,0.2,competitor,target,1,7.213
2,145,perceptual,0.03,0.2,target,competitor,0,8.995
2,146,numeric,0.1,0.05,target,competitor,0,5.155
2,147,numeric,0.03,0.2,target,target,1,5.057
2,148,perceptual,0.03,0.2,competitor,decoy,0,2.812
2,149,perceptual,0.1,0.2,competitor,decoy,0,1.947
2,150,perceptual,0.1,0.05,target,target,1,2.11
2,151,numeric,0.03,0.2,target,competitor,0,6.744
2,152,numeric,0.1,0.05,target,target,1,6.736
2,153,numeric,0.1,0.2,competitor,target,1,4.26
2,154,perceptual,0.1,0.05,competitor,target,1,2.257
2,155,perceptual,0.1,0.05,target,competitor,0,5.426
2,156,numeric,0.1,0.2,competitor,competitor,0,6.834
2,157,perceptual,0.1,0.05,competitor,decoy,0,2.804
2,158,perceptual,0.1,0.2,competitor,target,1,3.203
2,159,perceptual,0.03,0.2,competitor,target,1,2.113
2,160,perceptual,0.03,0.2,target,decoy,0,2.74
2,161,numeric,0.03,0.05,target,decoy,0,5.447
2,162,perceptual,0.1,0.05,target,target,1,2.684
2,163,perceptual,0.03,0.05,competitor,competitor,0,3.756
2,164,numeric,0.1,0.2,target,target,1,11.213
2,165,numeric,0.03,0.2,competitor,competitor,0,9.176
2,166,perceptual,0.03,0.05,target,competitor,0,3.635
2,167,numeric,0.1,0.05,competitor,target,1,5.119
2,168,numeric,0.03,0.05,competitor,target,1,5.231
2,169,perceptual,0.1,0.05,competitor,target,1,0.37
2,170,numeric,0.1,0.05,target,target,1,4.085
2,171,numeric,0.03,0.2,competitor,target,1,5.217
2,172,perceptual,0.1,0.05,target,target,1,2.549
2,173,perceptual,0.03,0.2,target,target,1,2.015
2,174,perceptual,0.03,0.2,competitor,decoy,0,2.369
2,175,numeric,0.03,0.2,competitor,target,1,4.419
2,176,perceptual,0.03,0.2,competitor,competitor,0,5.842
2,177,numeric,0.1,0.05,target,target,1,6.974
2,178,numeric,0.1,0.2,target,target,1,5.738
2,179,perceptual,0.03,0.2,target,competitor,0,3.936
2,180,numeric,0.03,0.2,competitor,target,1,6.169
2,181,perceptual,0.1,0.2,competitor,decoy,0,2.876
2,182,perceptual,0.03,0.05,competitor,competitor,0,6.935
2,183,perceptual,0.1,0.05,competitor,competitor,0,3.241
2,184,numeric,0.1,0.2,target,target,1,3.75
2,185,numeric,0.1,0.2,competitor,target,1,5.642
2,186,perceptual,0.1,0.05,target,competitor,0,4.25
2,187,perceptual,0.03,0.05,competitor,competitor,0,2.533
2,188,numeric,0.03,0.2,competitor,target,1,4.244
2,189,numeric,0.1,0.05,competitor,competitor,0,4.283
2,190,numeric,0.1,0.2,target,target,1,4.908
2,191,numeric,0.03,0.05,competitor,competitor,0,4.284
2,192,perceptual,0.03,0.05,competitor,target,1,3.835
3,2,perceptual,0.03,0.05,competitor,competitor,0,15.764
3,3,perceptual,0.03,0.05,target,target,1,8.361
3,4,numeric,0.1,0.2,target,target,1,11.066
3,5,numeric,0.1,0.05,target,decoy,0,5.632
3,6,numeric,0.03,0.2,target,target,1,7.798
3,7,numeric,0.1,0.05,competitor,target,1,6.488
3,8,numeric,0.03,0.05,competitor,competitor,0,5.943
3,9,perceptual,0.1,0.2,target,target,1,8.549
3,10,numeric,0.03,0.05,competitor,target,1,9.127
3,11,perceptual,0.03,0.05,target,competitor,0,7.252
3,12,perceptual,0.1,0.05,competitor,target,1,6.343
3,13,perceptual,0.1,0.05,competitor,target,1,3.749
3,14,numeric,0.03,0.2,competitor,competitor,0,10.632
3,15,perceptual,0.1,0.2,competitor,target,1,7.327
3,16,numeric,0.1,0.05,competitor,competitor,0,7.467
3,17,perceptual,0.03,0.05,competitor,target,1,6.121
3,18,perceptual,0.1,0.05,competitor,target,1,5.169
3,19,numeric,0.1,0.2,competitor,target,1,4.417
3,20,perceptual,0.03,0.2,competitor,target,1,4.433
3,21,perceptual,0.1,0.2,target,target,1,5.563
3,22,numeric,0.1,0.2,target,target,1,6.29
3,23,numeric,0.1,0.05,target,decoy,0,8.501
3,24,perceptual,0.1,0.05,target,target,1,5.138
3,25,numeric,0.1,0.05,target,target,1,9.445
3,26,numeric,0.1,0.05,competitor,target,1,8.812
3,27,perceptual,0.03,0.2,competitor,target,1,8.039
3,28,perceptual,0.1,0.2,target,competitor,0,3.757
3,29,perceptual,0.1,0.05,target,decoy,0,5.044
3,30,perceptual,0.1,0.05,target,target,1,5.138
3,31,numeric,0.1,0.2,target,competitor,0,5.177
3,32,perceptual,0.03,0.05,target,target,1,6.63
3,33,numeric,0.03,0.2,competitor,decoy,0,7.789
3,34,perceptual,0.03,0.2,competitor,target,1,6.953
3,35,numeric,0.03,0.2,competitor,target,1,4.259
3,36,numeric,0.03,0.05,competitor,competitor,0,3.593
3,37,perceptual,0.1,0.05,competitor,target,1,8.65
3,38,numeric,0.1,0.05,competitor,target,1,9.266
3,39,perceptual,0.03,0.05,competitor,target,1,5.043
3,40,perceptual,0.03,0.2,target,competitor,0,4.276
3,41,numeric,0.1,0.2,target,target,1,9.797
3,42,perceptual,0.1,0.2,target,target,1,4.394
3,43,numeric,0.1,0.2,target,competitor,0,4.761
3,44,numeric,0.1,0.05,competitor,competitor,0,8.516
3,45,perceptual,0.1,0.05,target,decoy,0,11.043
3,46,perceptual,0.03,0.2,target,target,1,9.65
3,47,perceptual,0.03,0.2,competitor,target,1,4.612
3,48,perceptual,0.1,0.05,competitor,target,1,4.183
3,49,perceptual,0.1,0.2,competitor,target,1,3.304
3,50,numeric,0.03,0.2,target,target,1,3.367
3,51,perceptual,0.03,0.05,competitor,target,1,3.154
3,52,numeric,0.03,0.2,target,target,1,5.537
3,53,numeric,0.03,0.05,target,target,1,14.103
3,54,numeric,0.1,0.2,target,target,1,8.232
3,55,perceptual,0.03,0.05,competitor,target,1,11.482
3,56,numeric,0.03,0.2,target,competitor,0,6.9
3,57,numeric,0.03,0.2,competitor,competitor,0,3.751
3,58,numeric,0.1,0.2,target,competitor,0,3.579
3,59,numeric,0.03,0.05,target,target,1,7.049
3,60,numeric,0.1,0.2,competitor,target,1,10.684
3,61,numeric,0.1,0.2,target,competitor,0,7.065
3,62,perceptual,0.03,0.05,target,target,1,3.539
3,63,numeric,0.1,0.2,competitor,target,1,8.331
3,64,numeric,0.03,0.05,target,target,1,6.063
3,65,numeric,0.03,0.05,target,target,1,6.376
3,66,perceptual,0.1,0.2,target,target,1,4.293
3,67,perceptual,0.03,0.05,target,target,1,4.893
3,68,numeric,0.1,0.05,target,target,1,3.202
3,69,perceptual,0.1,0.2,target,target,1,2.771
3,70,perceptual,0.1,0.2,target,target,1,4.038
3,71,perceptual,0.1,0.2,competitor,target,1,2.664
3,72,numeric,0.03,0.05,competitor,decoy,0,3.025
3,73,perceptual,0.1,0.2,competitor,competitor,0,3.438
3,74,numeric,0.1,0.05,competitor,target,1,3.699
3,75,perceptual,0.1,0.05,competitor,competitor,0,3.098
3,76,numeric,0.03,0.2,competitor,target,1,3.351
3,77,numeric,0.1,0.05,target,target,1,5.253
3,78,numeric,0.1,0.05,competitor,target,1,6.557
3,79,numeric,0.1,0.2,competitor,target,1,5.493
3,80,numeric,0.03,0.2,competitor,target,1,8.4
3,81,numeric,0.03,0.05,competitor,decoy,0,4.52
3,82,numeric,0.03,0.05,competitor,target,1,7.149
3,83,numeric,0.03,0.05,competitor,target,1,4.961
3,84,perceptual,0.03,0.05,competitor,competitor,0,6.249
3,85,perceptual,0.1,0.2,competitor,target,1,2.367
3,86,numeric,0.03,0.05,target,target,1,7.928
3,87,numeric,0.03,0.2,competitor,decoy,0,9.694
3,88,perceptual,0.1,0.2,competitor,target,1,4.332
3,89,numeric,0.03,0.05,target,decoy,0,1.804
3,90,perceptual,0.03,0.05,competitor,decoy,0,6.264
3,91,perceptual,0.03,0.2,target,competitor,0,3.76
3,92,perceptual,0.1,0.05,target,target,1,3.048
3,93,perceptual,0.1,0.05,competitor,target,1,2.574
3,94,perceptual,0.03,0.05,target,target,1,3.943
3,95,numeric,0.03,0.2,target,competitor,0,3.67
3,96,numeric,0.03,0.2,target,target,1,3.998
3,97,perceptual,0.03,0.05,target,target,1,2.467
3,98,numeric,0.03,0.2,target,competitor,0,3.22
3,99,numeric,0.1,0.05,competitor,target,1,3.434
3,100,perceptual,0.03,0.05,target,target,1,3.202
3,101,perceptual,0.03,0.05,competitor,decoy,0,3.093
3,102,numeric,0.03,0.2,competitor,competitor,0,3.208
3,103,perceptual,0.03,0.05,target,competitor,0,4.93
3,104,numeric,0.03,0.2,competitor,competitor,0,2.64
3,105,numeric,0.1,0.05,competitor,competitor,0,3.92
3,106,perceptual,0.1,0.05,competitor,target,1,2.819
3,107,numeric,0.03,0.05,target,target,1,3.312
3,108,numeric,0.1,0.2,competitor,target,1,4.71
3,109,perceptual,0.03,0.2,competitor,target,1,4.536
3,110,perceptual,0.1,0.2,target,target,1,5.233
3,111,numeric,0.1,0.05,competitor,target,1,3.632
3,112,numeric,0.03,0.05,competitor,target,1,4.561
3,113,perceptual,0.03,0.2,competitor,competitor,0,2.287
3,114,perceptual,0.1,0.05,target,target,1,6.76
3,115,numeric,0.03,0.2,target,competitor,0,4.879
3,116,perceptual,0.1,0.05,target,target,1,4.938
3,117,numeric,0.1,0.05,competitor,target,1,4.749
3,118,numeric,0.03,0.05,target,decoy,0,5.014
3,119,perceptual,0.1,0.2,target,target,1,3.639
3,120,perceptual,0.1,0.05,target,target,1,3.074
3,121,numeric,0.03,0.2,target,target,1,9.827
3,122,perceptual,0.03,0.2,target,target,1,7.818
3,123,numeric,0.03,0.05,competitor,competitor,0,4.592
3,124,numeric,0.1,0.05,target,competitor,0,5.32
3,125,perceptual,0.03,0.2,competitor,competitor,0,4.139
3,126,numeric,0.03,0.05,competitor,competitor,0,4.744
3,127,perceptual,0.03,0.2,target,target,1,3.185
3,128,numeric,0.1,0.05,target,target,1,6.777
3,129,perceptual,0.1,0.2,competitor,target,1,2.893
3,130,numeric,0.1,0.2,target,competitor,0,3.012
3,131,perceptual,0.03,0.05,competitor,target,1,3.149
3,132,numeric,0.1,0.2,target,target,1,3.676
3,133,numeric,0.03,0.2,competitor,competitor,0,3.166
3,134,numeric,0.1,0.2,target,target,1,3.453
3,135,perceptual,0.1,0.05,competitor,target,1,2.919
3,136,perceptual,0.1,0.2,competitor,competitor,0,2.812
3,137,numeric,0.1,0.2,competitor,target,1,5.334
3,138,perceptual,0.1,0.2,competitor,target,1,3.92
3,139,numeric,0.03,0.05,competitor,competitor,0,2.584
3,140,perceptual,0.1,0.2,target,competitor,0,4.413
3,141,numeric,0.1,0.2,competitor,target,1,3.311
3,142,perceptual,0.03,0.2,target,target,1,2.716
3,143,perceptual,0.03,0.2,competitor,competitor,0,3.048
3,144,numeric,0.1,0.05,target,target,1,6.638
3,145,perceptual,0.1,0.2,competitor,target,1,3.255
3,146,numeric,0.1,0.05,target,target,1,3.658
3,147,numeric,0.03,0.2,target,competitor,0,6.654
3,148,perceptual,0.1,0.05,competitor,target,1,7.821
3,149,numeric,0.03,0.2,competitor,competitor,0,6.828
3,150,numeric,0.03,0.2,competitor,target,1,6.325
3,151,numeric,0.1,0.05,target,competitor,0,5.711
3,152,numeric,0.03,0.05,competitor,competitor,0,7.572
3,153,perceptual,0.03,0.2,competitor,competitor,0,3.027
3,154,numeric,0.03,0.05,target,competitor,0,4.363
3,155,numeric,0.03,0.05,target,competitor,0,5.431
3,156,perceptual,0.03,0.2,competitor,target,1,3.031
3,157,perceptual,0.1,0.05,target,competitor,0,3.655
3,158,perceptual,0.03,0.2,competitor,target,1,2.11
3,159,numeric,0.03,0.05,target,target,1,3.226
3,160,perceptual,0.03,0.2,competitor,target,1,2.731
3,161,perceptual,0.03,0.2,target,target,1,3.159
3,162,numeric,0.03,0.05,target,target,1,2.6
3,163,perceptual,0.1,0.2,target,decoy,0,3.296
3,164,perceptual,0.03,0.2,target,target,1,2.873
3,165,perceptual,0.03,0.2,target,target,1,2.666
3,166,numeric,0.03,0.2,target,competitor,0,4.037
3,167,perceptual,0.1,0.05,competitor,competitor,0,4.03
3,168,perceptual,0.1,0.2,target,target,1,4.327
3,169,numeric,0.03,0.2,target,competitor,0,3.135
3,170,numeric,0.1,0.05,competitor,competitor,0,3.483
3,171,perceptual,0.03,0.2,target,target,1,3.265
3,172,numeric,0.1,0.2,target,target,1,8.737
3,173,perceptual,0.1,0.05,target,competitor,0,3.284
3,174,numeric,0.1,0.2,competitor,target,1,3.674
3,175,numeric,0.1,0.2,competitor,competitor,0,2.457
3,176,perceptual,0.1,0.05,competitor,target,1,2.611
3,177,numeric,0.1,0.05,target,competitor,0,2.866
3,178,perceptual,0.03,0.05,target,decoy,0,2.933
3,179,perceptual,0.1,0.05,target,target,1,2.45
3,180,perceptual,0.03,0.2,target,target,1,2.623
3,181,perceptual,0.03,0.05,target,competitor,0,3.624
3,182,perceptual,0.03,0.05,competitor,target,1,2.632
3,183,numeric,0.1,0.2,competitor,competitor,0,3.395
3,184,perceptual,0.03,0.05,competitor,target,1,3.508
3,185,perceptual,0.03,0.05,competitor,decoy,0,3.368
3,186,numeric,0.1,0.2,competitor,target,1,6.358
3,187,numeric,0.1,0.05,target,competitor,0,2.983
3,188,perceptual,0.03,0.05,target,competitor,0,3.475
3,189,perceptual,0.1,0.2,competitor,target,1,2.627
3,190,perceptual,0.1,0.05,target,decoy,0,2.299
3,191,perceptual,0.03,0.2,target,competitor,0,3.108
3,192,perceptual,0.1,0.2,competitor,target,1,2.95
4,2,perceptual,0.03,0.05,competitor,target,1,0.585
4,3,perceptual,0.03,0.05,competitor,target,1,9.52
4,4,numeric,0.03,0.2,target,target,1,6.574
4,5,numeric,0.03,0.05,competitor,competitor,0,12.838
4,6,perceptual,0.03,0.05,competitor,competitor,0,14.556
4,7,numeric,0.1,0.2,target,target,1,7.152
4,8,numeric,0.03,0.2,competitor,competitor,0,11.908
4,9,numeric,0.1,0.05,competitor,competitor,0,9.841
4,10,numeric,0.1,0.2,competitor,target,1,8.375
4,11,numeric,0.03,0.05,target,target,1,10.293
4,12,numeric,0.03,0.05,target,target,1,14.624
4,13,numeric,0.1,0.2,competitor,target,1,13.509
4,14,numeric,0.1,0.05,competitor,competitor,0,11.74
4,15,perceptual,0.03,0.2,competitor,target,1,8.683
4,16,perceptual,0.1,0.2,competitor,target,1,6.266
4,17,numeric,0.03,0.05,competitor,target,1,7.348
4,18,numeric,0.03,0.05,target,target,1,8.249
4,20,numeric,0.03,0.2,target,competitor,0,13.886
4,21,numeric,0.1,0.05,target,target,1,7.986
4,23,numeric,0.1,0.05,competitor,competitor,0,5.906
4,24,perceptual,0.1,0.2,target,target,1,9.366
4,25,numeric,0.1,0.05,competitor,target,1,10.625
4,26,perceptual,0.1,0.05,competitor,target,1,6.046
4,27,numeric,0.03,0.2,competitor,competitor,0,12.001
4,28,perceptual,0.03,0.2,competitor,target,1,14.664
4,29,perceptual,0.1,0.2,competitor,target,1,7.881
4,30,perceptual,0.03,0.05,target,competitor,0,12.361
4,31,numeric,0.1,0.05,target,target,1,11.581
4,32,numeric,0.03,0.05,competitor,competitor,0,10.685
4,33,numeric,0.03,0.2,target,target,1,9.381
4,34,perceptual,0.03,0.2,target,target,1,9.531
4,35,perceptual,0.03,0.2,target,competitor,0,7.554
4,36,numeric,0.03,0.2,competitor,competitor,0,6.446
4,37,perceptual,0.1,0.2,competitor,target,1,6.61
4,38,perceptual,0.03,0.2,competitor,target,1,17.233
4,39,perceptual,0.03,0.05,competitor,target,1,6.49
4,40,perceptual,0.03,0.05,target,target,1,7.289
4,41,perceptual,0.03,0.05,competitor,target,1,5.669
4,43,numeric,0.03,0.05,target,target,1,13.647
4,44,perceptual,0.03,0.05,target,target,1,5.952
4,45,perceptual,0.03,0.2,target,target,1,4.74
4,46,perceptual,0.1,0.05,competitor,competitor,0,12.978
4,47,numeric,0.03,0.2,competitor,target,1,15.167
4,48,perceptual,0.03,0.05,competitor,decoy,0,6.236
4,49,numeric,0.1,0.05,competitor,competitor,0,8.098
4,50,perceptual,0.1,0.2,target,target,1,6.447
4,51,perceptual,0.03,0.05,competitor,competitor,0,16.607
4,52,numeric,0.03,0.05,target,competitor,0,10.131
4,53,numeric,0.1,0.05,target,target,1,7.749
4,54,perceptual,0.03,0.2,competitor,target,1,18.372
4,55,numeric,0.03,0.2,competitor,target,1,19.864
4,56,perceptual,0.03,0.05,competitor,competitor,0,10.307
4,57,perceptual,0.1,0.2,target,target,1,8.435
4,59,numeric,0.1,0.05,target,competitor,0,12.995
4,60,numeric,0.1,0.2,competitor,target,1,15.845
4,61,numeric,0.1,0.2,target,competitor,0,8.221
4,62,numeric,0.03,0.05,target,competitor,0,9.662
4,63,perceptual,0.03,0.05,competitor,competitor,0,7.407
4,64,numeric,0.03,0.05,competitor,target,1,19.551
4,65,numeric,0.03,0.2,target,target,1,5.573
4,66,perceptual,0.1,0.2,competitor,target,1,5.023
4,67,numeric,0.1,0.05,target,target,1,7.715
4,68,numeric,0.1,0.2,competitor,target,1,6.77
4,69,numeric,0.1,0.05,target,target,1,8.754
4,70,perceptual,0.1,0.2,target,target,1,4.94
4,72,numeric,0.03,0.05,target,target,1,6.015
4,73,numeric,0.1,0.2,target,competitor,0,18.044
4,74,numeric,0.03,0.05,target,target,1,6.293
4,75,numeric,0.03,0.2,competitor,target,1,5.971
4,76,numeric,0.03,0.05,target,target,1,4.514
4,77,numeric,0.1,0.05,target,target,1,13.722
4,78,perceptual,0.03,0.05,target,target,1,8.741
4,79,perceptual,0.1,0.05,target,decoy,0,5.59
4,80,numeric,0.1,0.05,target,target,1,8.689
4,81,numeric,0.1,0.05,competitor,target,1,8.798
4,82,numeric,0.1,0.05,target,target,1,7.749
4,83,numeric,0.1,0.05,competitor,target,1,16.333
4,84,perceptual,0.1,0.05,competitor,competitor,0,9.353
4,85,perceptual,0.03,0.2,target,competitor,0,6.504
4,86,numeric,0.1,0.05,target,target,1,9.412
4,87,perceptual,0.03,0.2,competitor,target,1,18.011
4,88,perceptual,0.1,0.05,target,target,1,6.86
4,89,numeric,0.03,0.05,target,decoy,0,8.016
4,90,perceptual,0.1,0.2,competitor,competitor,0,8.53
4,91,numeric,0.03,0.2,target,target,1,19.374
4,92,perceptual,0.03,0.05,competitor,target,1,12.745
4,93,numeric,0.1,0.05,competitor,target,1,9.235
4,94,numeric,0.03,0.2,target,target,1,8.083
4,95,perceptual,0.1,0.2,competitor,target,1,4.816
4,96,perceptual,0.1,0.05,target,target,1,3.44
4,97,perceptual,0.1,0.2,competitor,competitor,0,6.293
4,98,perceptual,0.1,0.2,competitor,target,1,5.725
4,99,perceptual,0.1,0.05,target,target,1,4.102
4,101,numeric,0.03,0.2,competitor,decoy,0,10.622
4,102,perceptual,0.1,0.2,target,target,1,11.011
4,103,perceptual,0.1,0.05,competitor,decoy,0,15.222
4,104,numeric,0.1,0.2,competitor,competitor,0,8.272
4,105,perceptual,0.1,0.05,competitor,target,1,5.168
4,106,numeric,0.03,0.2,target,target,1,18.796
4,107,perceptual,0.03,0.05,target,decoy,0,2.444
4,108,numeric,0.1,0.2,competitor,target,1,6.665
4,109,perceptual,0.1,0.05,competitor,target,1,8.442
4,110,numeric,0.1,0.05,target,target,1,9.455
4,111,perceptual,0.03,0.2,competitor,competitor,0,5.707
4,112,numeric,0.1,0.2,competitor,target,1,10.995
4,113,numeric,0.03,0.2,competitor,target,1,7.565
4,114,numeric,0.03,0.2,competitor,target,1,5.46
4,115,numeric,0.1,0.2,competitor,target,1,3.406
4,116,perceptual,0.03,0.2,target,competitor,0,3.684
4,117,numeric,0.1,0.2,target,competitor,0,2.875
4,118,perceptual,0.1,0.05,target,competitor,0,3.09
4,119,numeric,0.1,0.2,target,target,1,3.452
4,120,numeric,0.1,0.2,competitor,competitor,0,3.133
4,121,numeric,0.1,0.2,target,target,1,5.893
4,122,numeric,0.1,0.2,competitor,competitor,0,5.13
4,123,perceptual,0.03,0.2,competitor,target,1,5.169
4,124,perceptual,0.1,0.05,target,target,1,5.207
4,125,perceptual,0.1,0.2,target,target,1,4.929
4,126,perceptual,0.1,0.05,competitor,target,1,5.182
4,127,numeric,0.03,0.2,target,competitor,0,6.305
4,128,perceptual,0.03,0.05,competitor,competitor,0,3.544
4,129,perceptual,0.03,0.05,target,target,1,7.76
4,130,numeric,0.03,0.2,competitor,competitor,0,8.838
4,131,perceptual,0.1,0.05,target,decoy,0,5.497
4,132,numeric,0.1,0.05,competitor,competitor,0,5.999
4,133,numeric,0.1,0.05,target,decoy,0,4.568
4,134,perceptual,0.1,0.05,competitor,target,1,3.05
4,135,perceptual,0.1,0.2,target,target,1,3.962
4,137,numeric,0.03,0.2,target,competitor,0,10.156
4,138,numeric,0.1,0.05,competitor,competitor,0,9.684
4,139,perceptual,0.03,0.05,target,target,1,2.636
4,140,perceptual,0.1,0.05,competitor,target,1,2.677
4,141,numeric,0.1,0.05,competitor,target,1,15.611
4,142,perceptual,0.03,0.2,target,competitor,0,6.142
4,143,perceptual,0.1,0.2,target,target,1,5.443
4,144,numeric,0.03,0.05,competitor,target,1,3.379
4,145,numeric,0.03,0.05,competitor,target,1,3.152
4,146,perceptual,0.1,0.2,target,target,1,5.391
4,147,numeric,0.03,0.2,target,target,1,4.955
4,148,numeric,0.1,0.05,competitor,competitor,0,3.669
4,149,perceptual,0.1,0.05,target,target,1,6.945
4,150,numeric,0.1,0.2,target,target,1,8.357
4,151,perceptual,0.1,0.2,competitor,target,1,8.091
4,152,perceptual,0.03,0.05,competitor,competitor,0,10.807
4,153,numeric,0.1,0.2,target,target,1,8.759
4,154,perceptual,0.03,0.2,target,target,1,5.428
4,155,perceptual,0.1,0.2,competitor,target,1,4.231
4,156,perceptual,0.1,0.2,target,competitor,0,7.611
4,157,perceptual,0.1,0.05,target,competitor,0,2.871
4,158,perceptual,0.03,0.2,competitor,target,1,10.244
4,159,perceptual,0.1,0.2,target,decoy,0,11.393
4,160,perceptual,0.03,0.2,competitor,target,1,9.778
4,161,perceptual,0.03,0.05,target,target,1,13.125
4,162,perceptual,0.1,0.2,target,target,1,9.265
4,163,perceptual,0.1,0.05,competitor,competitor,0,3.963
4,164,numeric,0.1,0.2,competitor,target,1,7.082
4,165,numeric,0.03,0.2,competitor,competitor,0,13.391
4,166,numeric,0.1,0.2,target,target,1,4.72
4,167,perceptual,0.1,0.05,target,decoy,0,6.447
4,168,perceptual,0.03,0.2,target,competitor,0,5.888
4,169,perceptual,0.03,0.2,competitor,target,1,5.193
4,170,perceptual,0.03,0.05,target,target,1,5.025
4,171,numeric,0.03,0.05,competitor,target,1,6.518
4,172,numeric,0.03,0.2,target,competitor,0,3.276
4,173,perceptual,0.03,0.05,target,target,1,6.214
4,174,perceptual,0.1,0.05,target,decoy,0,3.124
4,175,numeric,0.03,0.2,competitor,target,1,8.105
4,176,numeric,0.03,0.05,competitor,target,1,5.351
4,177,perceptual,0.03,0.2,target,target,1,7.15
4,178,perceptual,0.03,0.2,target,competitor,0,14.759
4,179,numeric,0.03,0.05,competitor,competitor,0,18.111
4,180,perceptual,0.03,0.2,target,target,1,8.335
4,181,perceptual,0.03,0.05,target,target,1,6.462
4,182,perceptual,0.1,0.05,target,target,1,5.502
4,183,numeric,0.03,0.2,target,target,1,6.089
4,184,perceptual,0.1,0.2,competitor,target,1,7.201
4,185,numeric,0.1,0.2,target,target,1,9.278
4,186,perceptual,0.03,0.2,target,target,1,5.461
4,187,perceptual,0.03,0.2,competitor,target,1,8.589
4,188,perceptual,0.03,0.2,competitor,competitor,0,5.403
4,189,perceptual,0.1,0.2,competitor,target,1,7.048
4,190,numeric,0.1,0.2,competitor,competitor,0,10.18
4,191,numeric,0.1,0.2,target,target,1,12.9
4,192,perceptual,0.03,0.05,target,target,1,7.72
5,2,perceptual,0.1,0.2,competitor,competitor,0,3.527
5,3,perceptual,0.1,0.05,target,target,1,6.081
5,4,perceptual,0.1,0.05,competitor,target,1,6.123
5,5,perceptual,0.1,0.2,competitor,competitor,0,7.424
5,6,numeric,0.03,0.2,competitor,target,1,8.908
5,7,numeric,0.03,0.2,target,competitor,0,9.772
5,8,numeric,0.03,0.2,competitor,target,1,12.333
5,9,perceptual,0.03,0.2,target,target,1,9.519
5,10,numeric,0.1,0.05,competitor,decoy,0,15.026
5,11,numeric,0.03,0.2,target,competitor,0,11.366
5,12,numeric,0.03,0.05,competitor,target,1,10.923
5,13,perceptual,0.03,0.05,competitor,decoy,0,11.749
5,14,perceptual,0.03,0.05,competitor,target,1,9.463
5,15,numeric,0.03,0.05,competitor,competitor,0,7.306
5,16,numeric,0.03,0.2,target,decoy,0,6.713
5,17,numeric,0.03,0.05,target,target,1,12.056
5,18,numeric,0.1,0.05,competitor,competitor,0,6.264
5,19,numeric,0.1,0.05,target,target,1,11.517
5,20,numeric,0.03,0.05,competitor,target,1,6.229
5,21,perceptual,0.1,0.05,competitor,decoy,0,10.695
5,22,perceptual,0.03,0.05,competitor,decoy,0,8.201
5,23,perceptual,0.1,0.05,target,target,1,7.135
5,24,perceptual,0.1,0.2,target,target,1,6.5
5,25,numeric,0.03,0.2,competitor,competitor,0,12.633
5,26,perceptual,0.03,0.2,competitor,target,1,7.876
5,28,perceptual,0.1,0.05,target,target,1,5.973
5,29,perceptual,0.1,0.2,competitor,target,1,7.253
5,30,perceptual,0.03,0.2,competitor,decoy,0,6.177
5,31,numeric,0.03,0.05,target,target,1,10.519
5,32,perceptual,0.1,0.2,competitor,competitor,0,8.05
5,33,numeric,0.03,0.2,competitor,competitor,0,14.486
5,34,perceptual,0.1,0.05,competitor,competitor,0,5.537
5,35,perceptual,0.03,0.2,target,target,1,4.732
5,36,perceptual,0.03,0.2,target,target,1,4.775
5,37,numeric,0.1,0.2,competitor,target,1,9.104
5,38,perceptual,0.1,0.05,target,target,1,6.792
5,39,numeric,0.03,0.05,target,target,1,6.724
5,40,perceptual,0.1,0.2,target,target,1,4.743
5,41,numeric,0.03,0.2,competitor,competitor,0,9.375
5,42,perceptual,0.03,0.05,target,target,1,5.284
5,43,numeric,0.1,0.05,competitor,competitor,0,6.196
5,44,perceptual,0.1,0.2,competitor,competitor,0,5.471
5,45,perceptual,0.03,0.2,competitor,competitor,0,6.979
5,46,perceptual,0.03,0.05,target,target,1,5.353
5,47,perceptual,0.1,0.2,target,target,1,7.114
5,48,numeric,0.1,0.2,target,target,1,7.359
5,49,perceptual,0.1,0.2,target,target,1,5.708
5,50,numeric,0.1,0.05,target,target,1,5.975
5,51,perceptual,0.1,0.2,target,target,1,6.349
5,52,numeric,0.1,0.05,competitor,target,1,7.432
5,53,numeric,0.03,0.05,target,target,1,7.311
5,54,perceptual,0.03,0.05,competitor,target,1,5.809
5,55,numeric,0.1,0.05,target,target,1,5.095
5,56,numeric,0.1,0.2,competitor,target,1,10.741
5,57,numeric,0.1,0.05,competitor,target,1,6.535
5,58,perceptual,0.03,0.05,target,competitor,0,6.21
5,59,perceptual,0.1,0.2,target,target,1,6.474
5,60,numeric,0.03,0.05,competitor,target,1,10.861
5,61,perceptual,0.03,0.05,target,decoy,0,5.162
5,62,perceptual,0.03,0.2,target,target,1,3.888
5,63,numeric,0.1,0.2,target,target,1,7.835
5,64,perceptual,0.03,0.05,competitor,decoy,0,8.86
5,65,perceptual,0.03,0.05,competitor,competitor,0,8.824
5,66,numeric,0.1,0.2,target,target,1,7.289
5,67,numeric,0.1,0.2,target,target,1,4.884
5,68,perceptual,0.03,0.05,competitor,target,1,4.158
5,69,numeric,0.1,0.05,target,target,1,9.019
5,70,perceptual,0.03,0.2,competitor,target,1,7.114
5,71,numeric,0.1,0.05,target,target,1,6.121
5,72,numeric,0.03,0.05,target,target,1,9.945
5,73,numeric,0.1,0.05,competitor,competitor,0,6.949
5,74,perceptual,0.1,0.05,target,target,1,9.871
5,75,perceptual,0.1,0.05,target,target,1,5.845
5,76,numeric,0.1,0.2,competitor,target,1,9.705
5,77,perceptual,0.03,0.2,target,target,1,4.264
5,78,numeric,0.1,0.05,target,target,1,5.82
5,79,perceptual,0.03,0.05,competitor,competitor,0,5.927
5,80,numeric,0.03,0.2,competitor,competitor,0,7.492
5,81,perceptual,0.1,0.05,competitor,target,1,5.134
5,82,perceptual,0.03,0.2,target,target,1,6.412
5,83,perceptual,0.03,0.05,target,decoy,0,4.215
5,84,numeric,0.03,0.05,competitor,competitor,0,7.74
5,85,perceptual,0.03,0.05,target,target,1,5.436
5,86,numeric,0.1,0.05,target,target,1,6.481
5,87,numeric,0.03,0.05,target,target,1,7.579
5,88,numeric,0.03,0.2,target,competitor,0,6.342
5,89,numeric,0.03,0.05,competitor,competitor,0,9.302
5,90,perceptual,0.1,0.2,competitor,competitor,0,5.377
5,91,numeric,0.03,0.2,competitor,competitor,0,9.545
5,92,numeric,0.1,0.2,target,target,1,8.735
5,93,perceptual,0.1,0.2,target,target,1,4.009
5,94,numeric,0.1,0.2,competitor,target,1,9.537
5,95,numeric,0.1,0.05,competitor,target,1,7.7
5,96,perceptual,0.1,0.05,competitor,target,1,5.039
5,97,perceptual,0.1,0.05,competitor,target,1,4.826
5,98,numeric,0.1,0.2,target,competitor,0,6.354
5,99,perceptual,0.03,0.2,competitor,competitor,0,4.7
5,100,numeric,0.1,0.05,competitor,competitor,0,8.252
5,101,perceptual,0.1,0.05,competitor,target,1,5.284
5,102,perceptual,0.1,0.05,competitor,target,1,4.155
5,103,perceptual,0.1,0.05,competitor,target,1,5.228
5,104,numeric,0.1,0.05,target,target,1,5.579
5,105,numeric,0.1,0.2,competitor,competitor,0,6.588
5,106,numeric,0.1,0.05,competitor,target,1,4.645
5,107,numeric,0.1,0.2,target,target,1,5.569
5,108,perceptual,0.03,0.05,competitor,competitor,0,4.308
5,109,perceptual,0.03,0.05,competitor,competitor,0,8.851
5,110,perceptual,0.1,0.05,target,decoy,0,6.77
5,111,perceptual,0.1,0.2,competitor,target,1,4.559
5,112,perceptual,0.1,0.05,target,target,1,4.601
5,113,perceptual,0.1,0.2,target,target,1,5.289
5,114,perceptual,0.1,0.05,target,competitor,0,6.271
5,115,perceptual,0.03,0.05,target,target,1,8.301
5,116,numeric,0.1,0.05,target,decoy,0,7.006
5,117,perceptual,0.1,0.05,target,target,1,4.456
5,118,perceptual,0.1,0.2,target,target,1,5.797
5,119,numeric,0.03,0.05,competitor,target,1,6.529
5,120,perceptual,0.03,0.2,competitor,competitor,0,4.974
5,121,perceptual,0.03,0.2,competitor,competitor,0,4.395
5,122,numeric,0.1,0.05,competitor,competitor,0,5.519
5,123,perceptual,0.03,0.2,target,target,1,4.083
5,124,numeric,0.03,0.2,target,target,1,7.855
5,125,numeric,0.03,0.2,target,target,1,6.311
5,126,numeric,0.03,0.05,target,target,1,7.052
5,127,perceptual,0.1,0.05,competitor,target,1,5.103
5,128,numeric,0.03,0.2,target,target,1,8.206
5,129,numeric,0.03,0.05,competitor,target,1,10.985
5,130,perceptual,0.1,0.2,target,decoy,0,4.848
5,131,perceptual,0.1,0.05,competitor,target,1,6.78
5,132,perceptual,0.03,0.2,target,target,1,4.306
5,133,perceptual,0.03,0.05,target,target,1,6.419
5,134,perceptual,0.03,0.05,competitor,competitor,0,5.925
5,135,perceptual,0.1,0.2,competitor,target,1,7.598
5,136,perceptual,0.1,0.2,target,target,1,3.684
5,137,numeric,0.03,0.2,competitor,target,1,9.75
5,138,perceptual,0.03,0.2,competitor,competitor,0,5.231
5,139,numeric,0.1,0.2,competitor,target,1,10.021
5,140,perceptual,0.03,0.2,competitor,target,1,5.275
5,141,numeric,0.1,0.2,target,target,1,9.378
5,142,numeric,0.03,0.2,competitor,competitor,0,5.743
5,143,numeric,0.03,0.05,target,target,1,7.598
5,144,numeric,0.03,0.05,target,target,1,8.744
5,145,perceptual,0.03,0.05,target,competitor,0,3.343
5,146,numeric,0.1,0.2,competitor,competitor,0,7.444
5,147,numeric,0.1,0.2,competitor,target,1,5.341
5,148,perceptual,0.03,0.2,competitor,decoy,0,18.523
5,149,numeric,0.03,0.2,competitor,target,1,9.286
5,150,numeric,0.1,0.05,competitor,target,1,6.305
5,151,numeric,0.03,0.2,competitor,target,1,6.559
5,152,perceptual,0.03,0.2,competitor,competitor,0,5.701
5,153,perceptual,0.03,0.05,competitor,target,1,9.715
5,154,numeric,0.03,0.05,target,target,1,5.209
5,155,numeric,0.03,0.05,competitor,competitor,0,6.873
5,156,perceptual,0.03,0.2,target,target,1,7.851
5,157,numeric,0.03,0.05,competitor,target,1,12.227
5,158,numeric,0.03,0.2,target,competitor,0,7.512
5,159,perceptual,0.1,0.05,target,target,1,6.982
5,160,numeric,0.1,0.2,competitor,target,1,8.216
5,161,numeric,0.1,0.2,target,target,1,7.068
5,162,numeric,0.03,0.05,target,target,1,7.523
5,163,numeric,0.03,0.05,competitor,competitor,0,10.886
5,164,perceptual,0.1,0.2,competitor,competitor,0,7.048
5,165,numeric,0.1,0.05,target,target,1,5.474
5,166,perceptual,0.03,0.2,target,target,1,8.428
5,167,numeric,0.03,0.2,target,decoy,0,12.411
5,168,perceptual,0.03,0.2,target,target,1,3.413
5,169,perceptual,0.03,0.05,target,target,1,3.739
5,170,perceptual,0.1,0.2,competitor,competitor,0,7.09
5,171,perceptual,0.03,0.05,target,decoy,0,7.732
5,172,numeric,0.03,0.2,target,competitor,0,10.194
5,173,numeric,0.1,0.2,target,target,1,5.359
5,174,numeric,0.03,0.05,target,target,1,9.092
5,175,numeric,0.1,0.05,target,decoy,0,10.739
5,176,numeric,0.1,0.05,competitor,target,1,12.457
5,177,numeric,0.03,0.2,target,decoy,0,7.052
5,178,numeric,0.03,0.05,competitor,decoy,0,4.841
5,179,numeric,0.03,0.2,competitor,target,1,7.099
5,180,numeric,0.1,0.2,competitor,competitor,0,3.712
5,181,perceptual,0.1,0.2,competitor,target,1,6.662
5,182,numeric,0.1,0.05,target,competitor,0,9.955
5,183,numeric,0.1,0.2,competitor,target,1,6.059
5,184,perceptual,0.03,0.2,competitor,competitor,0,8.058
5,185,perceptual,0.1,0.2,competitor,target,1,2.497
5,186,perceptual,0.1,0.05,competitor,competitor,0,8.106
5,187,perceptual,0.1,0.2,target,target,1,7.616
5,188,numeric,0.03,0.2,target,target,1,4.906
5,189,numeric,0.1,0.2,target,target,1,5.937
5,190,numeric,0.1,0.2,target,target,1,6.17
5,191,numeric,0.1,0.2,competitor,competitor,0,8.242
5,192,perceptual,0.03,0.2,target,target,1,5.823
6,1,numeric,0.03,0.2,competitor,competitor,0,12.259
6,2,numeric,0.1,0.2,competitor,target,1,11.722
6,3,numeric,0.1,0.2,competitor,target,1,7.369
6,4,numeric,0.03,0.2,competitor,target,1,11.654
6,5,perceptual,0.1,0.05,competitor,target,1,8.646
6,6,perceptual,0.03,0.2,target,competitor,0,8.262
6,7,numeric,0.1,0.2,competitor,competitor,0,10.932
6,8,numeric,0.03,0.2,target,competitor,0,5.149
6,9,numeric,0.03,0.05,competitor,competitor,0,4.381
6,10,numeric,0.03,0.05,target,decoy,0,4.286
6,11,numeric,0.03,0.05,competitor,decoy,0,4.067
6,12,perceptual,0.03,0.05,competitor,target,1,4.298
6,13,numeric,0.03,0.2,target,competitor,0,5.2
6,14,perceptual,0.1,0.05,target,competitor,0,5.791
6,15,numeric,0.1,0.05,competitor,target,1,5.564
6,16,perceptual,0.1,0.05,competitor,target,1,3.31
6,17,numeric,0.1,0.2,competitor,competitor,0,5.784
6,18,numeric,0.1,0.2,competitor,target,1,3.573
6,19,numeric,0.1,0.05,competitor,target,1,2.849
6,20,perceptual,0.03,0.2,competitor,competitor,0,4.372
6,21,numeric,0.1,0.2,target,competitor,0,5.091
6,22,numeric,0.1,0.2,competitor,competitor,0,4.596
6,23,perceptual,0.03,0.2,competitor,decoy,0,4.889
6,24,numeric,0.03,0.2,target,target,1,5.796
6,25,perceptual,0.03,0.2,target,competitor,0,3.371
6,26,perceptual,0.1,0.05,target,target,1,3.372
6,27,numeric,0.1,0.2,competitor,target,1,5.607
6,28,numeric,0.03,0.05,target,competitor,0,7.57
6,29,perceptual,0.03,0.2,target,competitor,0,4.851
6,30,perceptual,0.03,0.05,competitor,target,1,5.241
6,31,numeric,0.03,0.05,target,competitor,0,3.007
6,32,perceptual,0.1,0.2,target,decoy,0,5.36
6,33,numeric,0.03,0.05,target,competitor,0,7.762
6,34,perceptual,0.1,0.2,competitor,target,1,5.787
6,35,perceptual,0.1,0.05,competitor,target,1,5.314
6,36,perceptual,0.03,0.2,competitor,target,1,4.201
6,37,perceptual,0.1,0.05,competitor,competitor,0,4.011
6,38,perceptual,0.1,0.2,target,competitor,0,4.255
6,39,perceptual,0.1,0.05,target,competitor,0,3.882
6,40,perceptual,0.1,0.2,competitor,competitor,0,4.697
6,41,numeric,0.03,0.2,competitor,competitor,0,5.838
6,42,perceptual,0.1,0.2,target,target,1,3.058
6,43,numeric,0.03,0.05,target,decoy,0,3.39
6,44,numeric,0.1,0.2,target,target,1,3.23
6,45,perceptual,0.1,0.2,competitor,competitor,0,2.239
6,46,perceptual,0.1,0.05,target,decoy,0,1.952
6,47,perceptual,0.1,0.05,competitor,target,1,2.648
6,48,perceptual,0.1,0.05,target,target,1,4.309
6,49,numeric,0.03,0.2,target,decoy,0,2.565
6,50,perceptual,0.03,0.05,competitor,competitor,0,3.076
6,51,perceptual,0.1,0.2,target,target,1,4.983
6,52,perceptual,0.1,0.2,competitor,target,1,4.645
6,53,numeric,0.1,0.2,competitor,target,1,4.204
6,54,numeric,0.1,0.05,competitor,competitor,0,3.255
6,55,perceptual,0.1,0.05,competitor,decoy,0,5.297
6,56,numeric,0.1,0.2,competitor,decoy,0,3.367
6,57,perceptual,0.1,0.2,competitor,target,1,3.182
6,58,numeric,0.1,0.2,competitor,target,1,4.014
6,59,numeric,0.1,0.2,target,decoy,0,2.999
6,60,numeric,0.03,0.05,target,target,1,4.628
6,61,numeric,0.03,0.2,competitor,decoy,0,4.455
6,62,numeric,0.03,0.05,competitor,target,1,6.051
6,63,perceptual,0.1,0.2,target,competitor,0,7.495
6,64,numeric,0.1,0.05,competitor,target,1,4.517
6,65,numeric,0.03,0.2,target,competitor,0,7.897
6,66,perceptual,0.1,0.05,target,decoy,0,7.192
6,67,numeric,0.03,0.05,target,competitor,0,4.334
6,68,perceptual,0.1,0.2,target,target,1,3.866
6,69,perceptual,0.03,0.2,competitor,target,1,2.6
6,70,perceptual,0.03,0.05,target,target,1,7.501
6,71,numeric,0.1,0.05,competitor,competitor,0,5.665
6,72,numeric,0.1,0.2,competitor,target,1,3.539
6,73,perceptual,0.1,0.2,competitor,competitor,0,4.454
6,74,perceptual,0.03,0.2,competitor,competitor,0,3.73
6,75,perceptual,0.03,0.05,target,competitor,0,2.828
6,76,numeric,0.1,0.05,target,competitor,0,2.776
6,77,perceptual,0.03,0.05,competitor,competitor,0,2.607
6,78,perceptual,0.1,0.05,target,competitor,0,3.345
6,79,perceptual,0.1,0.05,target,competitor,0,3.296
6,80,perceptual,0.03,0.05,competitor,decoy,0,1.808
6,81,numeric,0.03,0.05,target,decoy,0,1.417
6,82,numeric,0.03,0.2,competitor,target,1,1.302
6,83,perceptual,0.03,0.05,competitor,decoy,0,1.348
6,84,numeric,0.1,0.05,competitor,decoy,0,4.444
6,85,perceptual,0.03,0.2,competitor,decoy,0,2.773
6,86,perceptual,0.03,0.05,target,target,1,4.881
6,87,numeric,0.1,0.2,target,target,1,3.424
6,88,perceptual,0.03,0.05,competitor,target,1,6.068
6,89,numeric,0.1,0.2,target,competitor,0,4.323
6,90,perceptual,0.03,0.05,competitor,decoy,0,4.17
6,91,numeric,0.1,0.05,competitor,decoy,0,6.986
6,92,numeric,0.03,0.2,competitor,target,1,4.567
6,93,numeric,0.03,0.2,target,competitor,0,4.815
6,94,perceptual,0.03,0.05,target,competitor,0,4.073
6,95,perceptual,0.03,0.2,target,competitor,0,4.714
6,96,perceptual,0.1,0.2,competitor,target,1,3.402
6,97,perceptual,0.1,0.2,competitor,decoy,0,4.218
6,98,numeric,0.03,0.05,competitor,target,1,5.711
6,99,numeric,0.1,0.2,target,competitor,0,8.943
6,100,numeric,0.1,0.05,target,target,1,6.041
6,101,perceptual,0.1,0.2,target,competitor,0,5.005
6,102,perceptual,0.03,0.2,competitor,target,1,4.125
6,103,perceptual,0.1,0.2,competitor,competitor,0,4.502
6,104,numeric,0.03,0.2,competitor,competitor,0,3.914
6,105,numeric,0.1,0.2,target,target,1,5.123
6,106,perceptual,0.03,0.2,target,competitor,0,2.975
6,107,perceptual,0.1,0.2,target,decoy,0,5.338
6,108,numeric,0.1,0.05,competitor,target,1,5.058
6,109,numeric,0.03,0.05,competitor,competitor,0,4.543
6,110,numeric,0.1,0.2,target,decoy,0,0.108
6,111,numeric,0.1,0.2,target,target,1,5.831
6,112,numeric,0.1,0.2,competitor,target,1,5.05
6,113,numeric,0.1,0.05,target,decoy,0,4.047
6,114,numeric,0.03,0.05,competitor,competitor,0,4.854
6,115,perceptual,0.1,0.05,target,decoy,0,6.047
6,116,numeric,0.1,0.05,target,target,1,6.819
6,117,perceptual,0.03,0.05,target,decoy,0,4.751
6,118,numeric,0.03,0.05,competitor,competitor,0,5.238
6,119,numeric,0.1,0.2,target,target,1,4.149
6,120,numeric,0.1,0.05,competitor,target,1,7.18
6,121,perceptual,0.1,0.2,competitor,competitor,0,5.16
6,122,numeric,0.03,0.2,target,competitor,0,2.907
6,123,numeric,0.03,0.2,target,target,1,4.206
6,124,perceptual,0.1,0.2,target,competitor,0,5.502
6,125,perceptual,0.03,0.2,target,target,1,3.214
6,126,perceptual,0.1,0.05,competitor,target,1,5.607
6,127,numeric,0.1,0.05,target,competitor,0,5.19
6,128,perceptual,0.03,0.2,competitor,competitor,0,7.246
6,129,perceptual,0.03,0.05,competitor,target,1,6.25
6,130,numeric,0.1,0.2,target,target,1,6.857
6,131,numeric,0.03,0.05,target,target,1,5.804
6,132,perceptual,0.1,0.05,target,competitor,0,3.314
6,133,perceptual,0.1,0.2,target,competitor,0,3.653
6,134,perceptual,0.03,0.2,competitor,decoy,0,4.715
6,135,perceptual,0.03,0.05,target,target,1,4.334
6,136,numeric,0.03,0.05,competitor,competitor,0,4.464
6,137,perceptual,0.1,0.2,target,target,1,4
6,138,numeric,0.03,0.05,competitor,target,1,5.336
6,139,perceptual,0.03,0.05,competitor,competitor,0,6.444
6,140,numeric,0.1,0.05,target,decoy,0,5.67
6,141,perceptual,0.03,0.05,target,competitor,0,4.726
6,142,numeric,0.03,0.2,target,competitor,0,4.914
6,143,numeric,0.03,0.2,competitor,competitor,0,8.212
6,144,perceptual,0.03,0.2,competitor,target,1,4.938
6,145,numeric,0.1,0.05,target,target,1,5.869
6,146,perceptual,0.1,0.05,competitor,target,1,4.315
6,147,numeric,0.1,0.05,competitor,target,1,5.207
6,148,perceptual,0.03,0.2,target,target,1,7.714
6,149,numeric,0.1,0.2,target,target,1,7.482
6,150,numeric,0.1,0.05,target,target,1,6.296
6,151,perceptual,0.03,0.05,competitor,target,1,4.979
6,152,perceptual,0.1,0.05,competitor,competitor,0,5.091
6,153,perceptual,0.03,0.05,target,competitor,0,6.367
6,154,perceptual,0.03,0.2,competitor,target,1,5.958
6,155,numeric,0.03,0.05,target,target,1,6.032
6,156,perceptual,0.1,0.05,competitor,target,1,3.337
6,157,perceptual,0.03,0.2,target,competitor,0,5.758
6,158,perceptual,0.03,0.2,competitor,decoy,0,4.564
6,159,numeric,0.03,0.2,target,competitor,0,3.753
6,160,numeric,0.03,0.05,target,competitor,0,4.223
6,161,perceptual,0.03,0.2,target,target,1,4.212
6,162,numeric,0.03,0.2,target,target,1,4.282
6,163,numeric,0.03,0.2,competitor,competitor,0,10.3
6,164,numeric,0.03,0.05,target,target,1,9.312
6,165,numeric,0.1,0.05,competitor,target,1,6.109
6,166,numeric,0.1,0.05,target,decoy,0,8.99
6,167,perceptual,0.1,0.05,target,target,1,5.528
6,168,perceptual,0.03,0.05,target,decoy,0,3.197
6,169,perceptual,0.03,0.2,target,target,1,3.379
6,170,perceptual,0.1,0.2,target,competitor,0,3.764
6,171,numeric,0.03,0.05,competitor,target,1,8.731
6,172,numeric,0.1,0.05,target,competitor,0,7.1
6,173,perceptual,0.03,0.05,target,target,1,3.198
6,174,perceptual,0.03,0.05,target,competitor,0,3.753
6,175,perceptual,0.03,0.05,competitor,decoy,0,7.755
6,176,perceptual,0.1,0.2,competitor,competitor,0,3.43
6,177,perceptual,0.1,0.05,target,competitor,0,4.174
6,178,numeric,0.03,0.2,competitor,target,1,5.153
6,179,numeric,0.03,0.2,competitor,target,1,4.815
6,180,perceptual,0.03,0.2,target,decoy,0,2.405
6,181,perceptual,0.1,0.2,competitor,competitor,0,3.158
6,182,perceptual,0.1,0.05,competitor,target,1,3.684
6,183,numeric,0.1,0.05,target,target,1,5.829
6,184,numeric,0.1,0.05,target,target,1,3.491
6,185,numeric,0.03,0.05,competitor,target,1,4.679
6,186,numeric,0.03,0.05,competitor,competitor,0,7.244
6,187,perceptual,0.1,0.05,competitor,competitor,0,4.707
6,188,numeric,0.1,0.05,competitor,target,1,4.119
6,189,perceptual,0.03,0.2,target,competitor,0,3.942
6,190,numeric,0.03,0.2,target,target,1,3.256
6,191,numeric,0.03,0.2,competitor,target,1,7.489
6,192,perceptual,0.03,0.05,target,competitor,0,2.905
7,1,numeric,0.1,0.2,competitor,competitor,0,13.265
7,2,perceptual,0.03,0.05,competitor,decoy,0,7.646
7,3,numeric,0.1,0.05,competitor,competitor,0,15.212
7,4,numeric,0.03,0.2,competitor,target,1,8.77
7,5,numeric,0.1,0.2,competitor,competitor,0,13.802
7,6,numeric,0.03,0.05,target,target,1,8.36
7,7,numeric,0.1,0.05,target,competitor,0,10.053
7,8,numeric,0.03,0.05,competitor,target,1,8.41
7,9,perceptual,0.1,0.05,competitor,target,1,6.725
7,10,numeric,0.1,0.2,target,competitor,0,13.415
7,11,perceptual,0.1,0.2,competitor,target,1,8.348
7,12,perceptual,0.1,0.05,target,target,1,3.637
7,13,perceptual,0.03,0.2,target,target,1,3.723
7,14,perceptual,0.03,0.05,competitor,target,1,3.241
7,15,perceptual,0.03,0.05,competitor,competitor,0,3.094
7,16,perceptual,0.03,0.05,competitor,decoy,0,5.807
7,17,perceptual,0.03,0.2,competitor,target,1,4.177
7,18,perceptual,0.1,0.05,target,target,1,3.688
7,19,perceptual,0.1,0.05,competitor,competitor,0,4.518
7,20,perceptual,0.03,0.05,competitor,target,1,10.589
7,21,numeric,0.03,0.05,target,target,1,8.213
7,22,perceptual,0.03,0.2,target,target,1,6.592
7,23,numeric,0.03,0.05,target,competitor,0,14.127
7,24,numeric,0.03,0.05,competitor,decoy,0,13.77
7,25,numeric,0.1,0.2,target,target,1,13.334
7,26,perceptual,0.1,0.05,target,decoy,0,3.669
7,27,numeric,0.03,0.2,target,target,1,10.204
7,28,perceptual,0.1,0.2,target,decoy,0,0.216
7,29,perceptual,0.1,0.2,target,competitor,0,5.428
7,30,numeric,0.1,0.05,target,target,1,10.938
7,31,perceptual,0.03,0.2,target,target,1,3.752
7,32,perceptual,0.03,0.05,target,target,1,4.03
7,33,numeric,0.03,0.2,competitor,target,1,17.252
7,34,perceptual,0.03,0.2,competitor,target,1,4.704
7,35,perceptual,0.1,0.2,target,target,1,3.672
7,36,perceptual,0.1,0.2,competitor,target,1,4.177
7,37,perceptual,0.1,0.2,target,target,1,3.349
7,38,numeric,0.1,0.2,target,target,1,7.696
7,39,perceptual,0.03,0.05,competitor,target,1,3.184
7,40,perceptual,0.03,0.2,competitor,decoy,0,2.216
7,41,perceptual,0.1,0.05,competitor,target,1,3.196
7,42,numeric,0.1,0.2,target,target,1,12.256
7,43,numeric,0.03,0.05,competitor,target,1,7.852
7,44,numeric,0.03,0.05,target,decoy,0,8.426
7,45,perceptual,0.03,0.05,competitor,target,1,3.247
7,46,numeric,0.1,0.05,competitor,target,1,4.191
7,47,numeric,0.1,0.2,competitor,target,1,7.696
7,48,numeric,0.1,0.05,competitor,target,1,13.381
7,49,numeric,0.03,0.2,target,target,1,9.747
7,50,numeric,0.03,0.2,target,competitor,0,10.247
7,51,numeric,0.03,0.05,competitor,competitor,0,14.44
7,52,perceptual,0.1,0.05,competitor,target,1,5.799
7,53,perceptual,0.1,0.05,target,target,1,4.528
7,54,numeric,0.03,0.2,competitor,competitor,0,6.226
7,55,perceptual,0.1,0.2,competitor,target,1,3.245
7,56,perceptual,0.1,0.05,target,target,1,2.884
7,57,perceptual,0.03,0.2,competitor,competitor,0,3.222
7,59,perceptual,0.1,0.05,target,target,1,1.378
7,60,perceptual,0.03,0.05,target,target,1,2.555
7,61,numeric,0.1,0.2,competitor,competitor,0,4.351
7,62,perceptual,0.1,0.2,target,target,1,4.473
7,63,perceptual,0.03,0.05,target,target,1,3.372
7,64,numeric,0.1,0.05,target,target,1,5.551
7,65,perceptual,0.1,0.2,target,target,1,4.048
7,66,numeric,0.03,0.2,target,competitor,0,7.707
7,67,numeric,0.03,0.2,competitor,competitor,0,9.052
7,68,numeric,0.03,0.05,competitor,target,1,14.139
7,69,perceptual,0.1,0.05,competitor,target,1,3.049
7,70,numeric,0.03,0.2,competitor,target,1,9.416
7,71,numeric,0.03,0.2,competitor,target,1,13.879
7,72,numeric,0.1,0.2,competitor,target,1,8.344
7,73,numeric,0.1,0.05,competitor,target,1,7.349
7,74,numeric,0.03,0.05,target,target,1,12.83
7,75,perceptual,0.1,0.05,competitor,competitor,0,5.067
7,76,perceptual,0.1,0.2,competitor,competitor,0,2.65
7,77,numeric,0.1,0.05,target,target,1,16.281
7,78,perceptual,0.1,0.05,target,target,1,4.826
7,79,numeric,0.03,0.2,target,target,1,7.921
7,80,perceptual,0.1,0.2,target,target,1,4.202
7,81,perceptual,0.1,0.2,competitor,target,1,3.094
7,82,perceptual,0.03,0.2,target,competitor,0,2.518
7,83,numeric,0.1,0.05,target,decoy,0,13.427
7,84,perceptual,0.03,0.2,competitor,competitor,0,3.558
7,85,numeric,0.03,0.05,competitor,competitor,0,16.682
7,86,perceptual,0.1,0.2,competitor,target,1,4.444
7,88,perceptual,0.1,0.2,target,target,1,2.61
7,89,perceptual,0.03,0.2,target,competitor,0,2.142
7,90,perceptual,0.1,0.05,competitor,target,1,3.889
7,91,numeric,0.03,0.05,competitor,competitor,0,10.216
7,92,numeric,0.1,0.05,target,target,1,11.66
7,93,numeric,0.1,0.2,target,target,1,9.182
7,94,numeric,0.1,0.2,competitor,target,1,9.403
7,95,numeric,0.03,0.2,target,target,1,11.18
7,96,perceptual,0.1,0.2,target,target,1,4.55
7,97,perceptual,0.1,0.05,target,decoy,0,2.791
7,98,perceptual,0.03,0.05,target,decoy,0,4.522
7,99,perceptual,0.03,0.2,competitor,competitor,0,4.82
7,100,numeric,0.03,0.05,competitor,target,1,8.47
7,101,numeric,0.03,0.2,target,target,1,12.65
7,102,perceptual,0.03,0.05,competitor,competitor,0,5.009
7,103,numeric,0.1,0.2,target,target,1,12.909
7,104,numeric,0.1,0.2,competitor,target,1,11.305
7,105,numeric,0.03,0.2,competitor,competitor,0,10.641
7,106,perceptual,0.1,0.05,competitor,target,1,4.55
7,107,perceptual,0.1,0.2,target,target,1,2.642
7,108,perceptual,0.1,0.2,competitor,target,1,7.71
7,109,numeric,0.03,0.2,target,competitor,0,12.802
7,110,perceptual,0.03,0.05,target,decoy,0,2.605
7,111,perceptual,0.1,0.05,target,decoy,0,5.482
7,112,numeric,0.1,0.05,target,target,1,8.488
7,113,numeric,0.1,0.05,competitor,target,1,8.793
7,114,perceptual,0.03,0.05,target,target,1,3.796
7,115,numeric,0.03,0.2,target,target,1,10.657
7,116,numeric,0.03,0.05,competitor,target,1,12.673
7,117,perceptual,0.1,0.2,competitor,competitor,0,5.525
7,118,perceptual,0.03,0.2,target,competitor,0,3.848
7,119,perceptual,0.1,0.2,target,competitor,0,2.671
7,120,perceptual,0.03,0.05,competitor,target,1,4.511
7,121,numeric,0.1,0.05,target,target,1,8.884
7,122,perceptual,0.03,0.2,competitor,target,1,3.708
7,123,numeric,0.03,0.05,target,target,1,9.318
7,124,numeric,0.1,0.05,target,target,1,14.4
7,125,numeric,0.1,0.05,competitor,target,1,11.69
7,126,numeric,0.03,0.2,competitor,target,1,11.579
7,127,numeric,0.03,0.2,competitor,competitor,0,10.101
7,128,numeric,0.1,0.2,target,competitor,0,10.342
7,129,perceptual,0.03,0.2,competitor,competitor,0,2.927
7,130,numeric,0.1,0.05,target,target,1,10.537
7,131,perceptual,0.03,0.05,competitor,decoy,0,6.069
7,132,numeric,0.1,0.2,competitor,target,1,11.085
7,133,perceptual,0.03,0.2,competitor,competitor,0,3.122
7,134,numeric,0.1,0.2,target,competitor,0,7.98
7,135,perceptual,0.1,0.05,target,decoy,0,2.397
7,136,perceptual,0.1,0.05,target,target,1,5.438
7,137,perceptual,0.03,0.2,target,target,1,5.635
7,138,perceptual,0.03,0.05,target,decoy,0,5.486
7,139,perceptual,0.03,0.2,target,target,1,2.824
7,140,perceptual,0.03,0.05,competitor,competitor,0,3.297
7,141,perceptual,0.1,0.05,competitor,target,1,3.526
7,142,numeric,0.03,0.05,target,target,1,9.677
7,143,perceptual,0.1,0.05,competitor,target,1,4.238
7,144,numeric,0.03,0.05,competitor,competitor,0,7.828
7,145,numeric,0.03,0.05,target,target,1,13.883
7,146,numeric,0.1,0.05,target,target,1,7.381
7,147,perceptual,0.03,0.05,target,target,1,5.927
7,148,numeric,0.03,0.2,competitor,competitor,0,9.163
7,149,perceptual,0.1,0.2,target,target,1,2.807
7,150,numeric,0.1,0.05,competitor,target,1,10.89
7,151,numeric,0.03,0.05,target,target,1,10.053
7,152,numeric,0.1,0.05,competitor,target,1,14.083
7,153,numeric,0.1,0.2,competitor,target,1,12.026
7,154,perceptual,0.1,0.2,competitor,target,1,3.144
7,155,numeric,0.03,0.2,target,target,1,11.429
7,156,perceptual,0.1,0.2,competitor,target,1,3.265
7,157,numeric,0.03,0.05,target,target,1,11.061
7,158,perceptual,0.03,0.05,competitor,target,1,3.304
7,159,numeric,0.1,0.05,competitor,competitor,0,10.446
7,160,numeric,0.03,0.2,competitor,target,1,11.193
7,161,perceptual,0.1,0.2,competitor,target,1,3.504
7,162,numeric,0.03,0.2,target,target,1,9.903
7,163,perceptual,0.03,0.05,target,target,1,3.269
7,164,perceptual,0.03,0.2,competitor,target,1,3.609
7,165,numeric,0.03,0.05,target,target,1,12.35
7,166,numeric,0.1,0.05,competitor,target,1,10.658
7,167,numeric,0.1,0.2,target,target,1,15.828
7,168,numeric,0.1,0.2,target,target,1,18.904
7,169,numeric,0.1,0.2,competitor,target,1,15.795
7,170,numeric,0.03,0.05,competitor,target,1,11.022
7,171,numeric,0.1,0.05,competitor,target,1,10.944
7,172,perceptual,0.03,0.2,target,target,1,3.01
7,173,perceptual,0.03,0.2,target,competitor,0,2.254
7,174,perceptual,0.03,0.05,target,competitor,0,3.313
7,175,numeric,0.1,0.2,competitor,target,1,10.087
7,176,perceptual,0.03,0.2,target,target,1,4.65
7,177,numeric,0.1,0.05,competitor,target,1,11.366
7,178,perceptual,0.03,0.05,target,target,1,4.97
7,179,perceptual,0.03,0.2,competitor,competitor,0,2.645
7,180,numeric,0.1,0.2,target,target,1,10.223
7,181,perceptual,0.03,0.05,target,target,1,2.926
7,182,perceptual,0.03,0.2,target,target,1,7.573
7,183,numeric,0.03,0.05,target,target,1,10.62
7,184,numeric,0.1,0.05,target,target,1,7.491
7,185,perceptual,0.1,0.05,target,target,1,3.881
7,186,numeric,0.03,0.05,competitor,target,1,10.053
7,187,perceptual,0.1,0.05,competitor,competitor,0,3.207
7,188,perceptual,0.1,0.05,competitor,target,1,5.529
7,189,perceptual,0.03,0.2,competitor,competitor,0,3.821
7,190,numeric,0.1,0.2,competitor,competitor,0,16.33
7,191,numeric,0.03,0.2,competitor,target,1,18.604
7,192,perceptual,0.1,0.2,competitor,target,1,2.966
8,1,perceptual,0.03,0.05,competitor,target,1,5.144
8,2,numeric,0.1,0.05,competitor,competitor,0,8.336
8,3,numeric,0.1,0.2,target,competitor,0,4.794
8,4,perceptual,0.1,0.2,competitor,decoy,0,4.421
8,5,perceptual,0.03,0.2,competitor,competitor,0,5.262
8,6,numeric,0.1,0.05,competitor,target,1,8.802
8,7,numeric,0.03,0.05,target,target,1,5.894
8,8,perceptual,0.1,0.2,target,target,1,5.474
8,9,perceptual,0.03,0.2,competitor,target,1,5.111
8,10,perceptual,0.1,0.2,target,competitor,0,4.414
8,11,perceptual,0.03,0.2,competitor,competitor,0,3.129
8,12,numeric,0.03,0.05,target,target,1,8.272
8,13,numeric,0.1,0.05,target,target,1,7.709
8,14,numeric,0.1,0.05,competitor,target,1,7.969
8,15,numeric,0.1,0.05,target,target,1,6.561
8,16,numeric,0.03,0.05,target,target,1,9.318
8,17,numeric,0.1,0.2,competitor,target,1,7.556
8,18,numeric,0.1,0.2,target,target,1,5.695
8,19,perceptual,0.03,0.2,target,competitor,0,3.101
8,20,perceptual,0.1,0.2,competitor,target,1,6.754
8,21,perceptual,0.03,0.2,target,competitor,0,5.511
8,22,numeric,0.03,0.2,competitor,competitor,0,4.154
8,23,perceptual,0.03,0.2,target,target,1,6.69
8,24,perceptual,0.03,0.05,competitor,target,1,8.469
8,25,perceptual,0.1,0.2,competitor,target,1,8.497
8,26,numeric,0.03,0.05,target,target,1,10.813
8,27,numeric,0.03,0.05,competitor,competitor,0,6.468
8,28,perceptual,0.1,0.05,competitor,target,1,5.244
8,29,numeric,0.03,0.2,target,target,1,5.557
8,30,numeric,0.1,0.05,target,target,1,8.071
8,31,numeric,0.03,0.05,competitor,competitor,0,10.949
8,32,numeric,0.03,0.2,target,target,1,7.992
8,33,numeric,0.1,0.05,target,decoy,0,2.385
8,34,perceptual,0.03,0.05,competitor,decoy,0,5.071
8,35,numeric,0.03,0.05,target,target,1,6.778
8,36,perceptual,0.03,0.2,competitor,target,1,4.923
8,37,perceptual,0.03,0.05,competitor,competitor,0,7.749
8,38,perceptual,0.1,0.05,competitor,target,1,6.296
8,39,perceptual,0.03,0.05,competitor,target,1,4.847
8,40,numeric,0.03,0.2,competitor,competitor,0,7.87
8,41,perceptual,0.1,0.05,competitor,decoy,0,5.601
8,42,perceptual,0.1,0.2,target,competitor,0,5.733
8,43,perceptual,0.03,0.2,target,competitor,0,4.221
8,44,numeric,0.03,0.2,competitor,competitor,0,7.187
8,45,numeric,0.03,0.05,target,target,1,6.848
8,46,numeric,0.1,0.05,target,target,1,8.317
8,47,perceptual,0.1,0.2,competitor,target,1,5.164
8,48,numeric,0.1,0.2,target,target,1,8.877
8,49,perceptual,0.1,0.05,competitor,competitor,0,6.711
8,50,perceptual,0.03,0.05,target,competitor,0,5.07
8,51,numeric,0.03,0.2,target,competitor,0,6.605
8,52,perceptual,0.1,0.05,target,target,1,10.838
8,53,perceptual,0.1,0.05,competitor,target,1,4.866
8,54,perceptual,0.1,0.05,target,competitor,0,7.566
8,55,numeric,0.03,0.2,competitor,competitor,0,6.864
8,56,perceptual,0.03,0.2,competitor,competitor,0,6.781
8,57,perceptual,0.03,0.2,competitor,target,1,11.859
8,58,perceptual,0.03,0.05,target,target,1,5.27
8,59,perceptual,0.03,0.05,target,decoy,0,8.326
8,60,numeric,0.1,0.05,competitor,competitor,0,8.129
8,61,perceptual,0.03,0.2,competitor,competitor,0,5.477
8,62,perceptual,0.03,0.2,target,target,1,5.044
8,63,numeric,0.03,0.2,competitor,competitor,0,5.502
8,64,numeric,0.1,0.2,target,competitor,0,7.888
8,65,numeric,0.1,0.2,target,target,1,5.151
8,66,perceptual,0.03,0.05,competitor,competitor,0,7.38
8,67,numeric,0.1,0.05,target,target,1,8.537
8,68,numeric,0.1,0.2,target,target,1,4.37
8,69,numeric,0.03,0.2,competitor,target,1,6.758
8,70,perceptual,0.1,0.05,target,target,1,10.193
8,71,numeric,0.03,0.05,target,target,1,8.679
8,72,perceptual,0.03,0.05,target,decoy,0,7.263
8,73,perceptual,0.03,0.05,target,competitor,0,5.891
8,74,numeric,0.1,0.05,target,target,1,5.988
8,75,numeric,0.1,0.2,target,target,1,7.228
8,76,numeric,0.03,0.2,competitor,competitor,0,7.176
8,77,perceptual,0.1,0.05,competitor,target,1,5.31
8,78,numeric,0.03,0.05,competitor,target,1,11.905
8,79,perceptual,0.1,0.2,competitor,competitor,0,3.625
8,80,perceptual,0.03,0.05,target,target,1,11.735
8,81,perceptual,0.03,0.05,target,decoy,0,5.186
8,82,perceptual,0.03,0.05,competitor,target,1,6.535
8,83,perceptual,0.03,0.2,target,target,1,4.674
8,84,perceptual,0.1,0.2,target,target,1,5.08
8,85,numeric,0.1,0.05,competitor,competitor,0,6.753
8,86,perceptual,0.1,0.2,target,target,1,6.523
8,87,perceptual,0.03,0.05,target,competitor,0,4.942
8,88,perceptual,0.03,0.05,competitor,target,1,4.507
8,89,numeric,0.1,0.2,target,target,1,6.699
8,90,perceptual,0.1,0.05,competitor,target,1,4.032
8,91,numeric,0.1,0.05,competitor,target,1,5.905
8,92,perceptual,0.1,0.05,target,target,1,10.197
8,93,perceptual,0.1,0.2,target,target,1,5.505
8,94,perceptual,0.1,0.2,target,target,1,3.881
8,95,numeric,0.03,0.2,competitor,target,1,5.018
8,96,numeric,0.1,0.05,target,target,1,8.943
8,97,numeric,0.03,0.05,target,target,1,6.198
8,98,perceptual,0.1,0.05,target,decoy,0,4.017
8,99,numeric,0.03,0.2,target,target,1,8.14
8,100,perceptual,0.1,0.2,target,decoy,0,7.883
8,101,perceptual,0.1,0.2,competitor,target,1,4.503
8,102,numeric,0.03,0.2,competitor,competitor,0,4.896
8,103,perceptual,0.03,0.05,target,target,1,6.176
8,104,perceptual,0.1,0.2,competitor,target,1,5.637
8,105,perceptual,0.1,0.05,target,decoy,0,8.532
8,106,numeric,0.03,0.2,target,target,1,4.632
8,107,numeric,0.1,0.2,competitor,competitor,0,4.205
8,108,perceptual,0.1,0.2,target,target,1,4.372
8,109,perceptual,0.1,0.2,target,target,1,3.348
8,110,perceptual,0.03,0.2,target,competitor,0,5.408
8,111,numeric,0.03,0.2,target,target,1,5.682
8,112,numeric,0.03,0.2,target,target,1,5.03
8,113,numeric,0.1,0.05,competitor,target,1,5.024
8,114,perceptual,0.03,0.05,target,target,1,4.76
8,115,numeric,0.1,0.05,competitor,competitor,0,5.293
8,116,perceptual,0.03,0.05,competitor,target,1,8.133
8,117,numeric,0.1,0.2,competitor,decoy,0,10.057
8,118,perceptual,0.1,0.2,competitor,target,1,4.406
8,119,perceptual,0.03,0.2,target,target,1,6.505
8,120,numeric,0.1,0.05,target,target,1,5.392
8,121,numeric,0.03,0.2,target,target,1,7.438
8,122,perceptual,0.03,0.05,target,competitor,0,11.537
8,123,numeric,0.03,0.2,competitor,competitor,0,4.257
8,124,numeric,0.1,0.05,competitor,competitor,0,5.023
8,125,numeric,0.1,0.2,competitor,target,1,4.072
8,126,perceptual,0.1,0.2,competitor,competitor,0,5.315
8,127,numeric,0.03,0.2,target,target,1,8.991
8,128,perceptual,0.03,0.2,target,target,1,5.397
8,129,numeric,0.03,0.2,competitor,competitor,0,4.196
8,130,numeric,0.1,0.2,competitor,target,1,4.784
8,131,numeric,0.1,0.2,target,target,1,5.766
8,132,perceptual,0.1,0.2,competitor,target,1,4.002
8,133,numeric,0.03,0.05,competitor,competitor,0,8.867
8,134,numeric,0.1,0.05,target,target,1,4.938
8,135,numeric,0.03,0.2,target,target,1,6.671
8,136,perceptual,0.1,0.05,target,target,1,4.162
8,137,numeric,0.1,0.2,competitor,target,1,8.121
8,138,perceptual,0.03,0.2,competitor,target,1,5.405
8,139,perceptual,0.1,0.2,target,target,1,4.221
8,140,perceptual,0.1,0.05,competitor,target,1,6.579
8,141,perceptual,0.03,0.2,target,competitor,0,6.094
8,142,numeric,0.1,0.2,competitor,competitor,0,5.036
8,143,numeric,0.03,0.05,competitor,competitor,0,5.926
8,144,perceptual,0.1,0.05,target,decoy,0,4.669
8,145,perceptual,0.03,0.2,target,decoy,0,9.276
8,146,perceptual,0.1,0.05,target,decoy,0,7.464
8,147,perceptual,0.1,0.2,competitor,target,1,8.044
8,148,numeric,0.03,0.05,target,competitor,0,8.728
8,149,numeric,0.1,0.2,target,target,1,6.089
8,150,numeric,0.1,0.05,competitor,competitor,0,7.037
8,151,perceptual,0.1,0.05,competitor,target,1,6.125
8,152,perceptual,0.03,0.05,competitor,competitor,0,7.758
8,153,perceptual,0.03,0.2,competitor,target,1,4.042
8,154,perceptual,0.1,0.2,competitor,target,1,5.769
8,155,numeric,0.1,0.05,competitor,target,1,5.64
8,156,numeric,0.1,0.2,target,target,1,5.357
8,157,perceptual,0.1,0.2,target,target,1,4.566
8,158,numeric,0.1,0.2,competitor,competitor,0,10.42
8,159,perceptual,0.03,0.2,competitor,competitor,0,7.771
8,160,numeric,0.03,0.05,target,target,1,8.707
8,161,perceptual,0.03,0.2,competitor,target,1,3.486
8,162,numeric,0.03,0.05,competitor,target,1,5.107
8,163,perceptual,0.1,0.05,target,target,1,8.702
8,164,perceptual,0.1,0.05,competitor,target,1,4.608
8,165,numeric,0.1,0.05,target,target,1,7.52
8,166,numeric,0.03,0.05,competitor,target,1,7.022
8,167,perceptual,0.03,0.2,competitor,competitor,0,6.842
8,168,numeric,0.1,0.2,competitor,competitor,0,6.228
8,169,perceptual,0.03,0.2,target,target,1,5.99
8,170,numeric,0.03,0.2,competitor,target,1,5.792
8,171,perceptual,0.03,0.05,competitor,target,1,6.008
8,172,perceptual,0.1,0.05,target,target,1,6.613
8,173,numeric,0.03,0.05,target,target,1,7.047
8,174,perceptual,0.03,0.05,competitor,target,1,3.553
8,175,numeric,0.03,0.05,competitor,competitor,0,4.786
8,176,numeric,0.1,0.05,target,target,1,10.036
8,177,numeric,0.1,0.2,competitor,target,1,6.912
8,178,perceptual,0.1,0.05,competitor,target,1,3.4
8,179,numeric,0.03,0.05,competitor,competitor,0,6.725
8,180,perceptual,0.1,0.05,competitor,target,1,3.834
8,181,numeric,0.03,0.05,competitor,target,1,7.551
8,182,numeric,0.03,0.2,target,target,1,8.461
8,183,numeric,0.1,0.05,competitor,target,1,9.107
8,184,perceptual,0.03,0.05,target,target,1,5.861
8,185,numeric,0.1,0.2,competitor,competitor,0,7.739
8,186,numeric,0.03,0.2,target,target,1,6.428
8,187,numeric,0.1,0.2,competitor,target,1,7.761
8,188,perceptual,0.1,0.05,target,target,1,6.943
8,189,numeric,0.03,0.05,competitor,competitor,0,7.03
8,190,numeric,0.03,0.05,target,target,1,8.447
8,191,numeric,0.03,0.05,competitor,target,1,11.216
8,192,numeric,0.1,0.2,target,target,1,5.451
9,1,perceptual,0.1,0.2,competitor,target,1,3.763
9,2,perceptual,0.1,0.2,target,competitor,0,3.443
9,3,perceptual,0.1,0.05,target,target,1,5.92
9,4,numeric,0.03,0.2,competitor,target,1,7.518
9,5,perceptual,0.03,0.2,competitor,target,1,5.465
9,6,perceptual,0.03,0.2,target,target,1,3.852
9,7,numeric,0.1,0.05,competitor,competitor,0,7.968
9,8,numeric,0.1,0.2,target,competitor,0,3.897
9,9,numeric,0.03,0.2,competitor,competitor,0,6.982
9,10,perceptual,0.1,0.2,target,target,1,5.499
9,11,numeric,0.1,0.2,competitor,target,1,5.708
9,12,numeric,0.1,0.2,target,target,1,5.521
9,13,perceptual,0.03,0.05,competitor,target,1,7.468
9,14,numeric,0.1,0.05,competitor,competitor,0,3.638
9,15,perceptual,0.03,0.05,competitor,target,1,5.149
9,16,perceptual,0.1,0.2,competitor,target,1,3.335
9,17,perceptual,0.03,0.05,target,target,1,5.54
9,18,perceptual,0.03,0.2,competitor,target,1,6.603
9,19,perceptual,0.1,0.2,competitor,target,1,4.12
9,20,perceptual,0.1,0.05,target,target,1,7.785
9,21,perceptual,0.03,0.2,target,target,1,5.566
9,22,perceptual,0.1,0.05,competitor,target,1,4.883
9,23,numeric,0.03,0.05,competitor,competitor,0,6.836
9,24,perceptual,0.1,0.05,target,target,1,6.3
9,25,perceptual,0.1,0.2,target,target,1,3.388
9,26,perceptual,0.1,0.05,target,target,1,5.601
9,27,perceptual,0.03,0.05,competitor,target,1,3.78
9,28,numeric,0.1,0.05,target,target,1,5.938
9,29,numeric,0.03,0.2,competitor,competitor,0,3.68
9,30,perceptual,0.03,0.2,competitor,competitor,0,3.253
9,31,perceptual,0.03,0.05,target,target,1,4.057
9,32,perceptual,0.03,0.05,target,target,1,8.452
9,33,perceptual,0.03,0.2,target,competitor,0,5.557
9,34,numeric,0.03,0.2,target,target,1,10.034
9,35,numeric,0.1,0.05,target,target,1,7.333
9,36,perceptual,0.1,0.2,target,target,1,4.882
9,37,perceptual,0.1,0.05,competitor,target,1,8.267
9,38,perceptual,0.03,0.05,competitor,target,1,7.299
9,39,numeric,0.1,0.2,competitor,target,1,6.912
9,40,numeric,0.1,0.05,competitor,competitor,0,13.172
9,41,perceptual,0.03,0.2,competitor,target,1,6.004
9,42,perceptual,0.1,0.05,competitor,target,1,3.346
9,43,perceptual,0.03,0.2,competitor,target,1,7.537
9,44,perceptual,0.03,0.05,target,target,1,7.471
9,45,perceptual,0.03,0.2,target,target,1,7.981
9,46,numeric,0.1,0.2,competitor,target,1,7.63
9,47,numeric,0.03,0.2,competitor,competitor,0,6.692
9,48,perceptual,0.1,0.2,target,target,1,6.799
9,49,perceptual,0.1,0.2,target,target,1,5.285
9,50,numeric,0.03,0.05,competitor,target,1,6.484
9,51,perceptual,0.1,0.2,competitor,target,1,3.924
9,52,numeric,0.1,0.05,target,target,1,4.698
9,53,numeric,0.03,0.2,competitor,competitor,0,5.248
9,54,numeric,0.1,0.05,target,target,1,7.545
9,55,perceptual,0.1,0.05,competitor,competitor,0,7.545
9,56,numeric,0.03,0.05,competitor,target,1,11.293
9,57,numeric,0.03,0.2,competitor,competitor,0,11.549
9,58,perceptual,0.03,0.05,target,decoy,0,3.412
9,59,perceptual,0.1,0.05,target,decoy,0,5.366
9,60,numeric,0.03,0.2,target,target,1,4.724
9,61,perceptual,0.03,0.05,competitor,target,1,8.712
9,62,perceptual,0.1,0.2,competitor,competitor,0,3.956
9,63,numeric,0.03,0.05,competitor,target,1,8.97
9,64,perceptual,0.03,0.2,target,target,1,5.955
9,65,perceptual,0.03,0.2,competitor,competitor,0,7.188
9,66,numeric,0.03,0.2,target,target,1,5.071
9,67,numeric,0.03,0.2,target,competitor,0,6.23
9,68,perceptual,0.1,0.05,competitor,competitor,0,4.77
9,69,numeric,0.1,0.2,competitor,target,1,7.097
9,70,numeric,0.03,0.2,target,target,1,12.167
9,71,numeric,0.1,0.05,competitor,target,1,7.416
9,72,perceptual,0.03,0.05,target,target,1,7.558
9,73,perceptual,0.03,0.05,target,competitor,0,6.235
9,74,perceptual,0.03,0.05,competitor,target,1,7.648
9,75,numeric,0.1,0.2,target,target,1,6.837
9,76,perceptual,0.1,0.05,target,target,1,8.258
9,77,perceptual,0.1,0.2,competitor,competitor,0,4.438
9,78,perceptual,0.03,0.2,target,target,1,10.151
9,79,numeric,0.1,0.05,target,target,1,9.104
9,80,perceptual,0.03,0.2,target,target,1,6.333
9,81,numeric,0.1,0.05,target,target,1,15.393
9,82,numeric,0.03,0.05,target,target,1,6.247
9,83,numeric,0.1,0.2,target,target,1,6.876
9,84,perceptual,0.03,0.2,target,target,1,4.778
9,85,perceptual,0.03,0.05,competitor,competitor,0,8.432
9,86,perceptual,0.1,0.2,competitor,competitor,0,5.638
9,87,numeric,0.03,0.05,target,target,1,10.702
9,88,numeric,0.1,0.05,target,target,1,9.09
9,89,perceptual,0.1,0.05,competitor,target,1,3.77
9,90,perceptual,0.1,0.2,target,target,1,5.253
9,91,numeric,0.1,0.2,competitor,target,1,9.456
9,92,perceptual,0.1,0.05,competitor,target,1,3.749
9,93,numeric,0.1,0.05,target,target,1,6.922
9,94,numeric,0.1,0.2,competitor,target,1,13.388
9,95,numeric,0.03,0.2,competitor,competitor,0,7.231
9,96,numeric,0.1,0.2,target,target,1,6.726
9,97,numeric,0.1,0.05,competitor,target,1,5.812
9,98,numeric,0.03,0.05,target,competitor,0,11.75
9,99,numeric,0.1,0.2,competitor,target,1,11.971
9,100,perceptual,0.03,0.05,competitor,target,1,4.781
9,101,numeric,0.03,0.05,competitor,competitor,0,11.714
9,102,perceptual,0.03,0.05,competitor,target,1,8.845
9,103,numeric,0.03,0.05,target,target,1,10.074
9,104,numeric,0.03,0.05,target,target,1,7.999
9,105,numeric,0.03,0.05,competitor,competitor,0,12.879
9,106,numeric,0.03,0.2,competitor,target,1,12.286
9,107,perceptual,0.1,0.2,competitor,target,1,4.705
9,108,numeric,0.03,0.2,competitor,target,1,6.605
9,109,perceptual,0.1,0.2,target,target,1,4.316
9,110,perceptual,0.1,0.2,target,competitor,0,5.17
9,111,numeric,0.1,0.2,target,target,1,8.196
9,112,numeric,0.1,0.2,competitor,competitor,0,9.755
9,113,numeric,0.03,0.2,target,competitor,0,13.51
9,114,perceptual,0.03,0.05,competitor,target,1,6.256
9,115,perceptual,0.1,0.05,target,target,1,5.319
9,116,perceptual,0.1,0.05,target,target,1,7.588
9,117,perceptual,0.03,0.05,target,target,1,5.155
9,118,perceptual,0.1,0.2,target,target,1,5.987
9,119,numeric,0.1,0.2,target,target,1,8.866
9,120,perceptual,0.03,0.05,competitor,competitor,0,7.081
9,121,perceptual,0.03,0.2,competitor,target,1,7.424
9,122,numeric,0.03,0.05,competitor,competitor,0,16.22
9,123,perceptual,0.03,0.05,competitor,competitor,0,11.402
9,124,perceptual,0.1,0.05,competitor,target,1,5.979
9,125,perceptual,0.03,0.05,target,competitor,0,5.417
9,126,numeric,0.03,0.05,target,target,1,12.768
9,127,numeric,0.03,0.05,competitor,competitor,0,14.05
9,128,numeric,0.03,0.2,competitor,target,1,11.257
9,129,numeric,0.1,0.2,target,target,1,9.814
9,130,numeric,0.03,0.2,competitor,competitor,0,11.073
9,131,numeric,0.1,0.05,target,target,1,10.52
9,132,perceptual,0.03,0.2,target,target,1,4.667
9,133,perceptual,0.03,0.05,target,competitor,0,5.598
9,134,numeric,0.1,0.05,target,target,1,7.499
9,135,perceptual,0.1,0.2,target,target,1,3.366
9,136,numeric,0.1,0.2,competitor,target,1,8.018
9,137,numeric,0.03,0.2,competitor,competitor,0,5.748
9,138,perceptual,0.1,0.05,competitor,target,1,4.765
9,139,perceptual,0.1,0.05,target,competitor,0,4.387
9,140,perceptual,0.1,0.05,competitor,target,1,5.17
9,141,perceptual,0.1,0.05,competitor,target,1,6.297
9,142,numeric,0.1,0.05,competitor,target,1,11.213
9,143,perceptual,0.1,0.2,competitor,target,1,3.599
9,144,numeric,0.03,0.2,target,target,1,10.064
9,145,perceptual,0.03,0.2,competitor,target,1,4.3
9,146,perceptual,0.03,0.05,target,target,1,2.931
9,147,numeric,0.03,0.05,competitor,target,1,7.848
9,148,numeric,0.03,0.2,target,competitor,0,8.663
9,149,perceptual,0.1,0.2,competitor,target,1,2.765
9,150,numeric,0.1,0.05,competitor,target,1,12.354
9,151,numeric,0.03,0.05,competitor,competitor,0,10.799
9,152,numeric,0.03,0.2,target,target,1,10.963
9,153,numeric,0.03,0.05,competitor,competitor,0,11.333
9,154,numeric,0.03,0.2,target,target,1,13.579
9,155,perceptual,0.1,0.2,target,target,1,4.524
9,156,numeric,0.1,0.2,competitor,target,1,15.248
9,157,perceptual,0.03,0.2,target,competitor,0,3.936
9,158,numeric,0.1,0.2,target,target,1,10.227
9,159,perceptual,0.03,0.2,competitor,competitor,0,11.098
9,160,numeric,0.1,0.05,competitor,target,1,12.236
9,161,perceptual,0.1,0.05,target,decoy,0,6.785
9,162,numeric,0.03,0.05,target,target,1,9.138
9,163,numeric,0.1,0.2,target,target,1,8.497
9,164,numeric,0.1,0.05,competitor,decoy,0,14.769
9,165,numeric,0.1,0.05,target,target,1,12.382
9,166,numeric,0.03,0.05,competitor,competitor,0,7.333
9,167,numeric,0.03,0.05,target,target,1,11.996
9,168,perceptual,0.03,0.2,competitor,target,1,4.627
9,169,perceptual,0.03,0.2,target,competitor,0,7.082
9,170,perceptual,0.1,0.05,target,target,1,13.306
9,171,numeric,0.1,0.05,competitor,target,1,14.33
9,172,numeric,0.1,0.05,competitor,target,1,15.362
9,173,perceptual,0.03,0.2,target,target,1,5.393
9,174,perceptual,0.1,0.2,competitor,target,1,6.995
9,175,numeric,0.1,0.05,target,target,1,7.682
9,176,perceptual,0.03,0.05,target,competitor,0,6.039
9,177,perceptual,0.03,0.2,competitor,competitor,0,5.954
9,178,numeric,0.1,0.2,target,target,1,7.824
9,179,perceptual,0.1,0.2,competitor,target,1,4.586
9,180,perceptual,0.1,0.05,competitor,target,1,5.112
9,181,numeric,0.03,0.05,target,target,1,8.544
9,182,perceptual,0.03,0.2,competitor,target,1,5.534
9,183,perceptual,0.1,0.05,target,decoy,0,7.48
9,184,numeric,0.1,0.2,target,target,1,9.027
9,185,numeric,0.03,0.2,target,target,1,12.388
9,186,numeric,0.1,0.2,competitor,target,1,11.613
9,187,numeric,0.1,0.2,competitor,target,1,9.135
9,188,numeric,0.03,0.2,target,competitor,0,14.331
9,189,numeric,0.03,0.05,target,target,1,12.006
9,190,numeric,0.1,0.05,competitor,target,1,13.426
9,191,numeric,0.03,0.05,target,target,1,7.586
9,192,numeric,0.03,0.05,target,target,1,7.198
10,1,perceptual,0.1,0.05,competitor,competitor,0,14.282
10,2,numeric,0.03,0.2,competitor,target,1,12.368
10,3,numeric,0.1,0.2,target,target,1,10.296
10,4,perceptual,0.1,0.2,competitor,decoy,0,7.109
10,5,perceptual,0.1,0.2,competitor,competitor,0,8.133
10,6,numeric,0.03,0.05,target,competitor,0,14.369
10,7,numeric,0.03,0.05,competitor,decoy,0,12.027
10,8,numeric,0.03,0.05,competitor,competitor,0,12.538
10,9,perceptual,0.1,0.2,competitor,decoy,0,9.388
10,10,numeric,0.03,0.05,target,competitor,0,9.268
10,11,perceptual,0.03,0.2,competitor,target,1,10.046
10,12,perceptual,0.1,0.2,target,decoy,0,9.711
10,13,numeric,0.03,0.05,competitor,target,1,7.706
10,14,numeric,0.1,0.2,target,competitor,0,10.773
10,15,numeric,0.03,0.05,competitor,target,1,7.757
10,17,numeric,0.03,0.05,target,target,1,7.29
10,18,perceptual,0.03,0.2,target,competitor,0,4.545
10,19,numeric,0.03,0.2,target,competitor,0,4.045
10,20,perceptual,0.03,0.2,competitor,decoy,0,4.977
10,21,numeric,0.03,0.2,competitor,competitor,0,6.828
10,22,numeric,0.1,0.05,competitor,target,1,6.75
10,23,perceptual,0.03,0.05,target,competitor,0,7.664
10,24,numeric,0.1,0.05,competitor,target,1,5.829
10,25,numeric,0.03,0.2,target,competitor,0,7.305
10,26,numeric,0.03,0.2,competitor,target,1,6.366
10,27,perceptual,0.03,0.05,competitor,target,1,6.946
10,28,numeric,0.1,0.05,competitor,competitor,0,6.696
10,29,perceptual,0.03,0.05,target,competitor,0,6.535
10,30,numeric,0.1,0.2,competitor,target,1,6.066
10,31,perceptual,0.1,0.2,target,competitor,0,5.618
10,32,perceptual,0.03,0.2,target,competitor,0,6.669
10,33,perceptual,0.03,0.2,target,target,1,3.625
10,34,perceptual,0.03,0.05,competitor,target,1,3.549
10,35,perceptual,0.03,0.2,competitor,target,1,5.327
10,36,perceptual,0.03,0.05,target,competitor,0,5.152
10,37,numeric,0.03,0.2,target,competitor,0,4.967
10,38,perceptual,0.1,0.05,competitor,decoy,0,5.103
10,39,numeric,0.1,0.05,target,target,1,5.187
10,40,numeric,0.1,0.05,competitor,competitor,0,4.801
10,41,numeric,0.1,0.2,target,competitor,0,7.532
10,42,perceptual,0.1,0.05,competitor,decoy,0,4.061
10,43,perceptual,0.1,0.2,competitor,target,1,5.194
10,44,perceptual,0.1,0.05,target,competitor,0,7.462
10,45,perceptual,0.1,0.05,competitor,decoy,0,5.678
10,46,perceptual,0.1,0.2,competitor,competitor,0,4.759
10,47,perceptual,0.03,0.05,target,competitor,0,4.262
10,48,numeric,0.1,0.05,competitor,target,1,8.537
10,49,perceptual,0.1,0.05,target,competitor,0,4.157
10,50,numeric,0.1,0.05,target,target,1,3.905
10,51,numeric,0.03,0.05,competitor,target,1,6.106
10,52,perceptual,0.1,0.05,competitor,competitor,0,5.356
10,53,perceptual,0.1,0.2,competitor,target,1,3.065
10,54,perceptual,0.1,0.05,competitor,target,1,7.335
10,55,perceptual,0.03,0.05,competitor,competitor,0,5.182
10,56,numeric,0.03,0.2,target,target,1,7.837
10,57,perceptual,0.1,0.2,target,decoy,0,4.528
10,58,perceptual,0.03,0.05,target,competitor,0,4.679
10,59,numeric,0.1,0.05,target,target,1,10.233
10,60,perceptual,0.03,0.2,target,decoy,0,6.298
10,61,numeric,0.03,0.2,target,competitor,0,8.314
10,62,perceptual,0.03,0.2,target,target,1,5.196
10,63,perceptual,0.03,0.05,competitor,target,1,5.348
10,64,perceptual,0.03,0.05,competitor,target,1,4.463
10,65,numeric,0.03,0.05,target,target,1,5.065
10,66,numeric,0.1,0.05,competitor,target,1,7.129
10,67,perceptual,0.03,0.05,target,target,1,4.907
10,68,numeric,0.03,0.05,target,target,1,7.867
10,69,numeric,0.03,0.2,competitor,competitor,0,4.999
10,70,perceptual,0.03,0.2,competitor,target,1,4.549
10,71,perceptual,0.03,0.05,target,competitor,0,5.48
10,72,perceptual,0.03,0.05,competitor,decoy,0,7.041
10,73,numeric,0.1,0.2,competitor,target,1,4.886
10,74,perceptual,0.1,0.05,target,decoy,0,4.149
10,75,numeric,0.1,0.2,competitor,competitor,0,5.968
10,76,numeric,0.03,0.2,competitor,target,1,4.502
10,77,perceptual,0.03,0.2,competitor,decoy,0,4.096
10,78,perceptual,0.1,0.2,competitor,competitor,0,5.216
10,79,perceptual,0.1,0.2,competitor,target,1,4.484
10,80,perceptual,0.1,0.05,target,target,1,3.762
10,81,numeric,0.1,0.2,competitor,target,1,4.436
10,82,numeric,0.1,0.2,competitor,target,1,4.002
10,83,perceptual,0.03,0.05,competitor,decoy,0,5.069
10,84,numeric,0.03,0.2,target,competitor,0,4.004
10,85,numeric,0.1,0.05,target,target,1,6.153
10,86,numeric,0.03,0.2,competitor,target,1,7.236
10,87,numeric,0.03,0.05,competitor,target,1,6.737
10,88,numeric,0.1,0.05,target,target,1,5.065
10,89,numeric,0.03,0.05,competitor,target,1,6.232
10,90,numeric,0.1,0.2,competitor,competitor,0,6.681
10,91,numeric,0.03,0.05,target,target,1,6.87
10,92,perceptual,0.1,0.2,target,competitor,0,3.634
10,93,perceptual,0.1,0.05,target,decoy,0,5.388
10,94,numeric,0.1,0.2,target,competitor,0,6.902
10,95,numeric,0.03,0.2,competitor,competitor,0,6.122
10,96,numeric,0.1,0.2,competitor,target,1,4.898
10,97,numeric,0.1,0.05,target,target,1,4.384
10,98,numeric,0.1,0.05,target,target,1,5.327
10,99,perceptual,0.1,0.05,target,decoy,0,4.768
10,100,numeric,0.03,0.05,competitor,target,1,4.853
10,101,numeric,0.1,0.05,competitor,competitor,0,7.364
10,102,perceptual,0.1,0.2,target,competitor,0,4.415
10,103,perceptual,0.1,0.2,target,competitor,0,5.736
10,104,numeric,0.1,0.2,competitor,competitor,0,5.48
10,105,perceptual,0.03,0.05,competitor,target,1,3.112
10,106,numeric,0.03,0.2,target,target,1,6.146
10,107,perceptual,0.03,0.2,competitor,competitor,0,7.299
10,108,perceptual,0.03,0.2,competitor,target,1,6.318
10,109,perceptual,0.03,0.05,competitor,target,1,4.114
10,110,numeric,0.1,0.2,target,competitor,0,4.464
10,111,perceptual,0.03,0.2,competitor,competitor,0,4.479
10,112,numeric,0.1,0.2,competitor,target,1,4.842
10,113,perceptual,0.03,0.05,target,competitor,0,4.749
10,114,perceptual,0.1,0.05,competitor,competitor,0,2.735
10,115,numeric,0.1,0.2,target,target,1,4.431
10,116,numeric,0.1,0.05,competitor,target,1,5.812
10,117,numeric,0.1,0.05,target,target,1,6.668
10,118,numeric,0.1,0.2,target,target,1,7.813
10,119,numeric,0.03,0.2,competitor,target,1,6.851
10,120,numeric,0.03,0.2,competitor,target,1,9.685
10,121,numeric,0.1,0.05,competitor,target,1,5.516
10,122,perceptual,0.1,0.05,target,decoy,0,3.347
10,123,numeric,0.1,0.05,competitor,target,1,5.433
10,124,perceptual,0.03,0.05,target,target,1,4.116
10,125,perceptual,0.1,0.2,target,competitor,0,4.314
10,126,perceptual,0.1,0.2,competitor,target,1,3.318
10,127,perceptual,0.03,0.2,target,competitor,0,4.013
10,128,perceptual,0.1,0.05,competitor,target,1,5.203
10,129,perceptual,0.1,0.05,target,competitor,0,4.541
10,130,numeric,0.03,0.2,competitor,competitor,0,3.903
10,131,perceptual,0.03,0.2,competitor,target,1,4.063
10,132,numeric,0.1,0.05,target,competitor,0,4.147
10,133,perceptual,0.1,0.05,competitor,target,1,3.803
10,134,numeric,0.1,0.2,competitor,target,1,5.316
10,135,numeric,0.03,0.2,target,competitor,0,3.81
10,136,numeric,0.03,0.05,target,target,1,6.232
10,137,perceptual,0.1,0.2,target,competitor,0,3.1
10,138,perceptual,0.1,0.2,competitor,decoy,0,4.43
10,139,perceptual,0.03,0.2,target,competitor,0,3.044
10,140,numeric,0.1,0.2,competitor,competitor,0,4.258
10,141,perceptual,0.03,0.2,competitor,decoy,0,3.722
10,142,numeric,0.1,0.2,target,target,1,6.154
10,143,perceptual,0.03,0.2,target,decoy,0,4.064
10,144,numeric,0.03,0.05,target,target,1,7.732
10,145,numeric,0.03,0.2,target,target,1,4.621
10,146,numeric,0.03,0.05,target,target,1,5.447
10,147,perceptual,0.1,0.05,target,competitor,0,3.51
10,148,numeric,0.03,0.2,target,target,1,4.436
10,149,numeric,0.03,0.05,competitor,target,1,5.305
10,150,perceptual,0.1,0.05,competitor,target,1,3.23
10,151,perceptual,0.1,0.2,target,decoy,0,4.349
10,152,perceptual,0.03,0.2,target,competitor,0,3.8
10,153,numeric,0.03,0.05,target,target,1,3.963
10,154,perceptual,0.03,0.2,target,target,1,4.212
10,155,numeric,0.03,0.05,competitor,target,1,9.312
10,156,numeric,0.03,0.2,target,competitor,0,4.812
10,157,numeric,0.1,0.2,target,target,1,5.068
10,158,perceptual,0.03,0.05,target,decoy,0,4.587
10,159,perceptual,0.1,0.2,target,competitor,0,3.956
10,160,numeric,0.1,0.05,competitor,target,1,5.263
10,161,numeric,0.1,0.05,competitor,target,1,4.139
10,162,perceptual,0.03,0.2,target,competitor,0,3.455
10,163,numeric,0.1,0.05,target,target,1,4.633
10,164,numeric,0.03,0.2,competitor,target,1,4.464
10,165,perceptual,0.1,0.2,competitor,competitor,0,4.866
10,166,perceptual,0.1,0.05,target,target,1,5.867
10,167,perceptual,0.03,0.2,competitor,target,1,3.116
10,168,numeric,0.1,0.2,target,competitor,0,3.702
10,169,perceptual,0.03,0.2,competitor,target,1,0.08
10,170,perceptual,0.1,0.2,competitor,target,1,0.705
10,171,perceptual,0.1,0.2,target,decoy,0,5.03
10,172,numeric,0.1,0.2,target,competitor,0,3.282
10,173,perceptual,0.1,0.05,target,competitor,0,3.697
10,174,numeric,0.03,0.05,competitor,competitor,0,4.56
10,175,perceptual,0.1,0.05,target,decoy,0,3.913
10,176,perceptual,0.03,0.2,target,decoy,0,4.855
10,177,numeric,0.1,0.05,target,competitor,0,3.837
10,178,perceptual,0.1,0.2,target,competitor,0,3.189
10,179,numeric,0.03,0.05,target,target,1,5.137
10,180,numeric,0.1,0.2,competitor,target,1,6.148
10,181,numeric,0.1,0.2,target,target,1,6.148
10,182,perceptual,0.1,0.05,competitor,target,1,5.479
10,183,perceptual,0.03,0.05,target,competitor,0,3.536
10,184,numeric,0.1,0.05,target,target,1,6.899
10,185,perceptual,0.03,0.05,competitor,competitor,0,3.696
10,186,perceptual,0.03,0.05,target,decoy,0,4.218
10,187,perceptual,0.03,0.05,competitor,target,1,4.913
10,188,perceptual,0.03,0.05,competitor,target,1,3.264
10,189,numeric,0.03,0.2,competitor,target,1,8.529
10,190,numeric,0.03,0.05,competitor,target,1,4.636
10,191,numeric,0.03,0.05,target,target,1,5.653
10,192,perceptual,0.1,0.05,competitor,decoy,0,3.44
11,1,perceptual,0.03,0.05,target,target,1,11.018
11,2,perceptual,0.1,0.05,target,target,1,14.282
11,3,perceptual,0.1,0.2,competitor,target,1,5.14
11,4,perceptual,0.1,0.2,target,target,1,4.322
11,5,perceptual,0.03,0.2,target,target,1,5.35
11,6,perceptual,0.03,0.05,target,decoy,0,7.697
11,7,numeric,0.03,0.2,target,target,1,9.403
11,8,perceptual,0.03,0.2,target,competitor,0,3.471
11,9,numeric,0.1,0.05,competitor,decoy,0,14.1
11,10,perceptual,0.1,0.2,competitor,competitor,0,3.243
11,11,perceptual,0.1,0.05,target,target,1,6.597
11,12,numeric,0.03,0.05,target,target,1,9.525
11,13,perceptual,0.1,0.05,target,target,1,3.134
11,14,perceptual,0.1,0.05,target,target,1,2.411
11,15,perceptual,0.03,0.2,competitor,target,1,2.281
11,16,perceptual,0.1,0.05,competitor,target,1,2.873
11,17,numeric,0.1,0.05,target,target,1,3.946
11,18,perceptual,0.03,0.05,competitor,target,1,5.753
11,19,perceptual,0.03,0.2,target,target,1,5.66
11,20,numeric,0.03,0.2,competitor,target,1,4.088
11,21,numeric,0.1,0.05,competitor,target,1,4.126
11,22,perceptual,0.1,0.2,target,competitor,0,3.346
11,23,numeric,0.03,0.05,competitor,target,1,11.059
11,24,numeric,0.1,0.05,target,target,1,3.019
11,25,perceptual,0.1,0.05,target,target,1,3.6
11,26,numeric,0.1,0.2,target,target,1,2.209
11,27,perceptual,0.03,0.2,competitor,target,1,2.258
11,28,numeric,0.03,0.2,competitor,target,1,2.853
11,29,numeric,0.1,0.05,target,target,1,2.128
11,30,numeric,0.1,0.05,target,target,1,2.817
11,31,numeric,0.03,0.05,target,target,1,2.931
11,32,numeric,0.03,0.05,target,decoy,0,3.006
11,33,numeric,0.03,0.2,target,target,1,10.332
11,34,numeric,0.1,0.05,competitor,target,1,3.413
11,35,perceptual,0.03,0.05,competitor,decoy,0,6.355
11,36,numeric,0.03,0.2,competitor,target,1,3.915
11,37,perceptual,0.03,0.2,target,competitor,0,2.971
11,38,numeric,0.1,0.2,target,competitor,0,2.382
11,39,numeric,0.03,0.2,target,target,1,4.474
11,40,numeric,0.03,0.05,competitor,target,1,2.601
11,41,perceptual,0.03,0.2,competitor,competitor,0,2.036
11,42,numeric,0.03,0.2,competitor,target,1,9.216
11,43,numeric,0.1,0.2,competitor,competitor,0,2.91
11,44,perceptual,0.03,0.05,competitor,competitor,0,4.257
11,45,perceptual,0.03,0.05,competitor,target,1,2.95
11,46,numeric,0.1,0.2,target,competitor,0,5.561
11,47,numeric,0.1,0.2,competitor,target,1,3.428
11,48,perceptual,0.1,0.2,competitor,target,1,5.796
11,49,numeric,0.03,0.05,competitor,target,1,11.484
11,50,numeric,0.03,0.2,target,competitor,0,11.974
11,51,perceptual,0.03,0.2,competitor,target,1,6.774
11,52,perceptual,0.03,0.05,competitor,target,1,2.94
11,53,numeric,0.1,0.2,target,target,1,5.046
11,54,perceptual,0.1,0.2,competitor,competitor,0,3.502
11,55,numeric,0.03,0.05,target,target,1,7.591
11,56,numeric,0.1,0.2,competitor,target,1,9.712
11,57,perceptual,0.1,0.2,target,decoy,0,4.504
11,58,numeric,0.1,0.05,competitor,target,1,11.747
11,59,perceptual,0.1,0.05,competitor,target,1,5.919
11,60,perceptual,0.1,0.05,competitor,target,1,2.924
11,61,perceptual,0.03,0.2,competitor,competitor,0,4.633
11,62,numeric,0.03,0.2,target,competitor,0,4.36
11,63,numeric,0.1,0.2,competitor,target,1,3.98
11,64,numeric,0.1,0.2,target,decoy,0,3.124
11,65,perceptual,0.1,0.05,target,decoy,0,2.547
11,66,numeric,0.03,0.05,target,competitor,0,2.893
11,67,perceptual,0.03,0.05,competitor,target,1,3.541
11,68,numeric,0.03,0.05,competitor,target,1,2.962
11,69,numeric,0.03,0.2,target,target,1,6.541
11,70,numeric,0.1,0.2,competitor,target,1,4.032
11,71,numeric,0.03,0.2,competitor,target,1,3.946
11,72,numeric,0.1,0.05,competitor,competitor,0,3.103
11,73,numeric,0.03,0.05,competitor,target,1,2.297
11,74,numeric,0.03,0.05,competitor,competitor,0,3.064
11,75,perceptual,0.1,0.05,competitor,target,1,3.88
11,76,numeric,0.03,0.2,competitor,target,1,2.951
11,77,perceptual,0.1,0.05,target,decoy,0,2.57
11,78,perceptual,0.03,0.2,competitor,competitor,0,4.264
11,79,perceptual,0.1,0.05,competitor,target,1,9.223
11,80,perceptual,0.1,0.05,competitor,target,1,2.046
11,81,perceptual,0.1,0.2,competitor,decoy,0,3.007
11,82,numeric,0.03,0.05,competitor,target,1,5.495
11,83,perceptual,0.1,0.2,competitor,target,1,4.303
11,84,perceptual,0.1,0.2,target,target,1,2.444
11,89,perceptual,0.1,0.2,target,competitor,0,3.283
11,90,perceptual,0.1,0.05,competitor,target,1,2.802
11,91,perceptual,0.1,0.05,target,target,1,6.932
11,92,perceptual,0.03,0.05,target,decoy,0,14.285
11,93,perceptual,0.1,0.2,competitor,decoy,0,2.572
11,94,numeric,0.1,0.05,competitor,target,1,2.67
11,95,perceptual,0.1,0.05,competitor,decoy,0,3.089
11,96,numeric,0.03,0.2,competitor,competitor,0,3.068
11,97,numeric,0.03,0.2,competitor,target,1,3.14
11,98,numeric,0.1,0.2,target,target,1,3.527
11,99,perceptual,0.03,0.2,target,competitor,0,4.729
11,100,perceptual,0.1,0.2,competitor,target,1,8.864
11,101,numeric,0.1,0.05,target,competitor,0,4.798
11,102,perceptual,0.03,0.2,target,competitor,0,3.496
11,103,numeric,0.1,0.05,target,target,1,7.454
11,104,numeric,0.1,0.05,target,target,1,6.078
11,105,perceptual,0.03,0.2,target,target,1,4.126
11,106,numeric,0.1,0.2,target,target,1,3.615
11,107,numeric,0.1,0.05,competitor,target,1,4.285
11,108,perceptual,0.1,0.05,competitor,competitor,0,3.952
11,109,numeric,0.03,0.2,target,competitor,0,3.939
11,110,numeric,0.1,0.2,target,target,1,3.755
11,111,numeric,0.03,0.2,competitor,target,1,3.508
11,112,numeric,0.1,0.05,competitor,competitor,0,3.659
11,113,perceptual,0.03,0.2,target,target,1,3.854
11,114,perceptual,0.1,0.2,target,competitor,0,3.67
11,115,numeric,0.1,0.05,target,competitor,0,3.731
11,116,perceptual,0.03,0.2,competitor,target,1,3.296
11,117,numeric,0.1,0.2,target,target,1,3.146
11,118,numeric,0.03,0.05,competitor,target,1,7.668
11,119,numeric,0.03,0.2,target,competitor,0,5.151
11,120,perceptual,0.1,0.05,target,target,1,3.497
11,121,numeric,0.1,0.2,target,target,1,4.804
11,122,numeric,0.1,0.05,competitor,target,1,14.581
11,123,perceptual,0.03,0.2,target,target,1,3.841
11,124,numeric,0.1,0.2,competitor,target,1,4.508
11,125,perceptual,0.03,0.05,competitor,target,1,3.538
11,126,perceptual,0.03,0.2,competitor,competitor,0,2.547
11,127,numeric,0.03,0.05,competitor,target,1,2.429
11,128,perceptual,0.03,0.05,target,decoy,0,5.112
11,129,perceptual,0.1,0.05,competitor,target,1,2.807
