participant,trial_counter,condition,target_to_competitor,decoy_reduction,decoy_on,chosen_item,correct,rt
1,1,numeric,0.1,0.05,target,decoy,0,17.251
1,2,numeric,0.1,0.2,target,target,1,10.023
1,3,perceptual,0.1,0.05,target,target,1,5.688
1,4,perceptual,0.1,0.05,target,target,1,8.87
1,5,numeric,0.1,0.2,target,competitor,0,8.052
1,6,numeric,0.03,0.2,competitor,target,1,12.814
1,7,numeric,0.1,0.2,competitor,target,1,6.044
1,8,numeric,0.03,0.2,competitor,decoy,0,9.863
1,9,perceptual,0.03,0.2,target,competitor,0,7.2
1,10,perceptual,0.1,0.05,competitor,target,1,5.344
1,11,numeric,0.03,0.05,competitor,target,1,12.064
1,12,perceptual,0.1,0.2,competitor,target,1,6.336
1,13,perceptual,0.1,0.2,competitor,competitor,0,4.116
1,14,numeric,0.03,0.05,target,decoy,0,9.206
1,15,numeric,0.1,0.05,competitor,target,1,8.693
1,16,numeric,0.03,0.05,target,target,1,7.244
1,17,numeric,0.03,0.05,competitor,target,1,3.152
1,18,numeric,0.03,0.05,target,competitor,0,1.558
1,19,perceptual,0.03,0.2,target,target,1,1.604
1,20,numeric,0.03,0.2,target,competitor,0,4.27
1,21,perceptual,0.03,0.05,competitor,decoy,0,3.862
1,22,perceptual,0.1,0.2,target,competitor,0,4.092
1,23,perceptual,0.1,0.2,target,target,1,4.556
1,24,numeric,0.1,0.05,target,decoy,0,7.326
1,25,perceptual,0.1,0.05,target,target,1,3.958
1,26,numeric,0.03,0.05,competitor,competitor,0,4.537
1,27,numeric,0.03,0.2,target,target,1,3.433
1,28,numeric,0.1,0.2,competitor,target,1,4.168
1,29,numeric,0.03,0.05,target,competitor,0,5.453
1,30,perceptual,0.03,0.05,target,target,1,4.462
1,31,perceptual,0.1,0.2,competitor,target,1,3.661
1,32,numeric,0.03,0.2,competitor,target,1,2.457
1,33,perceptual,0.03,0.2,competitor,decoy,0,2.313
1,34,perceptual,0.1,0.2,target,target,1,3.334
1,35,perceptual,0.03,0.2,target,competitor,0,3.409
1,36,perceptual,0.1,0.2,competitor,competitor,0,2.276
1,37,perceptual,0.03,0.05,target,decoy,0,3.401
1,38,numeric,0.1,0.05,competitor,competitor,0,3.035
1,39,perceptual,0.1,0.2,competitor,competitor,0,3.687
1,40,numeric,0.1,0.2,competitor,target,1,4.397
1,41,numeric,0.03,0.2,competitor,target,1,3.754
1,42,numeric,0.1,0.05,competitor,decoy,0,2.312
1,43,perceptual,0.03,0.2,target,competitor,0,2.393
1,44,perceptual,0.03,0.05,competitor,target,1,2.188
1,45,numeric,0.03,0.05,target,target,1,3.721
1,46,numeric,0.1,0.2,competitor,target,1,2.253
1,47,perceptual,0.1,0.2,competitor,target,1,2.322
1,48,numeric,0.03,0.05,competitor,target,1,2.308
1,49,numeric,0.03,0.05,competitor,decoy,0,3.176
1,50,perceptual,0.1,0.05,competitor,competitor,0,4.389
1,51,numeric,0.1,0.2,competitor,competitor,0,2.902
1,52,perceptual,0.1,0.2,target,target,1,2.597
1,53,numeric,0.03,0.2,target,competitor,0,3.107
1,54,numeric,0.1,0.2,target,competitor,0,2.589
1,55,numeric,0.03,0.2,competitor,decoy,0,2.291
1,56,numeric,0.1,0.05,target,decoy,0,3.074
1,57,perceptual,0.1,0.05,competitor,target,1,2.313
1,58,perceptual,0.03,0.05,competitor,target,1,3.036
1,59,perceptual,0.03,0.05,target,target,1,3.241
1,60,perceptual,0.03,0.05,target,decoy,0,3.036
1,61,numeric,0.03,0.2,competitor,competitor,0,2.104
1,62,numeric,0.1,0.05,competitor,target,1,4.929
1,63,numeric,0.03,0.05,target,target,1,2.077
1,64,numeric,0.1,0.05,competitor,target,1,3.398
1,65,perceptual,0.03,0.05,target,decoy,0,2.173
1,66,perceptual,0.03,0.2,target,competitor,0,2.607
1,67,perceptual,0.1,0.05,target,decoy,0,2.042
1,68,perceptual,0.03,0.05,competitor,competitor,0,2.195
1,69,perceptual,0.1,0.05,competitor,target,1,1.972
1,70,numeric,0.03,0.2,target,competitor,0,2.04
1,71,perceptual,0.1,0.2,competitor,competitor,0,2.98
1,72,perceptual,0.1,0.2,target,competitor,0,1.969
1,73,numeric,0.03,0.2,target,target,1,2.809
1,74,perceptual,0.1,0.05,target,target,1,2.163
1,75,numeric,0.1,0.2,competitor,competitor,0,2.507
1,76,numeric,0.03,0.2,target,decoy,0,2.016
1,77,numeric,0.03,0.2,competitor,target,1,1.977
1,78,perceptual,0.03,0.05,target,target,1,2.401
1,79,perceptual,0.03,0.2,target,target,1,2.114
1,80,numeric,0.1,0.05,target,decoy,0,1.906
1,81,perceptual,0.1,0.2,target,competitor,0,2.233
1,82,numeric,0.1,0.2,competitor,competitor,0,2.188
1,83,numeric,0.1,0.05,target,competitor,0,2.881
1,84,numeric,0.03,0.2,competitor,competitor,0,2.729
1,85,numeric,0.1,0.2,competitor,competitor,0,3.425
1,86,numeric,0.03,0.2,competitor,target,1,2.902
1,87,perceptual,0.1,0.05,target,target,1,6.455
1,88,perceptual,0.03,0.2,target,decoy,0,7.061
1,89,perceptual,0.1,0.05,competitor,target,1,3.902
1,90,numeric,0.03,0.05,competitor,competitor,0,2.609
1,91,numeric,0.03,0.2,target,target,1,3.863
1,92,numeric,0.03,0.2,target,target,1,3.568
1,93,perceptual,0.03,0.05,target,target,1,2.599
1,94,numeric,0.1,0.05,target,competitor,0,3.415
1,95,perceptual,0.03,0.2,competitor,decoy,0,2.018
1,96,numeric,0.1,0.05,target,decoy,0,2.195
1,97,perceptual,0.1,0.05,target,competitor,0,2.658
1,98,numeric,0.03,0.05,target,decoy,0,2.879
1,99,numeric,0.03,0.2,target,target,1,2.557
1,100,perceptual,0.1,0.2,target,competitor,0,2.685
1,101,perceptual,0.03,0.2,target,target,1,2.204
1,102,perceptual,0.1,0.2,target,target,1,5.649
1,103,perceptual,0.03,0.2,target,target,1,3.293
1,104,perceptual,0.03,0.05,competitor,target,1,7.047
1,105,numeric,0.1,0.2,target,competitor,0,4.251
1,106,perceptual,0.1,0.05,competitor,target,1,3.453
1,107,perceptual,0.03,0.2,competitor,competitor,0,3.936
1,108,numeric,0.03,0.05,competitor,target,1,2.216
1,109,numeric,0.1,0.2,competitor,target,1,2.077
1,110,perceptual,0.1,0.05,target,target,1,2.341
1,111,numeric,0.1,0.2,competitor,target,1,2.495
1,112,numeric,0.1,0.05,competitor,decoy,0,2.296
1,113,perceptual,0.03,0.05,competitor,competitor,0,2.02
1,114,perceptual,0.1,0.2,competitor,competitor,0,3.668
1,115,numeric,0.1,0.05,target,target,1,2.274
1,116,numeric,0.03,0.05,competitor,target,1,2.469
1,117,perceptual,0.1,0.05,target,decoy,0,2.151
1,118,perceptual,0.03,0.2,competitor,target,1,3.5
1,119,perceptual,0.1,0.05,competitor,target,1,7.563
1,120,perceptual,0.1,0.2,competitor,target,1,5.402
1,121,numeric,0.03,0.2,target,competitor,0,3.412
1,122,numeric,0.03,0.05,competitor,target,1,6.312
1,123,numeric,0.1,0.05,target,decoy,0,2.815
1,124,numeric,0.03,0.05,competitor,decoy,0,2.541
1,125,numeric,0.03,0.2,target,target,1,3.913
1,126,perceptual,0.03,0.05,competitor,target,1,2.98
1,127,numeric,0.03,0.05,target,target,1,2.832
1,128,numeric,0.1,0.2,target,target,1,4.061
1,129,numeric,0.03,0.05,target,target,1,2.617
1,130,numeric,0.1,0.05,target,decoy,0,3.31
1,131,perceptual,0.03,0.2,competitor,target,1,2.791
1,132,perceptual,0.03,0.05,target,decoy,0,3.971
1,133,perceptual,0.1,0.05,competitor,target,1,4.429
1,134,numeric,0.1,0.2,target,target,1,3.051
1,135,perceptual,0.1,0.05,target,decoy,0,2.996
1,136,numeric,0.03,0.2,competitor,target,1,2.297
1,137,perceptual,0.03,0.2,competitor,target,1,2.075
1,138,perceptual,0.1,0.05,competitor,target,1,2.776
1,139,perceptual,0.1,0.05,competitor,target,1,2.141
1,140,numeric,0.1,0.2,target,target,1,2.819
1,141,perceptual,0.1,0.05,competitor,target,1,3.451
1,142,numeric,0.1,0.2,target,target,1,3.639
1,143,perceptual,0.1,0.05,target,target,1,3.906
1,144,numeric,0.1,0.05,target,target,1,3.271
1,145,perceptual,0.03,0.05,competitor,target,1,3.78
1,146,numeric,0.1,0.2,competitor,target,1,2.391
1,147,numeric,0.03,0.05,competitor,target,1,3.394
1,148,perceptual,0.1,0.2,competitor,target,1,6.015
1,149,numeric,0.1,0.2,competitor,target,1,6.821
1,150,perceptual,0.03,0.2,competitor,competitor,0,5.44
1,151,numeric,0.1,0.05,competitor,target,1,5.687
1,152,numeric,0.03,0.2,target,target,1,4.307
1,153,numeric,0.03,0.2,competitor,target,1,4.104
1,154,perceptual,0.03,0.2,competitor,competitor,0,8.394
1,155,numeric,0.1,0.2,target,target,1,5.194
1,156,numeric,0.1,0.05,competitor,competitor,0,3.532
1,157,numeric,0.03,0.05,competitor,target,1,5.11
1,158,numeric,0.03,0.2,competitor,target,1,4.515
1,159,perceptual,0.1,0.2,target,target,1,4.158
1,160,perceptual,0.03,0.2,competitor,target,1,5.195
1,161,perceptual,0.1,0.05,target,target,1,2.692
1,162,numeric,0.1,0.2,target,target,1,3.764
1,163,perceptual,0.03,0.05,target,target,1,3.164
1,164,perceptual,0.03,0.2,competitor,competitor,0,3.381
1,165,numeric,0.03,0.05,target,competitor,0,3.639
1,166,perceptual,0.03,0.05,competitor,target,1,5.47
1,167,numeric,0.1,0.2,target,target,1,4.338
1,168,perceptual,0.03,0.2,competitor,target,1,8.166
1,169,numeric,0.1,0.05,competitor,target,1,5.472
1,170,perceptual,0.03,0.05,target,target,1,7.451
1,171,perceptual,0.1,0.2,target,decoy,0,5.004
1,172,perceptual,0.03,0.2,target,target,1,5.368
1,173,perceptual,0.03,0.05,target,target,1,4.69
1,174,numeric,0.1,0.2,target,competitor,0,6.825
1,175,perceptual,0.03,0.2,competitor,target,1,4.744
1,176,perceptual,0.1,0.2,target,competitor,0,4.73
1,177,perceptual,0.1,0.2,competitor,target,1,5.266
1,178,numeric,0.1,0.05,competitor,target,1,4.712
1,179,perceptual,0.03,0.05,competitor,competitor,0,5.012
1,180,perceptual,0.03,0.2,target,target,1,4.197
1,181,numeric,0.1,0.05,target,target,1,3.141
1,182,perceptual,0.1,0.2,target,target,1,3.333
1,183,perceptual,0.03,0.2,target,target,1,4.101
1,184,numeric,0.03,0.05,target,decoy,0,6.241
1,185,numeric,0.1,0.05,competitor,competitor,0,2.643
1,186,perceptual,0.03,0.05,competitor,target,1,2.762
1,187,perceptual,0.03,0.05,target,decoy,0,5.65
1,188,perceptual,0.1,0.05,competitor,target,1,4.257
1,189,numeric,0.1,0.05,competitor,target,1,4.78
1,190,numeric,0.03,0.05,target,decoy,0,6.374
1,191,perceptual,0.03,0.05,competitor,competitor,0,6.383
1,192,perceptual,0.1,0.2,competitor,target,1,5.096
2,1,perceptual,0.1,0.05,competitor,competitor,0,8.192
2,2,numeric,0.03,0.2,target,target,1,7.961
2,3,perceptual,0.1,0.05,target,decoy,0,4.555
2,4,perceptual,0.03,0.05,target,target,1,6.876
2,5,perceptual,0.1,0.05,target,target,1,4.967
2,6,perceptual,0.03,0.05,competitor,decoy,0,4.981
2,7,numeric,0.1,0.2,competitor,competitor,0,9.484
2,8,perceptual,0.03,0.05,competitor,target,1,6.649
2,9,perceptual,0.1,0.2,target,target,1,3.687
2,10,perceptual,0.1,0.2,target,target,1,5.258
2,11,perceptual,0.1,0.05,target,decoy,0,5.081
2,12,perceptual,0.1,0.05,competitor,decoy,0,4.074
2,13,perceptual,0.1,0.2,target,competitor,0,4.509
2,14,numeric,0.03,0.05,target,target,1,8.826
2,15,perceptual,0.03,0.05,target,decoy,0,6.653
2,16,numeric,0.1,0.2,target,target,1,6.523
2,17,perceptual,0.1,0.05,target,decoy,0,4.135
2,18,numeric,0.03,0.05,competitor,competitor,0,10.007
2,19,perceptual,0.03,0.05,competitor,target,1,7.846
2,20,perceptual,0.1,0.05,target,target,1,7.36
2,21,perceptual,0.1,0.05,target,competitor,0,5.031
2,22,numeric,0.1,0.2,competitor,target,1,8.544
2,23,perceptual,0.1,0.2,target,target,1,4.52
2,24,perceptual,0.1,0.2,target,competitor,0,5.189
2,25,numeric,0.03,0.05,competitor,competitor,0,17.614
2,26,perceptual,0.03,0.05,competitor,target,1,7.33
2,27,perceptual,0.03,0.05,target,target,1,3.945
2,28,numeric,0.1,0.2,competitor,target,1,10.477
2,29,perceptual,0.1,0.05,target,target,1,4.862
2,30,numeric,0.1,0.2,competitor,target,1,7.451
2,31,numeric,0.03,0.05,competitor,target,1,7.762
2,32,numeric,0.03,0.2,target,competitor,0,10.778
2,33,numeric,0.1,0.05,competitor,target,1,7.46
2,34,perceptual,0.1,0.2,competitor,competitor,0,6.502
2,35,numeric,0.03,0.05,target,target,1,7.526
2,36,numeric,0.1,0.05,target,target,1,13.18
2,37,perceptual,0.03,0.2,competitor,competitor,0,8.888
2,38,perceptual,0.1,0.2,competitor,competitor,0,5.996
2,39,numeric,0.03,0.2,competitor,target,1,12.153
2,40,perceptual,0.03,0.05,target,decoy,0,3.689
2,41,perceptual,0.1,0.05,competitor,decoy,0,6.961
2,42,numeric,0.1,0.2,target,target,1,6.062
2,43,perceptual,0.03,0.05,competitor,competitor,0,4.309
2,44,numeric,0.1,0.05,competitor,target,1,8.154
2,45,numeric,0.1,0.05,target,target,1,9.817
2,46,numeric,0.03,0.05,target,competitor,0,14.11
2,47,perceptual,0.03,0.05,competitor,target,1,4.362
2,48,numeric,0.03,0.2,competitor,competitor,0,9.931
2,49,perceptual,0.1,0.2,target,competitor,0,6.757
2,50,perceptual,0.03,0.2,competitor,target,1,4.935
2,51,numeric,0.1,0.05,competitor,target,1,7.912
2,52,numeric,0.03,0.2,competitor,competitor,0,14.655
2,53,numeric,0.03,0.2,target,target,1,6.374
2,54,perceptual,0.03,0.2,competitor,competitor,0,4.312
2,55,numeric,0.03,0.2,competitor,target,1,11.392
2,56,numeric,0.03,0.05,competitor,competitor,0,7.001
2,57,numeric,0.1,0.05,target,target,1,17.241
2,58,perceptual,0.1,0.05,target,competitor,0,5.96
2,59,perceptual,0.1,0.2,competitor,target,1,3.586
2,60,numeric,0.1,0.2,target,target,1,17.518
2,61,perceptual,0.03,0.05,competitor,target,1,5.04
2,62,numeric,0.03,0.2,target,target,1,12.144
2,63,perceptual,0.03,0.05,target,competitor,0,6.103
2,64,perceptual,0.03,0.2,competitor,target,1,4.373
2,65,perceptual,0.03,0.05,target,decoy,0,4.587
2,66,perceptual,0.1,0.05,target,decoy,0,3.751
2,67,numeric,0.03,0.05,competitor,target,1,4.639
2,68,perceptual,0.1,0.2,target,competitor,0,3.725
2,69,numeric,0.03,0.05,competitor,target,1,13.446
2,70,numeric,0.1,0.2,target,target,1,7.416
2,71,numeric,0.1,0.05,competitor,competitor,0,11.24
2,72,perceptual,0.03,0.2,target,competitor,0,4.512
2,73,numeric,0.03,0.2,competitor,target,1,6.856
2,74,perceptual,0.1,0.2,competitor,target,1,7.22
2,75,perceptual,0.1,0.2,target,target,1,4.634
2,76,perceptual,0.03,0.2,target,target,1,3.286
2,77,perceptual,0.1,0.2,competitor,competitor,0,6.495
2,78,numeric,0.03,0.2,target,competitor,0,5.353
2,79,perceptual,0.03,0.2,target,target,1,16.503
2,80,numeric,0.03,0.05,target,target,1,10.699
2,81,perceptual,0.1,0.2,target,competitor,0,4.114
2,82,perceptual,0.1,0.2,target,competitor,0,6.592
2,83,numeric,0.1,0.05,competitor,competitor,0,9.291
2,84,perceptual,0.03,0.2,target,decoy,0,6.538
2,85,perceptual,0.1,0.05,competitor,decoy,0,6.015
2,86,numeric,0.03,0.2,competitor,target,1,10.175
2,87,numeric,0.03,0.2,target,target,1,8.181
2,88,perceptual,0.1,0.2,competitor,target,1,5.461
2,89,numeric,0.1,0.05,target,target,1,6.606
2,90,numeric,0.1,0.2,competitor,target,1,11.908
2,91,numeric,0.03,0.05,competitor,competitor,0,8.703
2,92,perceptual,0.03,0.05,target,competitor,0,4.542
2,93,numeric,0.03,0.2,target,target,1,6.27
2,94,numeric,0.1,0.2,target,target,1,14.2
2,95,numeric,0.1,0.05,competitor,target,1,6.757
2,96,numeric,0.1,0.05,target,target,1,6.357
2,97,perceptual,0.03,0.05,competitor,competitor,0,6.727
2,98,numeric,0.03,0.05,target,target,1,7.225
2,99,numeric,0.03,0.2,competitor,competitor,0,5.664
2,100,numeric,0.1,0.05,target,target,1,14.498
2,101,numeric,0.03,0.05,target,target,1,7.369
2,102,perceptual,0.03,0.2,target,target,1,4.019
2,103,perceptual,0.03,0.2,competitor,competitor,0,5.04
2,104,numeric,0.1,0.05,target,target,1,6.426
2,105,perceptual,0.03,0.2,target,competitor,0,3.889
2,106,numeric,0.03,0.05,competitor,competitor,0,9.921
2,107,numeric,0.1,0.2,target,target,1,10.93
2,108,perceptual,0.1,0.05,competitor,decoy,0,5.238
2,109,perceptual,0.03,0.05,target,decoy,0,5.791
2,110,perceptual,0.1,0.2,competitor,decoy,0,5.524
2,111,numeric,0.03,0.2,target,target,1,7.869
2,112,numeric,0.03,0.2,competitor,target,1,6.524
2,113,perceptual,0.1,0.05,competitor,target,1,9.53
2,114,perceptual,0.1,0.2,competitor,decoy,0,6.169
2,115,numeric,0.03,0.05,target,target,1,6.44
2,116,perceptual,0.03,0.05,competitor,target,1,6.574
2,117,numeric,0.03,0.2,competitor,competitor,0,11.061
2,118,perceptual,0.03,0.2,target,competitor,0,3.488
2,119,numeric,0.1,0.2,target,target,1,10.502
2,120,numeric,0.1,0.05,competitor,target,1,8.048
2,121,numeric,0.1,0.2,competitor,competitor,0,14.122
2,122,numeric,0.1,0.05,competitor,target,1,6.53
2,123,numeric,0.1,0.2,competitor,competitor,0,10.139
2,124,perceptual,0.1,0.2,target,competitor,0,4.534
2,125,perceptual,0.1,0.2,competitor,competitor,0,3.968
2,126,numeric,0.03,0.2,target,competitor,0,6.16
2,127,numeric,0.1,0.2,competitor,target,1,7.9
2,128,numeric,0.03,0.05,competitor,target,1,7.175
2,129,numeric,0.03,0.2,target,target,1,5.594
2,130,perceptual,0.03,0.2,target,decoy,0,4.36
2,131,numeric,0.03,0.05,competitor,competitor,0,6.33
2,132,numeric,0.03,0.2,target,target,1,10.689
2,133,numeric,0.03,0.05,target,target,1,9.749
2,134,numeric,0.1,0.05,competitor,competitor,0,10.317
2,135,perceptual,0.03,0.05,competitor,target,1,3.562
2,136,perceptual,0.03,0.05,competitor,competitor,0,4.433
2,137,numeric,0.1,0.05,target,target,1,10.26
2,138,numeric,0.1,0.05,target,target,1,10.307
2,139,numeric,0.03,0.2,competitor,competitor,0,6.599
2,140,perceptual,0.03,0.2,target,competitor,0,3.315
2,141,perceptual,0.1,0.05,competitor,decoy,0,4.708
2,142,numeric,0.1,0.2,target,target,1,9.445
2,143,perceptual,0.03,0.2,competitor,target,1,4.39
2,144,numeric,0.1,0.2,competitor,competitor,0,8.509
2,145,perceptual,0.1,0.05,competitor,competitor,0,6.331
2,146,perceptual,0.1,0.05,competitor,decoy,0,5.971
2,147,perceptual,0.03,0.05,target,competitor,0,4.734
2,148,numeric,0.1,0.2,target,competitor,0,9.053
2,149,perceptual,0.1,0.2,target,decoy,0,4.421
2,150,perceptual,0.1,0.05,competitor,target,1,4.548
2,151,numeric,0.03,0.05,competitor,target,1,7.36
2,152,perceptual,0.1,0.05,competitor,decoy,0,5.256
2,153,perceptual,0.03,0.05,target,target,1,5.353
2,154,numeric,0.03,0.05,target,target,1,8.619
2,155,perceptual,0.03,0.2,competitor,target,1,4.078
2,156,numeric,0.1,0.2,target,target,1,13.341
2,157,numeric,0.1,0.2,target,target,1,7.465
2,158,numeric,0.03,0.05,target,target,1,8.549
2,159,numeric,0.1,0.05,target,target,1,9.288
2,160,perceptual,0.1,0.2,competitor,target,1,5.943
2,161,perceptual,0.03,0.2,competitor,competitor,0,4.357
2,162,perceptual,0.03,0.2,competitor,competitor,0,2.805
2,163,perceptual,0.03,0.2,target,competitor,0,4.751
2,164,perceptual,0.1,0.05,target,target,1,3.953
2,165,perceptual,0.03,0.2,competitor,competitor,0,6.019
2,166,numeric,0.03,0.2,target,competitor,0,15.167
2,167,numeric,0.1,0.2,competitor,target,1,9.355
2,168,perceptual,0.03,0.05,target,decoy,0,4.347
2,169,perceptual,0.03,0.2,competitor,competitor,0,3.95
2,170,perceptual,0.03,0.05,target,competitor,0,3.174
2,171,numeric,0.1,0.05,competitor,competitor,0,6.48
2,172,numeric,0.1,0.05,target,target,1,6.985
2,173,numeric,0.1,0.2,target,target,1,6.931
2,174,perceptual,0.03,0.2,target,target,1,3.942
2,175,perceptual,0.03,0.05,competitor,target,1,3.037
2,176,perceptual,0.03,0.2,target,target,1,3.69
2,177,perceptual,0.1,0.05,competitor,target,1,3.527
2,178,numeric,0.1,0.05,target,target,1,9.845
2,179,numeric,0.03,0.2,competitor,competitor,0,8.875
2,180,perceptual,0.1,0.05,target,decoy,0,4.097
2,181,numeric,0.03,0.2,competitor,competitor,0,7.305
2,182,numeric,0.1,0.05,competitor,target,1,6.69
2,183,numeric,0.03,0.05,target,competitor,0,6.865
2,184,perceptual,0.1,0.2,competitor,target,1,5.147
2,185,perceptual,0.03,0.2,competitor,competitor,0,5.446
2,186,perceptual,0.1,0.05,target,target,1,4.407
2,187,numeric,0.1,0.2,competitor,target,1,8.307
2,188,perceptual,0.1,0.2,competitor,competitor,0,3.371
2,189,numeric,0.03,0.05,target,target,1,5.757
2,190,numeric,0.1,0.2,competitor,competitor,0,8.531
2,191,numeric,0.03,0.05,competitor,target,1,11.791
2,192,numeric,0.1,0.05,competitor,target,1,11.284
3,1,numeric,0.1,0.05,competitor,target,1,6.772
3,2,perceptual,0.03,0.2,competitor,target,1,5.324
3,3,numeric,0.03,0.05,target,target,1,8.249
3,4,numeric,0.03,0.05,target,competitor,0,9.264
3,5,numeric,0.03,0.05,competitor,competitor,0,9.867
3,6,perceptual,0.03,0.2,competitor,competitor,0,5.314
3,7,perceptual,0.03,0.05,target,decoy,0,5.234
3,8,perceptual,0.03,0.2,competitor,target,1,4.923
3,9,numeric,0.03,0.05,target,target,1,8.568
3,10,perceptual,0.1,0.05,competitor,target,1,4.749
3,11,numeric,0.03,0.05,target,target,1,8.012
3,12,numeric,0.1,0.2,target,target,1,10.795
3,13,perceptual,0.03,0.05,competitor,target,1,2.866
3,14,perceptual,0.1,0.2,competitor,competitor,0,4.186
3,15,perceptual,0.1,0.05,competitor,target,1,3.745
3,16,perceptual,0.1,0.05,target,competitor,0,2.474
3,17,numeric,0.03,0.2,competitor,competitor,0,7.788
3,18,numeric,0.1,0.2,target,target,1,5.429
3,19,numeric,0.03,0.05,target,target,1,6.33
3,20,perceptual,0.1,0.05,competitor,target,1,5.864
3,21,numeric,0.1,0.05,target,competitor,0,9.912
3,22,numeric,0.03,0.2,target,target,1,7.551
3,23,numeric,0.1,0.05,competitor,target,1,8.113
3,24,numeric,0.1,0.05,target,decoy,0,3.442
3,25,perceptual,0.1,0.2,competitor,target,1,2.16
3,26,numeric,0.03,0.05,competitor,target,1,4.546
3,27,perceptual,0.03,0.2,target,target,1,3.147
3,28,perceptual,0.03,0.05,competitor,target,1,6.003
3,29,numeric,0.03,0.2,competitor,target,1,7.74
3,30,numeric,0.03,0.2,target,target,1,7.052
3,31,numeric,0.1,0.2,competitor,target,1,8.604
3,32,numeric,0.1,0.05,competitor,target,1,4.123
3,33,perceptual,0.03,0.05,competitor,target,1,3.649
3,34,perceptual,0.03,0.2,target,competitor,0,3.446
3,35,numeric,0.03,0.2,competitor,target,1,5.898
3,36,perceptual,0.1,0.05,target,target,1,5.532
3,37,numeric,0.1,0.05,target,target,1,7.674
3,38,perceptual,0.1,0.2,competitor,target,1,4.761
3,39,numeric,0.1,0.05,competitor,target,1,8.451
3,40,numeric,0.1,0.2,competitor,competitor,0,6.867
3,41,numeric,0.03,0.2,competitor,competitor,0,5.274
3,42,numeric,0.1,0.05,target,competitor,0,4.833
3,43,numeric,0.1,0.2,competitor,competitor,0,3.928
3,44,numeric,0.03,0.2,competitor,competitor,0,4.577
3,45,numeric,0.1,0.2,target,target,1,7.92
3,46,perceptual,0.1,0.05,competitor,competitor,0,5.283
3,47,numeric,0.1,0.2,target,target,1,5.452
3,48,perceptual,0.1,0.2,competitor,target,1,4.731
3,49,perceptual,0.1,0.05,competitor,target,1,4.829
3,50,perceptual,0.1,0.05,target,target,1,4.6
3,51,perceptual,0.1,0.2,target,competitor,0,3.737
3,52,perceptual,0.03,0.2,competitor,competitor,0,4.915
3,53,perceptual,0.1,0.05,competitor,decoy,0,5.85
3,54,numeric,0.03,0.2,target,target,1,6.719
3,55,perceptual,0.1,0.05,target,target,1,6.636
3,56,perceptual,0.1,0.05,target,decoy,0,2.996
3,57,numeric,0.1,0.2,competitor,target,1,5.502
3,58,perceptual,0.03,0.05,target,decoy,0,5.652
3,59,perceptual,0.03,0.2,competitor,competitor,0,3.849
3,60,perceptual,0.03,0.2,target,competitor,0,4.489
3,61,perceptual,0.03,0.2,target,target,1,2.908
3,62,numeric,0.03,0.05,competitor,target,1,8.85
3,63,numeric,0.03,0.2,target,target,1,11.656
3,64,perceptual,0.03,0.2,target,competitor,0,4.289
3,65,numeric,0.1,0.2,competitor,competitor,0,7.064
3,66,perceptual,0.03,0.05,target,target,1,6.76
3,67,perceptual,0.1,0.2,target,target,1,2.942
3,68,numeric,0.1,0.05,target,target,1,6.678
3,69,numeric,0.03,0.2,competitor,competitor,0,10.003
3,70,perceptual,0.03,0.05,target,competitor,0,5.532
3,71,perceptual,0.03,0.2,competitor,decoy,0,6.824
3,72,numeric,0.1,0.05,target,decoy,0,11.049
3,73,numeric,0.1,0.05,competitor,target,1,9.03
3,74,numeric,0.1,0.2,target,target,1,4.587
3,75,perceptual,0.1,0.2,competitor,target,1,6.502
3,76,numeric,0.1,0.05,target,target,1,6.808
3,77,numeric,0.03,0.05,competitor,decoy,0,10.022
3,78,numeric,0.1,0.2,competitor,competitor,0,6.146
3,79,numeric,0.03,0.2,target,target,1,9.645
3,80,perceptual,0.1,0.05,competitor,competitor,0,6.449
3,81,perceptual,0.1,0.05,target,target,1,5.351
3,82,numeric,0.03,0.05,competitor,target,1,7.945
3,83,perceptual,0.1,0.05,competitor,competitor,0,4.003
3,84,perceptual,0.03,0.2,target,target,1,3.055
3,85,perceptual,0.1,0.05,target,decoy,0,5.217
3,86,numeric,0.03,0.05,target,target,1,5.302
3,87,numeric,0.03,0.05,competitor,target,1,6.758
3,88,perceptual,0.1,0.2,target,target,1,7.436
3,89,perceptual,0.03,0.2,target,competitor,0,5.398
3,90,perceptual,0.1,0.2,competitor,target,1,5.924
3,91,perceptual,0.03,0.2,competitor,target,1,3.377
3,92,perceptual,0.03,0.2,target,competitor,0,5.975
3,93,perceptual,0.03,0.05,competitor,target,1,6.294
3,94,perceptual,0.1,0.2,target,target,1,6.99
3,95,numeric,0.1,0.05,target,target,1,9.661
3,96,numeric,0.03,0.05,competitor,competitor,0,10.462
3,97,perceptual,0.03,0.2,competitor,target,1,5.698
3,98,perceptual,0.03,0.2,target,target,1,4.538
3,99,numeric,0.1,0.2,target,competitor,0,4.97
3,100,numeric,0.1,0.05,target,target,1,8.657
3,101,numeric,0.03,0.05,target,target,1,9.629
3,102,numeric,0.1,0.2,target,target,1,10.11
3,103,perceptual,0.03,0.2,competitor,target,1,5.387
3,104,perceptual,0.1,0.2,competitor,decoy,0,8.555
3,105,numeric,0.03,0.05,competitor,competitor,0,10.301
3,106,perceptual,0.03,0.05,target,decoy,0,5.797
3,107,numeric,0.03,0.05,competitor,decoy,0,5.813
3,108,perceptual,0.1,0.2,target,competitor,0,5.559
3,109,numeric,0.1,0.2,competitor,competitor,0,6.261
3,110,numeric,0.1,0.05,target,target,1,7.69
3,111,numeric,0.03,0.05,target,target,1,4.023
3,112,perceptual,0.1,0.2,competitor,competitor,0,3.896
3,113,perceptual,0.03,0.05,target,target,1,7.14
3,114,numeric,0.03,0.05,competitor,target,1,5.744
3,115,perceptual,0.1,0.05,target,competitor,0,4.326
3,116,numeric,0.03,0.2,target,target,1,7.078
3,117,numeric,0.03,0.2,competitor,competitor,0,7.308
3,118,numeric,0.1,0.2,competitor,competitor,0,3.268
3,119,perceptual,0.1,0.05,target,competitor,0,4.588
3,120,perceptual,0.03,0.2,competitor,target,1,3.281
3,121,perceptual,0.03,0.05,competitor,target,1,6.426
3,122,numeric,0.1,0.2,competitor,competitor,0,3.876
3,123,perceptual,0.03,0.05,competitor,target,1,3.527
3,124,numeric,0.03,0.2,target,decoy,0,3.581
3,125,numeric,0.1,0.05,target,target,1,9.078
3,126,numeric,0.03,0.2,competitor,target,1,7.484
3,127,perceptual,0.1,0.05,target,target,1,3.485
3,128,perceptual,0.03,0.2,target,competitor,0,3.564
3,129,perceptual,0.03,0.05,competitor,competitor,0,3.705
3,130,perceptual,0.03,0.05,target,decoy,0,3.686
3,131,numeric,0.1,0.2,competitor,target,1,5.363
3,132,numeric,0.1,0.05,target,target,1,3.747
3,133,perceptual,0.1,0.2,competitor,target,1,3.313
3,134,numeric,0.1,0.05,competitor,competitor,0,6.446
3,135,numeric,0.1,0.05,competitor,target,1,3.655
3,136,perceptual,0.03,0.05,competitor,decoy,0,5.198
3,137,perceptual,0.03,0.05,competitor,target,1,2.747
3,138,numeric,0.1,0.2,target,decoy,0,3.897
3,139,numeric,0.03,0.2,target,target,1,4.29
3,140,numeric,0.03,0.05,competitor,target,1,11.246
3,141,numeric,0.1,0.05,competitor,target,1,4.28
3,142,perceptual,0.03,0.05,competitor,target,1,3.496
3,143,numeric,0.03,0.2,target,competitor,0,4.638
3,144,perceptual,0.1,0.05,competitor,target,1,3.144
3,145,numeric,0.1,0.05,competitor,target,1,3.848
3,148,perceptual,0.03,0.2,competitor,competitor,0,0.413
3,149,perceptual,0.1,0.2,competitor,target,1,4.023
3,150,perceptual,0.1,0.05,competitor,decoy,0,4.1
3,151,perceptual,0.03,0.05,competitor,target,1,8.078
3,152,numeric,0.1,0.2,competitor,target,1,2.594
3,153,perceptual,0.03,0.2,competitor,target,1,2.791
3,154,numeric,0.03,0.2,competitor,target,1,4.382
3,155,numeric,0.03,0.05,competitor,competitor,0,2.79
3,156,perceptual,0.03,0.05,target,target,1,3.35
3,157,numeric,0.03,0.05,target,target,1,18.202
3,158,numeric,0.03,0.05,target,target,1,5.632
3,159,perceptual,0.1,0.2,target,target,1,4.188
3,160,numeric,0.1,0.05,competitor,competitor,0,4.67
3,161,numeric,0.03,0.2,target,target,1,4.215
3,162,numeric,0.1,0.2,target,target,1,4.483
3,163,numeric,0.03,0.2,competitor,decoy,0,3.562
3,164,numeric,0.1,0.2,target,target,1,3.777
3,165,perceptual,0.03,0.2,target,competitor,0,2.935
3,166,numeric,0.03,0.05,target,decoy,0,6.628
3,167,perceptual,0.1,0.2,target,competitor,0,5.149
3,168,perceptual,0.1,0.2,target,competitor,0,4.063
3,169,perceptual,0.03,0.05,competitor,competitor,0,4.301
3,170,perceptual,0.1,0.05,competitor,target,1,3.366
3,171,numeric,0.1,0.05,competitor,competitor,0,4.38
3,172,perceptual,0.03,0.05,target,target,1,4.281
3,173,numeric,0.03,0.05,target,target,1,8.226
3,174,numeric,0.03,0.2,competitor,competitor,0,7.049
3,175,perceptual,0.1,0.05,target,target,1,4.035
3,176,numeric,0.03,0.2,competitor,target,1,7.469
3,177,perceptual,0.03,0.05,target,decoy,0,3.166
3,178,numeric,0.03,0.2,target,target,1,5.916
3,179,perceptual,0.1,0.2,competitor,competitor,0,4.065
3,180,perceptual,0.1,0.2,competitor,target,1,5.455
3,181,numeric,0.1,0.05,competitor,target,1,10.652
3,182,perceptual,0.1,0.2,target,decoy,0,3.687
3,183,perceptual,0.1,0.2,target,competitor,0,4.239
3,184,perceptual,0.1,0.05,competitor,competitor,0,4.33
3,185,numeric,0.1,0.2,competitor,target,1,5.965
3,186,perceptual,0.1,0.05,target,decoy,0,4.604
3,187,perceptual,0.1,0.2,target,decoy,0,2.778
3,188,numeric,0.1,0.2,target,target,1,5.249
3,189,perceptual,0.1,0.2,target,competitor,0,3.579
3,190,perceptual,0.03,0.2,target,decoy,0,2.233
3,191,numeric,0.03,0.2,target,target,1,3.536
3,192,perceptual,0.03,0.05,target,competitor,0,4.902
4,1,perceptual,0.03,0.2,target,target,1,8.206
4,2,perceptual,0.1,0.05,competitor,competitor,0,6.714
4,3,numeric,0.03,0.05,competitor,target,1,7.523
4,4,perceptual,0.1,0.2,competitor,competitor,0,5.33
4,5,numeric,0.1,0.2,competitor,competitor,0,4.886
4,6,perceptual,0.1,0.2,target,competitor,0,2.837
4,7,perceptual,0.03,0.05,target,target,1,1.498
4,8,perceptual,0.1,0.2,competitor,target,1,1.33
4,9,numeric,0.1,0.2,target,target,1,1.3
4,10,perceptual,0.03,0.2,competitor,target,1,1.263
4,11,numeric,0.1,0.2,competitor,target,1,1.3
4,12,perceptual,0.03,0.2,target,decoy,0,2.522
4,13,perceptual,0.03,0.05,target,target,1,1.402
4,14,perceptual,0.03,0.2,competitor,competitor,0,1.941
4,15,numeric,0.1,0.05,target,target,1,4.248
4,16,perceptual,0.1,0.2,target,target,1,1.821
4,17,perceptual,0.1,0.2,target,competitor,0,1.718
4,18,perceptual,0.03,0.2,competitor,decoy,0,1.565
4,19,perceptual,0.1,0.2,target,competitor,0,1.247
4,20,perceptual,0.03,0.2,competitor,competitor,0,1.133
4,21,numeric,0.03,0.2,target,decoy,0,0.99
4,22,perceptual,0.1,0.2,target,target,1,1.346
4,23,perceptual,0.1,0.05,competitor,decoy,0,1.434
4,24,perceptual,0.03,0.05,competitor,target,1,1.301
4,25,perceptual,0.1,0.2,competitor,decoy,0,1.321
4,26,perceptual,0.03,0.05,target,decoy,0,1.267
4,27,numeric,0.1,0.05,target,target,1,1.287
4,28,perceptual,0.03,0.2,target,competitor,0,1.044
4,29,perceptual,0.1,0.2,competitor,target,1,1.1
4,30,numeric,0.03,0.2,competitor,target,1,1.214
4,31,perceptual,0.1,0.05,target,competitor,0,1.11
4,32,perceptual,0.03,0.2,target,decoy,0,1.195
4,33,numeric,0.03,0.2,competitor,competitor,0,5.345
4,34,perceptual,0.03,0.05,competitor,competitor,0,1.25
4,35,perceptual,0.03,0.2,target,competitor,0,1.279
4,36,perceptual,0.03,0.2,competitor,decoy,0,1.121
4,37,numeric,0.1,0.05,competitor,decoy,0,1.216
4,38,numeric,0.1,0.2,competitor,target,1,1.197
4,39,numeric,0.1,0.2,target,competitor,0,1.246
4,40,perceptual,0.1,0.2,target,decoy,0,1.444
4,41,perceptual,0.03,0.05,target,decoy,0,1.273
4,42,numeric,0.03,0.05,competitor,decoy,0,1.278
4,43,perceptual,0.03,0.05,competitor,target,1,1.272
4,44,perceptual,0.1,0.05,target,target,1,1.284
4,45,numeric,0.1,0.05,competitor,target,1,1.345
4,46,perceptual,0.03,0.05,competitor,target,1,1.269
4,47,perceptual,0.1,0.2,target,decoy,0,1.322
4,48,numeric,0.03,0.05,competitor,competitor,0,1.29
4,49,perceptual,0.1,0.05,target,decoy,0,1.302
4,50,perceptual,0.1,0.05,competitor,decoy,0,1.24
4,51,numeric,0.1,0.05,target,competitor,0,1.281
4,52,numeric,0.1,0.2,target,decoy,0,1.278
4,53,numeric,0.1,0.05,competitor,target,1,1.496
4,54,perceptual,0.1,0.05,target,decoy,0,1.31
4,55,perceptual,0.03,0.05,competitor,competitor,0,1.31
4,56,numeric,0.1,0.05,target,target,1,1.272
4,57,perceptual,0.03,0.05,target,decoy,0,1.474
4,58,perceptual,0.03,0.2,competitor,competitor,0,1.474
4,59,perceptual,0.1,0.05,target,competitor,0,1.398
4,60,numeric,0.03,0.05,target,competitor,0,3.445
4,61,perceptual,0.03,0.05,target,decoy,0,1.927
4,62,perceptual,0.03,0.05,target,decoy,0,2.11
4,63,numeric,0.03,0.05,target,target,1,3.32
4,64,perceptual,0.03,0.2,target,competitor,0,1.814
4,65,numeric,0.1,0.05,competitor,competitor,0,4.222
4,66,numeric,0.03,0.05,target,target,1,8.818
4,67,numeric,0.03,0.05,target,target,1,5.027
4,68,numeric,0.03,0.05,competitor,competitor,0,2.156
4,69,perceptual,0.1,0.2,competitor,decoy,0,1.883
4,70,perceptual,0.1,0.2,target,competitor,0,1.899
4,71,numeric,0.1,0.05,competitor,decoy,0,1.54
4,72,perceptual,0.03,0.05,competitor,target,1,1.616
4,73,perceptual,0.03,0.05,target,target,1,4.928
4,74,perceptual,0.03,0.2,competitor,competitor,0,3.599
4,75,perceptual,0.03,0.2,competitor,competitor,0,3.493
4,76,numeric,0.1,0.2,competitor,target,1,4.178
4,77,numeric,0.1,0.05,competitor,target,1,6.243
4,78,numeric,0.03,0.2,target,competitor,0,3.674
4,79,perceptual,0.1,0.2,target,competitor,0,2.651
4,80,numeric,0.1,0.2,target,target,1,5.598
4,81,perceptual,0.1,0.05,competitor,competitor,0,3.328
4,82,numeric,0.1,0.2,competitor,target,1,8.135
4,83,perceptual,0.03,0.05,target,decoy,0,4.647
4,84,perceptual,0.1,0.05,competitor,competitor,0,1.38
4,85,numeric,0.1,0.05,target,competitor,0,1.67
4,86,numeric,0.03,0.2,target,target,1,2.908
4,87,numeric,0.03,0.05,competitor,competitor,0,3.96
4,88,perceptual,0.1,0.05,competitor,competitor,0,2.039
4,89,numeric,0.1,0.2,target,target,1,6.128
4,90,perceptual,0.03,0.2,target,competitor,0,2.817
4,91,numeric,0.03,0.2,target,competitor,0,4.67
4,92,numeric,0.03,0.05,target,target,1,4.925
4,93,perceptual,0.03,0.2,target,target,1,2.055
4,94,perceptual,0.03,0.2,target,decoy,0,2.219
4,95,perceptual,0.1,0.2,competitor,competitor,0,2.361
4,96,numeric,0.03,0.2,competitor,competitor,0,5.791
4,97,perceptual,0.03,0.05,target,target,1,2.033
4,98,numeric,0.03,0.2,competitor,decoy,0,3.2
4,99,numeric,0.03,0.2,target,competitor,0,4.011
4,100,numeric,0.03,0.05,competitor,target,1,2.967
4,101,numeric,0.1,0.05,competitor,target,1,3.977
4,102,numeric,0.03,0.2,target,decoy,0,3.862
4,103,numeric,0.1,0.2,target,competitor,0,4.648
4,104,numeric,0.03,0.05,target,decoy,0,5.71
4,105,numeric,0.03,0.2,target,decoy,0,4.244
4,106,numeric,0.1,0.05,target,decoy,0,1.633
4,107,perceptual,0.03,0.05,competitor,decoy,0,1.811
4,108,numeric,0.03,0.2,target,target,1,1.946
4,109,numeric,0.1,0.2,target,target,1,1.679
4,110,numeric,0.03,0.05,target,decoy,0,1.817
4,111,numeric,0.03,0.05,competitor,target,1,1.793
4,112,numeric,0.1,0.05,target,target,1,1.961
4,113,perceptual,0.03,0.05,competitor,target,1,1.645
4,114,perceptual,0.1,0.05,competitor,decoy,0,1.671
4,115,numeric,0.03,0.05,competitor,competitor,0,4.878
4,116,perceptual,0.1,0.2,competitor,target,1,2.801
4,117,numeric,0.1,0.2,competitor,target,1,1.856
4,118,perceptual,0.1,0.2,competitor,target,1,1.464
4,119,perceptual,0.03,0.2,competitor,competitor,0,1.309
4,120,perceptual,0.03,0.2,target,competitor,0,1.338
4,121,numeric,0.03,0.05,target,competitor,0,1.523
4,122,perceptual,0.03,0.2,target,decoy,0,1.295
4,123,numeric,0.1,0.2,target,decoy,0,1.259
4,124,numeric,0.1,0.05,competitor,competitor,0,1.622
4,125,numeric,0.03,0.2,competitor,decoy,0,1.334
4,126,numeric,0.03,0.05,target,decoy,0,1.348
4,127,perceptual,0.03,0.05,competitor,decoy,0,1.295
4,128,perceptual,0.1,0.05,competitor,competitor,0,1.383
4,129,numeric,0.1,0.05,target,competitor,0,1.702
4,130,perceptual,0.1,0.05,target,decoy,0,1.311
4,131,perceptual,0.1,0.05,target,competitor,0,1.435
4,132,perceptual,0.1,0.05,target,decoy,0,1.308
4,133,numeric,0.1,0.05,competitor,decoy,0,1.294
4,134,perceptual,0.1,0.2,competitor,competitor,0,1.154
4,135,perceptual,0.1,0.2,target,target,1,1.326
4,136,numeric,0.03,0.2,competitor,competitor,0,1.245
4,137,numeric,0.03,0.2,competitor,competitor,0,1.311
4,138,perceptual,0.1,0.05,competitor,target,1,1.33
4,139,perceptual,0.1,0.05,competitor,decoy,0,1.259
4,140,numeric,0.03,0.05,target,competitor,0,1.352
4,141,numeric,0.03,0.05,competitor,decoy,0,1.443
4,142,numeric,0.03,0.05,competitor,decoy,0,1.319
4,143,perceptual,0.03,0.05,competitor,competitor,0,1.724
4,144,numeric,0.03,0.05,target,target,1,1.374
4,145,numeric,0.03,0.2,target,decoy,0,1.65
4,146,perceptual,0.03,0.05,target,target,1,1.726
4,147,perceptual,0.1,0.05,target,decoy,0,0
4,148,numeric,0.1,0.05,target,decoy,0,1.502
4,149,perceptual,0.03,0.05,competitor,decoy,0,2.223
4,150,perceptual,0.1,0.05,competitor,target,1,1.58
4,151,numeric,0.1,0.05,competitor,target,1,1.45
4,152,numeric,0.1,0.2,competitor,competitor,0,0.003
4,153,numeric,0.03,0.2,target,decoy,0,0.202
4,154,numeric,0.03,0.2,competitor,target,1,1.807
4,155,perceptual,0.03,0.05,competitor,decoy,0,1.363
4,156,perceptual,0.03,0.2,competitor,target,1,1.582
4,157,numeric,0.03,0.05,competitor,target,1,1.378
4,158,numeric,0.03,0.2,competitor,target,1,1.34
4,159,numeric,0.03,0.2,competitor,decoy,0,1.361
4,160,numeric,0.03,0.05,target,decoy,0,1.847
4,161,perceptual,0.1,0.05,target,competitor,0,1.689
4,162,numeric,0.03,0.2,target,competitor,0,1.681
4,163,numeric,0.1,0.05,competitor,target,1,5.279
4,164,numeric,0.1,0.2,target,target,1,6.675
4,165,numeric,0.1,0.2,target,competitor,0,2.859
4,166,numeric,0.03,0.2,target,target,1,4.921
4,167,perceptual,0.03,0.05,target,decoy,0,2.154
4,168,perceptual,0.1,0.2,competitor,target,1,1.645
4,169,numeric,0.1,0.05,competitor,target,1,5.105
4,170,numeric,0.1,0.2,target,competitor,0,3.983
4,171,numeric,0.1,0.2,competitor,target,1,4.534
4,172,numeric,0.1,0.2,competitor,target,1,7.01
4,173,numeric,0.03,0.05,competitor,target,1,3.325
4,174,perceptual,0.1,0.2,competitor,target,1,3.968
4,175,perceptual,0.1,0.2,competitor,decoy,0,2.218
4,176,numeric,0.1,0.2,competitor,competitor,0,5.743
4,177,perceptual,0.1,0.2,target,competitor,0,2.416
4,178,numeric,0.03,0.2,competitor,target,1,3.629
4,179,numeric,0.1,0.2,competitor,competitor,0,3.99
4,180,numeric,0.1,0.2,competitor,decoy,0,2.947
4,181,numeric,0.1,0.05,target,target,1,2.184
4,182,perceptual,0.1,0.05,target,competitor,0,1.983
4,183,perceptual,0.1,0.2,target,competitor,0,2.415
4,184,perceptual,0.03,0.2,competitor,decoy,0,1.633
4,185,perceptual,0.1,0.05,competitor,target,1,1.802
4,186,numeric,0.1,0.05,target,target,1,1.701
4,187,perceptual,0.1,0.05,target,decoy,0,1.706
4,188,numeric,0.03,0.2,competitor,target,1,3.69
4,189,numeric,0.1,0.05,target,target,1,4.978
4,190,perceptual,0.03,0.2,competitor,competitor,0,2.135
4,191,perceptual,0.03,0.2,target,competitor,0,1.673
4,192,numeric,0.1,0.2,target,target,1,6.17
5,1,perceptual,0.03,0.2,competitor,competitor,0,18.751
5,2,perceptual,0.1,0.05,target,decoy,0,6.367
5,3,perceptual,0.1,0.05,competitor,target,1,9.231
5,4,numeric,0.1,0.2,competitor,competitor,0,18.072
5,5,numeric,0.03,0.2,target,decoy,0,9.397
5,6,perceptual,0.03,0.05,target,competitor,0,4.925
5,7,numeric,0.1,0.2,competitor,competitor,0,12.02
5,8,perceptual,0.03,0.05,competitor,decoy,0,5.283
5,9,numeric,0.1,0.05,target,target,1,11.018
5,10,numeric,0.1,0.2,competitor,competitor,0,7.475
5,11,perceptual,0.03,0.2,competitor,target,1,6.256
5,12,numeric,0.1,0.05,target,target,1,16.08
5,13,numeric,0.1,0.2,target,target,1,15.294
5,14,numeric,0.1,0.05,target,target,1,7.306
5,15,numeric,0.1,0.2,competitor,target,1,8.671
5,16,numeric,0.03,0.05,target,competitor,0,9.394
5,17,perceptual,0.1,0.2,competitor,competitor,0,8.249
5,18,perceptual,0.1,0.05,target,target,1,11.11
5,19,perceptual,0.1,0.05,competitor,competitor,0,11.149
5,20,numeric,0.03,0.05,target,competitor,0,11.886
5,21,numeric,0.1,0.2,competitor,decoy,0,12.681
5,22,perceptual,0.03,0.2,target,decoy,0,9.284
5,23,numeric,0.03,0.05,competitor,target,1,16.334
5,24,numeric,0.03,0.2,competitor,target,1,8.017
5,25,numeric,0.1,0.2,target,competitor,0,8.386
5,26,numeric,0.1,0.2,target,target,1,7.803
5,27,perceptual,0.1,0.05,target,competitor,0,4.555
5,28,numeric,0.03,0.2,competitor,target,1,10.148
5,29,numeric,0.1,0.2,target,target,1,9.525
5,30,perceptual,0.03,0.05,target,decoy,0,5.433
5,31,perceptual,0.1,0.05,target,target,1,5.685
5,32,numeric,0.03,0.2,competitor,competitor,0,13.125
5,33,numeric,0.03,0.05,target,target,1,6.512
5,34,numeric,0.03,0.2,target,competitor,0,10.041
5,35,perceptual,0.1,0.2,competitor,competitor,0,11.216
5,36,numeric,0.03,0.2,target,target,1,12.418
5,37,perceptual,0.1,0.05,target,target,1,2.269
5,38,numeric,0.03,0.2,competitor,decoy,0,3.023
5,39,perceptual,0.03,0.2,competitor,target,1,2.87
5,40,numeric,0.03,0.2,target,target,1,8.32
5,41,numeric,0.03,0.05,competitor,target,1,7.568
5,42,perceptual,0.03,0.2,competitor,decoy,0,4.06
5,43,perceptual,0.1,0.05,target,target,1,6.158
5,44,numeric,0.1,0.05,competitor,competitor,0,7.683
5,45,perceptual,0.1,0.2,target,decoy,0,5.32
5,46,perceptual,0.1,0.2,competitor,decoy,0,7.243
5,47,numeric,0.03,0.05,competitor,competitor,0,12.983
5,48,numeric,0.1,0.05,competitor,target,1,8.209
5,49,perceptual,0.1,0.05,target,decoy,0,6.92
5,50,numeric,0.03,0.05,competitor,target,1,5.568
5,51,perceptual,0.1,0.2,competitor,target,1,5.187
5,52,numeric,0.03,0.05,competitor,target,1,9.937
5,53,perceptual,0.03,0.05,target,target,1,4.905
5,54,numeric,0.1,0.05,target,target,1,12.537
5,55,numeric,0.1,0.2,target,target,1,9.936
5,56,numeric,0.03,0.2,target,target,1,9.334
5,57,perceptual,0.1,0.2,competitor,target,1,8.539
5,58,numeric,0.1,0.2,competitor,target,1,10.964
5,59,numeric,0.03,0.2,competitor,target,1,12.288
5,60,perceptual,0.1,0.2,competitor,target,1,4.21
5,61,perceptual,0.03,0.05,target,decoy,0,9.496
5,62,numeric,0.1,0.05,competitor,target,1,13.751
5,63,perceptual,0.1,0.05,competitor,target,1,3.242
5,64,numeric,0.1,0.2,competitor,target,1,10.519
5,65,numeric,0.1,0.2,target,decoy,0,9.785
5,66,numeric,0.03,0.05,target,target,1,15.29
5,67,numeric,0.03,0.05,target,competitor,0,7.488
5,68,perceptual,0.03,0.2,target,decoy,0,6.449
5,69,numeric,0.03,0.05,competitor,competitor,0,15.865
5,70,perceptual,0.1,0.2,target,target,1,9.644
5,71,numeric,0.03,0.05,competitor,competitor,0,15.377
5,72,numeric,0.03,0.2,competitor,target,1,10.054
5,73,perceptual,0.1,0.2,target,target,1,4.712
5,74,numeric,0.03,0.05,target,target,1,19.829
5,75,perceptual,0.03,0.05,competitor,target,1,4.651
5,76,perceptual,0.03,0.2,competitor,target,1,8.026
5,77,perceptual,0.1,0.05,target,target,1,3.621
5,78,perceptual,0.03,0.2,target,target,1,7.45
5,79,perceptual,0.03,0.2,competitor,decoy,0,4.269
5,80,numeric,0.1,0.2,target,target,1,9.201
5,81,perceptual,0.03,0.05,competitor,target,1,6.148
5,82,perceptual,0.1,0.2,competitor,target,1,5.712
5,83,perceptual,0.1,0.2,competitor,target,1,4.51
5,84,numeric,0.1,0.2,target,target,1,7.262
5,85,perceptual,0.1,0.2,target,decoy,0,3.208
5,86,perceptual,0.1,0.2,target,competitor,0,3.466
5,87,perceptual,0.03,0.05,competitor,target,1,2.793
5,88,numeric,0.1,0.05,target,target,1,6.493
5,89,perceptual,0.1,0.2,competitor,target,1,2.835
5,90,perceptual,0.03,0.2,target,competitor,0,4.571
5,91,perceptual,0.03,0.2,target,decoy,0,4.668
5,92,perceptual,0.1,0.05,competitor,competitor,0,5.588
5,93,perceptual,0.03,0.2,target,target,1,2.755
5,94,numeric,0.1,0.05,target,target,1,5.415
5,95,numeric,0.1,0.05,target,target,1,8.836
5,96,numeric,0.1,0.05,competitor,target,1,9.386
5,97,perceptual,0.03,0.05,target,competitor,0,3.264
5,98,numeric,0.1,0.05,target,target,1,10.951
5,99,perceptual,0.1,0.05,target,decoy,0,4.468
5,100,perceptual,0.1,0.05,target,competitor,0,3.962
5,101,perceptual,0.1,0.05,competitor,decoy,0,5.737
5,102,perceptual,0.03,0.05,target,competitor,0,2.826
5,103,numeric,0.03,0.05,target,target,1,14.183
5,104,numeric,0.03,0.2,competitor,competitor,0,5.916
5,105,perceptual,0.03,0.2,competitor,competitor,0,2.755
5,106,perceptual,0.03,0.2,competitor,decoy,0,2.565
5,107,perceptual,0.03,0.05,target,competitor,0,3.204
5,108,numeric,0.03,0.2,target,competitor,0,8.233
5,109,perceptual,0.1,0.2,target,competitor,0,3.542
5,110,numeric,0.1,0.2,target,target,1,12.55
5,111,perceptual,0.03,0.2,target,target,1,12.565
5,112,numeric,0.1,0.05,competitor,competitor,0,12.658
5,113,numeric,0.03,0.05,competitor,competitor,0,11.588
5,114,numeric,0.03,0.2,competitor,target,1,10.006
5,115,numeric,0.1,0.2,competitor,target,1,6.565
5,116,numeric,0.03,0.05,competitor,competitor,0,6.435
5,117,numeric,0.03,0.2,target,target,1,6.181
5,118,numeric,0.1,0.2,target,target,1,9.166
5,119,perceptual,0.03,0.2,target,competitor,0,3.856
5,120,numeric,0.03,0.05,competitor,target,1,15.816
5,121,numeric,0.03,0.05,competitor,target,1,3.057
5,122,perceptual,0.1,0.05,competitor,competitor,0,6.099
5,123,perceptual,0.03,0.05,target,competitor,0,2.857
5,124,perceptual,0.03,0.2,competitor,competitor,0,2.686
5,125,numeric,0.03,0.2,target,competitor,0,5.717
5,126,perceptual,0.1,0.05,competitor,target,1,2.685
5,127,numeric,0.1,0.05,competitor,target,1,8.13
5,128,numeric,0.1,0.05,target,target,1,6.103
5,129,perceptual,0.03,0.2,target,competitor,0,4.164
5,130,numeric,0.1,0.05,competitor,target,1,6.619
5,131,perceptual,0.03,0.05,target,target,1,5.486
5,132,perceptual,0.1,0.2,target,decoy,0,5.291
5,133,perceptual,0.03,0.2,target,decoy,0,6.22
5,134,perceptual,0.1,0.05,competitor,decoy,0,2.887
5,135,numeric,0.03,0.2,competitor,target,1,3.737
5,136,perceptual,0.1,0.05,competitor,competitor,0,2.808
5,137,perceptual,0.1,0.2,competitor,decoy,0,2.543
5,138,numeric,0.1,0.05,competitor,target,1,5.179
5,139,numeric,0.03,0.2,target,target,1,7.621
5,140,numeric,0.1,0.05,competitor,target,1,6.287
5,141,perceptual,0.03,0.05,target,target,1,3.386
5,142,numeric,0.1,0.05,competitor,competitor,0,7
5,143,perceptual,0.1,0.2,target,competitor,0,4.99
5,144,perceptual,0.03,0.2,target,target,1,7.352
5,145,perceptual,0.03,0.05,competitor,target,1,5.194
5,147,perceptual,0.1,0.2,competitor,competitor,0,14.271
5,148,perceptual,0.1,0.05,competitor,target,1,5.769
5,149,perceptual,0.03,0.2,target,competitor,0,3.219
5,150,perceptual,0.1,0.05,target,decoy,0,3.708
5,151,numeric,0.1,0.2,competitor,decoy,0,4.149
5,152,perceptual,0.03,0.05,target,competitor,0,3.464
5,153,perceptual,0.1,0.05,competitor,target,1,2.396
5,154,numeric,0.03,0.05,competitor,target,1,7.006
5,155,numeric,0.03,0.05,target,competitor,0,4.356
5,156,perceptual,0.1,0.05,target,competitor,0,2.947
5,157,numeric,0.03,0.05,target,competitor,0,3.286
5,158,numeric,0.03,0.2,target,competitor,0,3.745
5,159,numeric,0.1,0.05,competitor,target,1,4.13
5,160,perceptual,0.1,0.2,target,competitor,0,2.758
5,161,perceptual,0.1,0.2,target,decoy,0,5.402
5,162,perceptual,0.03,0.05,competitor,target,1,3.214
5,163,perceptual,0.03,0.2,competitor,target,1,4.931
5,164,perceptual,0.1,0.05,competitor,target,1,4.173
5,165,numeric,0.03,0.2,target,target,1,7.023
5,166,numeric,0.1,0.2,competitor,target,1,8.993
5,167,perceptual,0.03,0.05,competitor,target,1,4
5,168,perceptual,0.03,0.2,competitor,target,1,3.009
5,169,numeric,0.03,0.05,target,target,1,5.317
5,170,numeric,0.1,0.05,target,target,1,6.243
5,171,numeric,0.1,0.2,competitor,target,1,5.339
5,172,numeric,0.03,0.2,competitor,target,1,8.736
5,173,perceptual,0.03,0.05,competitor,competitor,0,2.865
5,174,numeric,0.03,0.05,target,target,1,6.713
5,175,numeric,0.1,0.05,competitor,competitor,0,8.658
5,176,perceptual,0.1,0.2,competitor,decoy,0,3.359
5,177,numeric,0.1,0.05,target,decoy,0,7.701
5,178,perceptual,0.03,0.05,competitor,competitor,0,2.238
5,179,numeric,0.1,0.05,target,target,1,9.365
5,180,numeric,0.03,0.05,target,target,1,6.199
5,181,perceptual,0.1,0.2,target,target,1,2.731
5,182,numeric,0.1,0.2,target,target,1,5.206
5,183,numeric,0.1,0.2,target,target,1,8.935
5,184,perceptual,0.03,0.05,competitor,target,1,3.736
5,185,perceptual,0.03,0.2,competitor,target,1,4.534
5,186,numeric,0.03,0.2,target,target,1,4.178
5,187,perceptual,0.03,0.05,target,competitor,0,4.917
5,188,perceptual,0.03,0.05,competitor,decoy,0,5.181
5,189,perceptual,0.1,0.2,target,target,1,4.005
5,190,numeric,0.1,0.2,competitor,target,1,8.136
5,191,numeric,0.03,0.2,competitor,competitor,0,8.123
5,192,numeric,0.03,0.2,competitor,target,1,7.481
6,1,numeric,0.1,0.05,target,target,1,10.139
6,2,numeric,0.03,0.05,target,target,1,7.916
6,3,numeric,0.03,0.2,target,target,1,7.49
6,4,perceptual,0.03,0.2,target,competitor,0,10.768
6,5,numeric,0.1,0.05,competitor,target,1,8.773
6,6,perceptual,0.03,0.05,competitor,target,1,6.561
6,7,numeric,0.03,0.05,competitor,target,1,11.181
6,8,numeric,0.1,0.05,target,target,1,8.463
6,9,perceptual,0.1,0.05,target,target,1,4.486
6,10,perceptual,0.03,0.2,competitor,target,1,6.113
6,11,perceptual,0.1,0.2,competitor,competitor,0,5.579
6,12,numeric,0.1,0.05,competitor,target,1,10.589
6,13,perceptual,0.1,0.05,competitor,target,1,4.667
6,14,perceptual,0.1,0.2,competitor,target,1,5.746
6,15,numeric,0.03,0.2,target,target,1,6.228
6,16,perceptual,0.03,0.2,competitor,target,1,8.069
6,17,perceptual,0.03,0.2,competitor,target,1,4.368
6,18,numeric,0.1,0.2,target,target,1,8.743
6,19,numeric,0.03,0.05,target,target,1,9.462
6,20,perceptual,0.1,0.2,target,target,1,6.176
6,21,perceptual,0.03,0.05,competitor,target,1,5.73
6,22,numeric,0.1,0.2,target,target,1,8.497
6,23,numeric,0.1,0.2,target,target,1,7.998
6,24,numeric,0.03,0.05,target,target,1,6.769
6,25,numeric,0.1,0.05,target,target,1,6.514
6,26,numeric,0.03,0.2,target,target,1,7.625
6,27,perceptual,0.1,0.2,target,target,1,4.725
6,28,numeric,0.1,0.2,competitor,target,1,7.477
6,29,perceptual,0.1,0.2,target,target,1,5.146
6,30,numeric,0.03,0.05,competitor,target,1,6.731
6,31,perceptual,0.1,0.2,competitor,target,1,5.348
6,32,perceptual,0.1,0.05,competitor,target,1,6.955
6,33,perceptual,0.03,0.05,target,competitor,0,7.519
6,34,perceptual,0.1,0.2,competitor,target,1,4.749
6,35,numeric,0.1,0.2,target,target,1,5.974
6,36,perceptual,0.03,0.05,target,target,1,8.009
6,37,numeric,0.1,0.2,competitor,target,1,8.776
6,38,perceptual,0.03,0.05,competitor,target,1,9.089
6,39,perceptual,0.1,0.2,target,target,1,5.569
6,40,numeric,0.03,0.2,competitor,competitor,0,8.3
6,41,numeric,0.1,0.2,target,target,1,5.868
6,42,numeric,0.1,0.05,target,target,1,6.235
6,43,perceptual,0.03,0.05,target,target,1,8.219
6,44,perceptual,0.1,0.2,competitor,target,1,3.721
6,45,perceptual,0.03,0.2,target,target,1,3.309
6,46,perceptual,0.1,0.05,competitor,target,1,4.226
6,47,perceptual,0.1,0.2,target,target,1,6.622
6,48,perceptual,0.03,0.2,target,target,1,4.777
6,49,numeric,0.1,0.2,competitor,target,1,5.254
6,50,perceptual,0.1,0.05,competitor,target,1,3.345
6,51,perceptual,0.1,0.2,target,target,1,6.351
6,52,numeric,0.03,0.2,competitor,target,1,8.205
6,53,perceptual,0.03,0.05,target,competitor,0,8.623
6,54,numeric,0.03,0.05,target,target,1,6.667
6,55,perceptual,0.1,0.2,competitor,target,1,4.813
6,56,perceptual,0.03,0.2,target,competitor,0,5.25
6,57,numeric,0.1,0.05,target,target,1,7.817
6,58,numeric,0.1,0.2,target,target,1,9.046
6,59,perceptual,0.1,0.2,competitor,target,1,3.978
6,60,numeric,0.03,0.2,competitor,competitor,0,6.614
6,61,numeric,0.03,0.2,target,target,1,8.995
6,62,perceptual,0.03,0.2,competitor,target,1,6.511
6,63,numeric,0.03,0.2,target,target,1,7.79
6,64,perceptual,0.1,0.05,competitor,target,1,3.063
6,65,numeric,0.1,0.05,target,target,1,5.701
6,66,numeric,0.03,0.2,competitor,target,1,7.923
6,67,perceptual,0.1,0.05,competitor,target,1,6.981
6,68,numeric,0.1,0.2,competitor,target,1,7.424
6,69,perceptual,0.03,0.2,competitor,competitor,0,7.335
6,70,numeric,0.03,0.05,competitor,target,1,7.457
6,71,perceptual,0.1,0.2,target,target,1,6.823
6,72,numeric,0.1,0.2,competitor,target,1,7.887
6,73,numeric,0.1,0.05,target,competitor,0,10.804
6,74,perceptual,0.1,0.05,target,decoy,0,8.766
6,75,perceptual,0.1,0.2,target,target,1,5.664
6,76,perceptual,0.03,0.05,competitor,competitor,0,9.325
6,77,perceptual,0.1,0.05,target,target,1,8.284
6,78,numeric,0.03,0.05,competitor,target,1,8.745
6,79,perceptual,0.03,0.05,competitor,target,1,9.205
6,80,numeric,0.03,0.05,target,target,1,7.321
6,81,numeric,0.03,0.2,target,target,1,6.358
6,82,numeric,0.1,0.05,target,competitor,0,8.804
6,83,perceptual,0.1,0.2,target,target,1,4.988
6,84,numeric,0.1,0.2,competitor,competitor,0,6.625
6,85,numeric,0.03,0.05,competitor,target,1,8.835
6,86,perceptual,0.03,0.05,competitor,target,1,7.669
6,87,perceptual,0.1,0.2,target,target,1,5.085
6,88,perceptual,0.03,0.05,target,target,1,6.792
6,89,numeric,0.1,0.05,competitor,target,1,6.264
6,90,numeric,0.03,0.2,target,target,1,4.278
6,91,numeric,0.1,0.05,competitor,competitor,0,8.684
6,92,perceptual,0.03,0.2,target,competitor,0,4.32
6,93,numeric,0.1,0.05,target,target,1,8.212
6,94,perceptual,0.1,0.05,competitor,target,1,6.29
6,95,perceptual,0.03,0.2,target,target,1,4.306
6,96,perceptual,0.1,0.05,target,target,1,7.755
6,97,numeric,0.1,0.2,competitor,target,1,4.998
6,98,perceptual,0.1,0.05,target,target,1,7.103
6,99,numeric,0.03,0.05,competitor,target,1,6.239
6,100,numeric,0.03,0.2,target,target,1,7.047
6,101,numeric,0.03,0.2,competitor,target,1,10.716
6,102,perceptual,0.1,0.05,competitor,target,1,3.916
6,103,numeric,0.1,0.05,target,target,1,11.188
6,104,numeric,0.03,0.2,competitor,target,1,8.045
6,105,numeric,0.03,0.2,target,competitor,0,8.43
6,106,perceptual,0.03,0.05,target,target,1,7.455
6,107,numeric,0.1,0.05,competitor,decoy,0,4.398
6,108,numeric,0.1,0.2,competitor,target,1,6.47
6,109,numeric,0.1,0.05,competitor,target,1,4.609
6,110,numeric,0.03,0.05,competitor,competitor,0,10.357
6,111,numeric,0.1,0.05,competitor,target,1,4.819
6,112,perceptual,0.03,0.05,competitor,competitor,0,3.654
6,113,numeric,0.03,0.2,competitor,competitor,0,4.622
6,114,perceptual,0.1,0.05,target,target,1,6.82
6,115,numeric,0.03,0.05,target,target,1,5.406
6,116,numeric,0.03,0.2,competitor,target,1,6.979
6,117,perceptual,0.1,0.05,target,target,1,3.846
6,118,perceptual,0.1,0.2,target,competitor,0,4.262
6,119,perceptual,0.03,0.05,competitor,target,1,5.759
6,120,perceptual,0.03,0.05,target,target,1,8.628
6,121,perceptual,0.03,0.05,target,target,1,8.43
6,122,perceptual,0.03,0.05,competitor,competitor,0,6.767
6,123,numeric,0.1,0.05,competitor,competitor,0,7.997
6,124,numeric,0.03,0.05,competitor,target,1,9.494
6,125,numeric,0.1,0.2,competitor,target,1,6.571
6,126,perceptual,0.1,0.2,competitor,target,1,4.755
6,127,perceptual,0.1,0.2,competitor,target,1,5.025
6,128,numeric,0.03,0.05,competitor,target,1,9.261
6,129,perceptual,0.03,0.2,target,target,1,5.485
6,130,numeric,0.03,0.05,target,competitor,0,12.835
6,131,perceptual,0.03,0.05,target,target,1,7.946
6,132,perceptual,0.1,0.2,competitor,target,1,7.193
6,133,perceptual,0.03,0.05,target,competitor,0,9.514
6,134,numeric,0.03,0.05,target,target,1,5.12
6,135,perceptual,0.03,0.2,competitor,target,1,6.974
6,136,perceptual,0.03,0.2,competitor,competitor,0,8.733
6,137,numeric,0.03,0.05,competitor,target,1,6.532
6,138,numeric,0.1,0.2,target,target,1,6.939
6,139,numeric,0.03,0.05,competitor,target,1,7.59
6,140,perceptual,0.1,0.2,competitor,target,1,5.093
6,141,numeric,0.03,0.2,competitor,competitor,0,4.494
6,142,perceptual,0.03,0.2,competitor,target,1,6.797
6,143,numeric,0.1,0.05,competitor,target,1,11.104
6,144,perceptual,0.1,0.05,competitor,target,1,7.789
6,145,numeric,0.1,0.05,competitor,competitor,0,7.943
6,146,numeric,0.1,0.05,target,target,1,10.234
6,147,numeric,0.1,0.2,competitor,target,1,8.834
6,148,numeric,0.1,0.05,target,target,1,6.492
6,149,numeric,0.1,0.2,competitor,competitor,0,8.374
6,150,perceptual,0.03,0.2,competitor,target,1,6.79
6,151,numeric,0.03,0.2,target,competitor,0,10.964
6,152,perceptual,0.1,0.05,competitor,target,1,5.323
6,153,numeric,0.03,0.05,target,competitor,0,10.897
6,154,perceptual,0.1,0.2,competitor,target,1,6.093
6,155,numeric,0.03,0.05,target,target,1,10.546
6,156,perceptual,0.03,0.2,target,competitor,0,5.933
6,157,perceptual,0.03,0.2,competitor,target,1,3.618
6,158,perceptual,0.03,0.2,target,target,1,7.526
6,159,numeric,0.1,0.2,target,target,1,5.052
6,160,perceptual,0.03,0.05,competitor,target,1,10.87
6,161,perceptual,0.03,0.05,target,decoy,0,4.729
6,162,numeric,0.03,0.2,competitor,target,1,7.234
6,163,numeric,0.1,0.05,competitor,target,1,13.94
6,164,numeric,0.1,0.2,target,competitor,0,2.61
6,165,perceptual,0.1,0.05,target,target,1,5.333
6,166,perceptual,0.03,0.05,competitor,target,1,5.606
6,167,perceptual,0.03,0.05,competitor,target,1,5.31
6,168,numeric,0.03,0.2,competitor,target,1,5.137
6,169,perceptual,0.03,0.2,target,target,1,5.436
6,170,perceptual,0.03,0.2,target,target,1,5.41
6,171,perceptual,0.1,0.2,target,target,1,4.794
6,172,numeric,0.1,0.2,target,target,1,6.801
6,173,perceptual,0.03,0.2,target,target,1,6.271
6,174,numeric,0.1,0.05,competitor,target,1,9.714
6,175,perceptual,0.1,0.05,competitor,competitor,0,6.443
6,176,numeric,0.1,0.2,competitor,target,1,6.122
6,177,perceptual,0.1,0.05,target,target,1,6.548
6,178,perceptual,0.03,0.05,target,competitor,0,7.05
6,179,numeric,0.03,0.05,competitor,competitor,0,7.535
6,180,perceptual,0.03,0.2,competitor,target,1,8.55
6,181,numeric,0.03,0.05,target,target,1,7.069
6,182,perceptual,0.1,0.05,target,target,1,5.477
6,183,perceptual,0.1,0.05,target,target,1,4.969
6,184,perceptual,0.1,0.05,competitor,target,1,6.494
6,185,numeric,0.03,0.2,target,target,1,4.722
6,186,numeric,0.1,0.2,target,target,1,9.406
6,187,numeric,0.03,0.2,competitor,target,1,5.519
6,188,numeric,0.1,0.2,target,target,1,9.5
6,189,numeric,0.03,0.05,target,competitor,0,6.419
6,190,numeric,0.03,0.2,target,competitor,0,12.482
6,191,perceptual,0.1,0.05,target,target,1,5.261
6,192,perceptual,0.03,0.2,competitor,competitor,0,9.289
7,1,perceptual,0.03,0.05,target,decoy,0,9.424
7,2,perceptual,0.1,0.05,target,target,1,9.45
7,3,numeric,0.1,0.05,target,decoy,0,10.441
7,4,numeric,0.1,0.05,target,competitor,0,8.637
7,5,numeric,0.03,0.2,target,target,1,15.689
7,6,perceptual,0.1,0.05,competitor,target,1,5.874
7,7,numeric,0.03,0.05,competitor,competitor,0,7.178
7,8,numeric,0.03,0.05,target,target,1,9.003
7,9,perceptual,0.03,0.2,competitor,competitor,0,4.86
7,10,perceptual,0.03,0.2,competitor,target,1,9.861
7,11,numeric,0.1,0.05,competitor,target,1,7.525
7,12,numeric,0.1,0.2,target,target,1,5.848
7,13,perceptual,0.1,0.05,competitor,competitor,0,6.02
7,14,perceptual,0.03,0.2,target,target,1,4.936
7,15,numeric,0.03,0.05,competitor,competitor,0,8.652
7,16,numeric,0.03,0.05,target,decoy,0,6.429
7,17,perceptual,0.1,0.2,competitor,target,1,4.353
7,18,numeric,0.1,0.2,target,competitor,0,4.53
7,19,numeric,0.03,0.2,competitor,target,1,6.304
7,20,perceptual,0.1,0.05,target,competitor,0,5.494
7,21,numeric,0.03,0.05,target,target,1,4.304
7,22,numeric,0.03,0.2,competitor,competitor,0,4.938
7,23,numeric,0.1,0.2,competitor,target,1,4.558
7,24,numeric,0.03,0.2,target,competitor,0,4.478
7,25,numeric,0.03,0.05,competitor,decoy,0,9.285
7,26,perceptual,0.03,0.2,competitor,target,1,4.468
7,27,numeric,0.1,0.05,competitor,target,1,8.221
7,28,perceptual,0.03,0.05,target,competitor,0,4.815
7,29,numeric,0.03,0.2,competitor,target,1,4.913
7,30,numeric,0.1,0.2,target,competitor,0,3.64
7,31,numeric,0.1,0.05,target,competitor,0,4.908
7,32,numeric,0.1,0.2,target,target,1,4.706
7,33,perceptual,0.03,0.05,target,decoy,0,2.978
7,34,perceptual,0.1,0.2,target,competitor,0,3.331
7,35,perceptual,0.03,0.05,competitor,target,1,13.111
7,36,perceptual,0.1,0.2,competitor,target,1,6.715
7,37,numeric,0.03,0.2,target,target,1,6.245
7,38,numeric,0.03,0.05,target,target,1,16.291
7,39,numeric,0.03,0.05,target,competitor,0,7.182
7,40,numeric,0.1,0.2,competitor,competitor,0,9.08
7,41,perceptual,0.1,0.05,target,competitor,0,6.114
7,42,numeric,0.1,0.05,competitor,decoy,0,11.876
7,43,perceptual,0.03,0.05,target,target,1,11.371
7,44,numeric,0.1,0.05,competitor,competitor,0,15.354
7,45,numeric,0.1,0.2,target,target,1,9.037
7,46,numeric,0.03,0.2,competitor,competitor,0,15.564
7,47,perceptual,0.1,0.2,competitor,target,1,6.662
7,48,perceptual,0.1,0.2,competitor,target,1,5.718
7,49,perceptual,0.1,0.2,competitor,target,1,4.518
7,50,perceptual,0.1,0.05,target,decoy,0,7.945
7,51,perceptual,0.03,0.05,competitor,target,1,5.43
7,52,numeric,0.03,0.2,competitor,competitor,0,4.92
7,53,numeric,0.03,0.2,competitor,target,1,5.487
7,54,perceptual,0.03,0.05,competitor,target,1,6.419
7,55,perceptual,0.1,0.05,competitor,target,1,3.185
7,56,perceptual,0.03,0.2,competitor,target,1,9.863
7,57,perceptual,0.03,0.05,target,competitor,0,14.569
7,58,perceptual,0.03,0.05,competitor,competitor,0,3.805
7,59,perceptual,0.03,0.05,target,target,1,3.624
7,60,perceptual,0.03,0.2,target,target,1,3.64
7,61,numeric,0.03,0.2,target,target,1,8.722
7,62,perceptual,0.1,0.2,competitor,target,1,3.532
7,63,numeric,0.1,0.05,target,decoy,0,4.622
7,64,numeric,0.1,0.2,competitor,target,1,3.662
7,65,perceptual,0.1,0.2,target,target,1,3.086
7,66,perceptual,0.03,0.2,competitor,competitor,0,3.588
7,67,perceptual,0.1,0.2,target,competitor,0,3.524
7,68,numeric,0.1,0.05,competitor,competitor,0,4.549
7,69,numeric,0.03,0.2,target,target,1,8.736
7,70,perceptual,0.03,0.2,competitor,target,1,4.808
7,71,perceptual,0.03,0.2,target,target,1,9.33
7,72,perceptual,0.03,0.05,target,competitor,0,6.014
7,73,numeric,0.03,0.2,competitor,target,1,6.229
7,74,numeric,0.03,0.2,competitor,competitor,0,8.801
7,75,perceptual,0.03,0.05,competitor,decoy,0,3.479
7,76,perceptual,0.03,0.05,competitor,target,1,3.611
7,77,perceptual,0.1,0.2,target,target,1,5.427
7,78,perceptual,0.1,0.2,target,competitor,0,4.558
7,79,numeric,0.1,0.2,competitor,competitor,0,4.588
7,80,numeric,0.1,0.05,competitor,target,1,6.88
7,81,numeric,0.1,0.05,target,target,1,3.708
7,82,numeric,0.1,0.05,target,competitor,0,3.257
7,83,perceptual,0.1,0.05,target,decoy,0,9.674
7,84,numeric,0.03,0.05,competitor,competitor,0,4.909
7,85,numeric,0.03,0.05,target,target,1,5.758
7,86,numeric,0.1,0.2,competitor,target,1,8.021
7,87,numeric,0.1,0.05,target,target,1,4.581
7,88,perceptual,0.03,0.05,target,competitor,0,5.391
7,89,perceptual,0.1,0.05,competitor,competitor,0,4.16
7,90,numeric,0.1,0.2,target,target,1,8.448
7,91,numeric,0.03,0.05,competitor,competitor,0,6.928
7,92,perceptual,0.03,0.05,competitor,target,1,4.023
7,93,numeric,0.03,0.05,competitor,target,1,5.041
7,94,perceptual,0.03,0.2,target,competitor,0,4.284
7,95,perceptual,0.03,0.2,competitor,competitor,0,5.963
7,96,numeric,0.03,0.05,competitor,decoy,0,8.509
7,97,numeric,0.03,0.2,target,target,1,5
7,98,numeric,0.1,0.2,target,competitor,0,3.995
7,99,perceptual,0.03,0.2,competitor,competitor,0,3.68
7,100,perceptual,0.1,0.05,competitor,target,1,4.415
7,101,perceptual,0.03,0.05,competitor,target,1,4.882
7,102,perceptual,0.1,0.2,competitor,target,1,3.541
7,103,numeric,0.1,0.2,target,competitor,0,5.37
7,104,numeric,0.1,0.05,competitor,target,1,3.701
7,105,numeric,0.03,0.2,competitor,target,1,8.089
7,106,numeric,0.1,0.05,target,competitor,0,6.446
7,107,perceptual,0.1,0.2,target,competitor,0,2.991
7,108,numeric,0.1,0.05,competitor,target,1,5.421
7,109,numeric,0.03,0.05,competitor,competitor,0,7.366
7,110,perceptual,0.03,0.05,target,target,1,4.368
7,111,numeric,0.03,0.2,target,target,1,8.013
7,112,numeric,0.1,0.2,competitor,target,1,4.835
7,113,perceptual,0.03,0.2,target,competitor,0,3.74
7,114,perceptual,0.03,0.05,competitor,target,1,4.317
7,115,perceptual,0.1,0.05,target,target,1,4.483
7,116,numeric,0.03,0.2,competitor,target,1,7.185
7,117,perceptual,0.03,0.2,target,target,1,4.064
7,118,numeric,0.1,0.2,competitor,target,1,5.035
7,119,numeric,0.03,0.2,target,target,1,15.697
7,120,perceptual,0.03,0.05,target,target,1,5.706
7,121,numeric,0.03,0.2,target,competitor,0,3.678
7,122,perceptual,0.03,0.2,competitor,target,1,3.046
7,123,numeric,0.1,0.2,competitor,competitor,0,5.283
7,124,perceptual,0.1,0.05,target,target,1,3.537
7,125,perceptual,0.1,0.05,target,decoy,0,3.271
7,126,perceptual,0.1,0.2,target,target,1,7.025
7,127,numeric,0.1,0.2,competitor,competitor,0,6.436
7,128,numeric,0.03,0.2,target,target,1,11.247
7,129,numeric,0.1,0.05,target,competitor,0,3.83
7,130,perceptual,0.1,0.05,competitor,decoy,0,3.915
7,131,perceptual,0.1,0.05,competitor,target,1,3.51
7,132,numeric,0.03,0.2,target,target,1,5.413
7,133,perceptual,0.03,0.2,target,competitor,0,5.359
7,134,numeric,0.1,0.2,target,target,1,18.198
7,135,perceptual,0.03,0.2,target,target,1,3.104
7,136,numeric,0.1,0.2,target,target,1,4.997
7,137,numeric,0.03,0.05,target,competitor,0,8.637
7,138,numeric,0.1,0.05,competitor,target,1,8.675
7,139,numeric,0.03,0.2,target,target,1,5.455
7,140,perceptual,0.03,0.2,target,competitor,0,4.33
7,141,perceptual,0.03,0.2,target,target,1,3.332
7,142,perceptual,0.03,0.2,target,competitor,0,6.279
7,143,numeric,0.1,0.2,target,target,1,5.38
7,144,numeric,0.03,0.05,competitor,target,1,7.524
7,145,numeric,0.1,0.05,target,target,1,4.497
7,146,numeric,0.03,0.05,target,competitor,0,4.816
7,147,perceptual,0.03,0.2,target,competitor,0,3.087
7,148,perceptual,0.1,0.2,competitor,competitor,0,3.106
7,149,perceptual,0.1,0.2,target,competitor,0,4.237
7,150,perceptual,0.1,0.05,target,competitor,0,2.758
7,151,perceptual,0.1,0.2,competitor,target,1,3.252
7,152,numeric,0.03,0.05,target,target,1,4.885
7,153,perceptual,0.1,0.2,target,competitor,0,3.913
7,154,perceptual,0.03,0.2,competitor,competitor,0,5.498
7,155,numeric,0.03,0.05,competitor,target,1,4.198
7,156,perceptual,0.1,0.05,competitor,decoy,0,3.474
7,157,perceptual,0.1,0.05,target,target,1,5.254
7,158,numeric,0.1,0.2,competitor,target,1,5.19
7,159,perceptual,0.03,0.05,competitor,competitor,0,4.168
7,160,perceptual,0.1,0.2,target,target,1,3.006
7,161,perceptual,0.1,0.05,target,target,1,3.286
7,162,numeric,0.03,0.05,competitor,competitor,0,4.12
7,163,numeric,0.1,0.2,target,target,1,2.864
7,164,perceptual,0.1,0.05,competitor,target,1,2.931
7,165,perceptual,0.1,0.05,competitor,target,1,2.393
7,166,numeric,0.1,0.2,competitor,target,1,2.393
7,167,numeric,0.1,0.05,competitor,target,1,3.646
7,168,numeric,0.03,0.05,target,target,1,2.612
7,169,numeric,0.03,0.2,competitor,target,1,3.449
7,170,numeric,0.1,0.2,competitor,target,1,3.074
7,171,numeric,0.03,0.05,competitor,competitor,0,2.513
7,172,perceptual,0.03,0.05,competitor,competitor,0,2.237
7,173,numeric,0.1,0.05,target,decoy,0,3.374
7,174,numeric,0.1,0.05,competitor,competitor,0,2.287
7,175,perceptual,0.03,0.05,target,target,1,2.388
7,176,perceptual,0.1,0.2,competitor,decoy,0,2.759
7,177,perceptual,0.1,0.05,competitor,target,1,2.244
7,178,perceptual,0.03,0.05,competitor,decoy,0,1.895
7,179,perceptual,0.03,0.2,competitor,decoy,0,2.196
7,180,perceptual,0.1,0.2,target,competitor,0,2.011
7,181,numeric,0.1,0.05,competitor,competitor,0,4.25
7,182,perceptual,0.1,0.2,competitor,competitor,0,3.441
7,183,numeric,0.1,0.05,target,decoy,0,3.866
7,184,perceptual,0.1,0.2,target,target,1,2.303
7,185,numeric,0.03,0.05,target,competitor,0,3.312
7,186,numeric,0.03,0.2,competitor,target,1,5.603
7,187,perceptual,0.03,0.05,target,decoy,0,2.493
7,188,perceptual,0.1,0.05,competitor,competitor,0,2.362
7,189,numeric,0.03,0.05,target,target,1,6.274
7,190,perceptual,0.1,0.05,target,target,1,4.784
7,191,perceptual,0.03,0.2,competitor,decoy,0,2.375
7,192,perceptual,0.1,0.2,competitor,target,1,2.435
8,1,numeric,0.1,0.2,competitor,target,1,16.153
8,3,perceptual,0.1,0.2,competitor,competitor,0,5.81
8,4,perceptual,0.03,0.2,competitor,competitor,0,11.914
8,5,perceptual,0.03,0.05,competitor,competitor,0,4.332
8,6,perceptual,0.1,0.2,competitor,decoy,0,3.937
8,7,numeric,0.03,0.05,competitor,target,1,17.067
8,8,numeric,0.03,0.2,target,target,1,6.5
8,9,perceptual,0.03,0.2,target,competitor,0,7.82
8,10,numeric,0.03,0.2,target,target,1,16.066
8,11,perceptual,0.1,0.2,competitor,target,1,14.147
8,12,numeric,0.1,0.05,competitor,target,1,13.785
8,13,perceptual,0.03,0.2,target,decoy,0,3.737
8,14,perceptual,0.1,0.05,competitor,decoy,0,4.78
8,15,perceptual,0.1,0.05,target,target,1,3.681
8,16,perceptual,0.03,0.05,competitor,target,1,6.234
8,17,perceptual,0.03,0.2,competitor,decoy,0,5.38
8,18,numeric,0.03,0.05,target,target,1,10.338
8,19,numeric,0.1,0.2,target,target,1,13.404
8,20,perceptual,0.1,0.2,target,decoy,0,5.566
8,21,perceptual,0.03,0.05,competitor,target,1,8.254
8,22,perceptual,0.03,0.2,competitor,target,1,6.033
8,23,numeric,0.03,0.05,target,target,1,15.33
8,24,numeric,0.03,0.05,competitor,competitor,0,9.299
8,25,perceptual,0.1,0.2,target,decoy,0,6.45
8,26,perceptual,0.1,0.2,target,competitor,0,11.401
8,27,perceptual,0.03,0.2,competitor,competitor,0,4.63
8,28,numeric,0.1,0.2,competitor,competitor,0,14.831
8,29,perceptual,0.03,0.05,target,decoy,0,5.505
8,30,numeric,0.1,0.2,competitor,target,1,10.549
8,31,numeric,0.1,0.2,target,decoy,0,12.25
8,32,numeric,0.03,0.05,target,decoy,0,13.331
8,33,numeric,0.1,0.2,target,target,1,7.403
8,34,perceptual,0.03,0.2,competitor,target,1,5.216
8,35,perceptual,0.03,0.05,target,target,1,8.037
8,36,perceptual,0.1,0.05,target,target,1,3.77
8,37,perceptual,0.1,0.2,competitor,decoy,0,4.773
8,38,numeric,0.03,0.05,target,target,1,11.069
8,39,numeric,0.1,0.05,target,target,1,6.603
8,40,perceptual,0.03,0.2,target,target,1,9.85
8,41,perceptual,0.1,0.2,target,decoy,0,8.333
8,42,perceptual,0.1,0.2,target,decoy,0,6.817
8,43,perceptual,0.03,0.05,competitor,competitor,0,5.986
8,44,perceptual,0.03,0.2,target,decoy,0,6.052
8,45,perceptual,0.1,0.05,target,competitor,0,8.437
8,46,perceptual,0.03,0.2,competitor,target,1,4.95
8,47,perceptual,0.03,0.05,target,decoy,0,5.018
8,48,numeric,0.1,0.2,target,target,1,7.64
8,49,numeric,0.1,0.05,competitor,target,1,6.318
8,50,numeric,0.03,0.2,competitor,target,1,6.699
8,51,numeric,0.03,0.2,competitor,competitor,0,13.521
8,52,perceptual,0.03,0.05,competitor,competitor,0,5.083
8,53,perceptual,0.1,0.05,competitor,target,1,4.5
8,54,perceptual,0.1,0.05,competitor,competitor,0,4.925
8,55,numeric,0.03,0.2,target,competitor,0,18.766
8,56,numeric,0.1,0.05,competitor,target,1,9.548
8,57,numeric,0.03,0.05,competitor,target,1,10.499
8,58,numeric,0.1,0.05,target,target,1,9.248
8,59,numeric,0.1,0.2,target,target,1,11.163
8,60,perceptual,0.03,0.2,competitor,target,1,7.299
8,61,numeric,0.1,0.2,target,decoy,0,14.365
8,62,numeric,0.03,0.05,target,target,1,11.622
8,63,perceptual,0.1,0.05,target,decoy,0,9.983
8,64,numeric,0.03,0.05,competitor,decoy,0,4.951
8,65,perceptual,0.1,0.05,target,target,1,9.494
8,66,numeric,0.03,0.05,target,target,1,6.055
8,67,numeric,0.03,0.2,target,competitor,0,6.599
8,68,numeric,0.03,0.2,competitor,competitor,0,6.269
8,69,perceptual,0.03,0.2,competitor,decoy,0,4.55
8,70,perceptual,0.03,0.05,competitor,competitor,0,4.072
8,71,numeric,0.1,0.05,target,competitor,0,10.865
8,72,numeric,0.1,0.05,competitor,target,1,10.816
8,73,numeric,0.03,0.2,competitor,target,1,10.622
8,74,numeric,0.1,0.2,competitor,target,1,5.737
8,75,perceptual,0.1,0.05,competitor,target,1,5.667
8,76,perceptual,0.03,0.2,target,decoy,0,6.653
8,77,perceptual,0.1,0.2,competitor,decoy,0,5.737
8,78,perceptual,0.03,0.05,competitor,competitor,0,5.135
8,79,numeric,0.1,0.05,target,target,1,10.608
8,80,perceptual,0.1,0.2,competitor,target,1,7.14
8,81,perceptual,0.03,0.2,target,competitor,0,7.97
8,82,perceptual,0.1,0.05,target,competitor,0,17.485
8,83,numeric,0.03,0.2,target,target,1,11.983
8,84,perceptual,0.03,0.05,competitor,competitor,0,6.95
8,86,perceptual,0.1,0.2,competitor,competitor,0,0.208
8,87,numeric,0.1,0.2,target,target,1,8.734
8,88,perceptual,0.1,0.2,competitor,competitor,0,6.098
8,89,perceptual,0.1,0.2,target,decoy,0,6.397
8,90,perceptual,0.1,0.2,target,decoy,0,5.787
8,91,perceptual,0.03,0.2,target,decoy,0,4.986
8,92,numeric,0.03,0.2,competitor,target,1,14.383
8,93,perceptual,0.1,0.2,target,competitor,0,5.123
8,95,numeric,0.1,0.2,target,target,1,5.052
8,96,numeric,0.1,0.05,target,target,1,7.118
8,97,perceptual,0.03,0.2,competitor,decoy,0,5.335
8,98,perceptual,0.03,0.05,target,competitor,0,1.734
8,99,numeric,0.1,0.2,competitor,competitor,0,14.6
8,100,numeric,0.1,0.2,competitor,target,1,16.832
8,101,perceptual,0.03,0.2,target,competitor,0,7.885
8,102,numeric,0.1,0.05,competitor,target,1,9.115
8,103,numeric,0.1,0.2,competitor,competitor,0,10.965
8,104,perceptual,0.1,0.2,competitor,decoy,0,4.899
8,105,perceptual,0.1,0.2,competitor,competitor,0,2.381
8,106,perceptual,0.03,0.2,competitor,competitor,0,2.155
8,107,perceptual,0.1,0.05,competitor,target,1,1.72
8,108,numeric,0.03,0.2,target,competitor,0,7.12
8,109,numeric,0.03,0.2,competitor,target,1,5.716
8,110,perceptual,0.1,0.2,target,target,1,5.085
8,111,perceptual,0.03,0.05,target,competitor,0,4.599
8,112,numeric,0.1,0.05,target,decoy,0,12.035
8,113,perceptual,0.1,0.05,competitor,competitor,0,4.562
8,114,perceptual,0.1,0.05,competitor,decoy,0,4.973
8,115,numeric,0.03,0.05,target,competitor,0,10.081
8,116,numeric,0.03,0.2,competitor,competitor,0,10.364
8,117,perceptual,0.1,0.2,competitor,decoy,0,6.149
8,118,perceptual,0.1,0.05,target,competitor,0,3.287
8,119,numeric,0.03,0.2,competitor,competitor,0,7.569
8,120,numeric,0.03,0.2,competitor,competitor,0,9.234
8,121,numeric,0.03,0.05,target,target,1,9.959
8,122,numeric,0.1,0.05,competitor,competitor,0,7.514
8,123,numeric,0.1,0.05,competitor,competitor,0,13.565
8,124,perceptual,0.03,0.05,target,decoy,0,7.82
8,125,perceptual,0.1,0.2,target,competitor,0,8.217
8,126,numeric,0.1,0.05,competitor,target,1,7.086
8,127,numeric,0.1,0.05,target,competitor,0,5.587
8,128,numeric,0.03,0.2,target,competitor,0,8.799
8,129,perceptual,0.03,0.2,target,competitor,0,6.209
8,130,perceptual,0.1,0.05,target,competitor,0,6.118
8,131,numeric,0.1,0.2,competitor,target,1,10.067
8,132,numeric,0.1,0.2,competitor,target,1,5.849
8,133,perceptual,0.03,0.2,competitor,decoy,0,5.19
8,134,perceptual,0.03,0.05,target,competitor,0,4.503
8,135,numeric,0.03,0.05,competitor,target,1,5.401
8,136,numeric,0.03,0.05,competitor,target,1,16.084
8,137,perceptual,0.03,0.05,competitor,decoy,0,4.566
8,138,perceptual,0.03,0.05,target,decoy,0,10.486
8,139,numeric,0.1,0.05,target,target,1,6.784
8,140,perceptual,0.03,0.05,competitor,decoy,0,3.436
8,141,perceptual,0.03,0.05,target,target,1,4
8,142,numeric,0.03,0.2,competitor,target,1,6.95
8,143,numeric,0.1,0.05,competitor,target,1,5.2
8,144,numeric,0.1,0.05,competitor,competitor,0,6.618
8,145,numeric,0.03,0.2,target,target,1,10.953
8,146,numeric,0.03,0.05,competitor,target,1,11.371
8,147,perceptual,0.1,0.2,target,decoy,0,3.705
8,148,numeric,0.1,0.2,target,target,1,7.568
8,149,numeric,0.1,0.05,target,target,1,9.084
8,150,numeric,0.1,0.05,target,competitor,0,9.222
8,151,perceptual,0.03,0.05,target,competitor,0,5.533
8,152,perceptual,0.03,0.2,target,competitor,0,4.989
8,154,numeric,0.1,0.05,target,competitor,0,6.446
8,155,numeric,0.03,0.05,target,target,1,8.146
8,156,numeric,0.03,0.2,target,target,1,9.635
8,157,numeric,0.03,0.05,competitor,competitor,0,17.65
8,158,numeric,0.03,0.2,target,decoy,0,19.6
8,159,numeric,0.03,0.2,target,target,1,19.117
8,160,numeric,0.03,0.2,competitor,target,1,12.6
8,161,perceptual,0.1,0.05,competitor,target,1,11.889
8,162,numeric,0.03,0.05,target,target,1,8.72
8,163,perceptual,0.1,0.05,competitor,decoy,0,6.982
8,164,numeric,0.03,0.05,competitor,competitor,0,17.201
8,165,numeric,0.1,0.05,competitor,competitor,0,17.682
8,166,numeric,0.1,0.2,competitor,target,1,5.836
8,167,perceptual,0.1,0.05,competitor,competitor,0,10.65
8,168,perceptual,0.1,0.2,target,target,1,13.252
8,169,perceptual,0.1,0.05,competitor,decoy,0,6.199
8,170,numeric,0.03,0.2,target,target,1,6.686
8,171,numeric,0.03,0.2,competitor,competitor,0,11.667
8,172,perceptual,0.03,0.2,target,target,1,7.239
8,173,perceptual,0.03,0.05,target,decoy,0,5.706
8,174,perceptual,0.1,0.05,target,competitor,0,4.433
8,175,numeric,0.03,0.05,competitor,competitor,0,9.784
8,176,perceptual,0.1,0.05,target,target,1,6.339
8,177,perceptual,0.03,0.2,competitor,competitor,0,5.39
8,178,numeric,0.1,0.2,target,target,1,8.952
8,180,perceptual,0.1,0.05,target,target,1,5.957
8,181,perceptual,0.1,0.05,competitor,competitor,0,6.533
8,182,perceptual,0.03,0.05,target,competitor,0,3
8,183,numeric,0.1,0.2,competitor,target,1,5.673
8,184,numeric,0.1,0.2,target,target,1,16.601
8,185,perceptual,0.03,0.05,competitor,target,1,6.471
8,186,numeric,0.1,0.2,competitor,competitor,0,6.533
8,187,numeric,0.03,0.05,competitor,target,1,16.345
8,188,perceptual,0.03,0.2,target,competitor,0,6.866
8,189,perceptual,0.03,0.05,competitor,decoy,0,6.55
8,190,numeric,0.1,0.05,target,target,1,8.833
8,191,numeric,0.03,0.05,target,target,1,11.437
8,192,perceptual,0.1,0.05,target,target,1,5.117
9,1,numeric,0.03,0.05,target,competitor,0,12.137
9,2,numeric,0.03,0.05,target,competitor,0,6.2
9,3,perceptual,0.03,0.05,target,target,1,7.223
9,4,perceptual,0.1,0.05,competitor,target,1,6.204
9,5,perceptual,0.1,0.05,competitor,competitor,0,3.139
9,6,perceptual,0.03,0.05,competitor,target,1,5.551
9,7,numeric,0.03,0.2,competitor,target,1,9.738
9,8,perceptual,0.1,0.05,competitor,target,1,8.384
9,9,perceptual,0.1,0.2,target,target,1,7.132
9,10,numeric,0.1,0.2,target,decoy,0,9.09
9,11,numeric,0.03,0.2,target,target,1,5.208
9,12,perceptual,0.03,0.05,competitor,competitor,0,5.849
9,13,numeric,0.03,0.05,competitor,competitor,0,6.216
9,14,numeric,0.03,0.05,competitor,competitor,0,8.135
9,15,numeric,0.03,0.05,competitor,competitor,0,6.166
9,16,numeric,0.03,0.2,target,competitor,0,11.788
9,17,numeric,0.1,0.2,competitor,competitor,0,7.45
9,18,perceptual,0.03,0.05,competitor,target,1,8.334
9,19,numeric,0.03,0.05,competitor,target,1,7.116
9,20,perceptual,0.1,0.2,target,competitor,0,9.016
9,21,perceptual,0.03,0.05,target,decoy,0,8.535
9,22,perceptual,0.1,0.2,target,target,1,7.695
9,23,numeric,0.03,0.05,target,target,1,7.094
9,24,numeric,0.03,0.2,competitor,competitor,0,6.863
9,25,numeric,0.03,0.05,target,target,1,10.235
9,26,numeric,0.03,0.2,target,target,1,5.882
9,27,numeric,0.1,0.05,competitor,competitor,0,6.335
9,28,perceptual,0.1,0.2,competitor,target,1,5.118
9,29,numeric,0.03,0.05,target,target,1,7.266
9,30,numeric,0.1,0.05,target,target,1,5.484
9,31,perceptual,0.1,0.05,competitor,target,1,4.734
9,32,numeric,0.03,0.2,target,target,1,7.249
9,33,perceptual,0.03,0.2,competitor,target,1,8.557
9,34,perceptual,0.1,0.05,target,target,1,4.775
9,35,perceptual,0.1,0.05,target,decoy,0,10.499
9,36,numeric,0.1,0.05,competitor,competitor,0,7.156
9,37,perceptual,0.03,0.05,competitor,competitor,0,5.801
9,38,numeric,0.03,0.05,competitor,competitor,0,8.599
9,39,numeric,0.1,0.2,target,target,1,6.472
9,40,perceptual,0.03,0.05,competitor,decoy,0,4.091
9,41,perceptual,0.1,0.2,competitor,competitor,0,4.071
9,42,numeric,0.03,0.05,competitor,competitor,0,12.017
9,43,perceptual,0.03,0.2,competitor,competitor,0,5.837
9,44,numeric,0.1,0.05,competitor,target,1,7.449
9,45,perceptual,0.1,0.2,target,competitor,0,3.8
9,46,numeric,0.03,0.05,competitor,decoy,0,11.918
9,47,perceptual,0.1,0.2,competitor,target,1,3.588
9,48,numeric,0.1,0.2,target,target,1,6.933
9,49,numeric,0.03,0.2,competitor,target,1,6.452
9,50,perceptual,0.1,0.05,competitor,competitor,0,6.605
9,51,perceptual,0.1,0.05,target,competitor,0,4.554
9,52,numeric,0.1,0.05,competitor,target,1,7.059
9,53,perceptual,0.03,0.2,competitor,target,1,5.62
9,54,perceptual,0.03,0.2,target,competitor,0,4.652
9,55,perceptual,0.1,0.2,competitor,target,1,4.5
9,56,perceptual,0.1,0.05,competitor,competitor,0,6.303
9,57,perceptual,0.1,0.2,competitor,target,1,4.523
9,58,perceptual,0.03,0.05,competitor,decoy,0,5.305
9,59,numeric,0.03,0.05,target,target,1,8.556
9,60,numeric,0.1,0.05,target,target,1,8.781
9,61,numeric,0.03,0.2,competitor,competitor,0,8.979
9,62,perceptual,0.03,0.2,competitor,target,1,4.786
9,63,numeric,0.1,0.2,target,target,1,8.417
9,64,perceptual,0.1,0.05,target,target,1,2.95
9,65,perceptual,0.03,0.05,target,decoy,0,11.085
9,66,perceptual,0.1,0.05,competitor,target,1,5.784
9,67,perceptual,0.1,0.05,competitor,competitor,0,7.974
9,68,numeric,0.03,0.2,target,target,1,10.833
9,69,numeric,0.03,0.2,competitor,competitor,0,6.767
9,70,perceptual,0.03,0.2,competitor,competitor,0,5.519
9,71,numeric,0.1,0.05,target,target,1,4.337
9,72,perceptual,0.1,0.2,target,competitor,0,6.133
9,73,perceptual,0.1,0.05,target,decoy,0,5.166
9,74,numeric,0.1,0.2,target,target,1,5.4
9,75,perceptual,0.03,0.05,competitor,competitor,0,3.633
9,76,perceptual,0.1,0.2,competitor,target,1,2.988
9,77,perceptual,0.1,0.2,target,target,1,3.289
9,78,perceptual,0.03,0.05,target,target,1,6.572
9,79,perceptual,0.03,0.2,target,target,1,3.8
9,80,numeric,0.1,0.2,competitor,target,1,8.272
9,81,numeric,0.1,0.2,competitor,target,1,6.718
9,82,perceptual,0.1,0.2,target,target,1,7.183
9,83,perceptual,0.1,0.05,target,target,1,4.666
9,84,numeric,0.1,0.2,target,target,1,5.922
9,85,numeric,0.1,0.2,competitor,competitor,0,5.649
9,86,numeric,0.1,0.2,target,competitor,0,9.269
9,87,numeric,0.03,0.2,competitor,competitor,0,6.883
9,88,perceptual,0.03,0.2,target,target,1,3.921
9,89,perceptual,0.03,0.05,target,competitor,0,5.069
9,90,perceptual,0.03,0.2,target,competitor,0,4.733
9,91,numeric,0.03,0.2,target,target,1,6.22
9,92,perceptual,0.1,0.05,target,target,1,4.573
9,93,numeric,0.1,0.05,target,target,1,8.449
9,94,perceptual,0.1,0.05,competitor,competitor,0,4.823
9,95,numeric,0.1,0.05,target,target,1,9.819
9,96,perceptual,0.03,0.2,competitor,competitor,0,4.917
9,97,perceptual,0.03,0.2,competitor,target,1,4.521
9,98,numeric,0.1,0.05,target,target,1,7.148
9,99,perceptual,0.1,0.05,target,target,1,3.913
9,100,numeric,0.1,0.05,target,target,1,10.205
9,101,numeric,0.1,0.05,target,target,1,4.981
9,102,numeric,0.03,0.05,competitor,competitor,0,4.903
9,103,perceptual,0.1,0.05,target,competitor,0,3.818
9,104,perceptual,0.03,0.2,target,competitor,0,2.953
9,105,numeric,0.1,0.05,competitor,competitor,0,7.99
9,106,numeric,0.03,0.2,target,competitor,0,8.834
9,107,perceptual,0.03,0.05,target,competitor,0,5.42
9,108,perceptual,0.03,0.2,target,target,1,5.665
9,109,perceptual,0.03,0.2,competitor,competitor,0,3.349
9,110,numeric,0.03,0.2,target,decoy,0,3.412
9,111,perceptual,0.1,0.2,target,competitor,0,4.47
9,112,numeric,0.03,0.2,target,target,1,9.3
9,113,numeric,0.03,0.2,competitor,target,1,7.333
9,114,perceptual,0.1,0.2,competitor,target,1,3.072
9,115,numeric,0.03,0.05,target,target,1,4.866
9,116,numeric,0.03,0.05,target,target,1,8.18
9,117,perceptual,0.03,0.05,competitor,decoy,0,7.57
9,118,numeric,0.03,0.2,competitor,competitor,0,6.566
9,119,numeric,0.1,0.05,competitor,target,1,12.419
9,120,numeric,0.03,0.05,target,decoy,0,6.482
9,121,numeric,0.1,0.05,competitor,target,1,7.55
9,122,perceptual,0.1,0.2,competitor,target,1,3.449
9,123,numeric,0.03,0.2,competitor,target,1,5.817
9,124,numeric,0.03,0.05,competitor,target,1,4.849
9,125,numeric,0.1,0.05,competitor,decoy,0,6.342
9,126,numeric,0.1,0.05,competitor,competitor,0,6.705
9,127,perceptual,0.1,0.2,competitor,target,1,3.028
9,128,perceptual,0.1,0.2,competitor,target,1,2.663
9,129,perceptual,0.03,0.2,competitor,target,1,3.985
9,130,perceptual,0.1,0.2,target,target,1,3.052
9,131,perceptual,0.1,0.2,target,target,1,3.301
9,132,numeric,0.1,0.2,target,target,1,7.133
9,133,numeric,0.1,0.05,competitor,competitor,0,4.949
9,134,numeric,0.1,0.05,competitor,target,1,5.534
9,135,perceptual,0.03,0.05,target,competitor,0,1.216
9,136,perceptual,0.03,0.2,competitor,target,1,3.199
9,137,perceptual,0.03,0.05,competitor,target,1,3.55
9,138,numeric,0.1,0.05,competitor,target,1,6.45
9,139,perceptual,0.03,0.05,target,decoy,0,4.862
9,140,perceptual,0.03,0.05,competitor,decoy,0,3.513
9,141,numeric,0.1,0.2,competitor,target,1,8.1
9,142,numeric,0.1,0.05,target,target,1,9.849
9,143,numeric,0.1,0.2,target,target,1,4.085
9,144,numeric,0.1,0.2,competitor,target,1,6.7
9,145,numeric,0.1,0.2,competitor,competitor,0,5.752
9,146,numeric,0.03,0.05,competitor,competitor,0,10.552
9,147,perceptual,0.1,0.2,competitor,target,1,2.84
9,148,perceptual,0.1,0.2,target,target,1,3.618
9,149,perceptual,0.1,0.2,target,target,1,3.586
9,150,numeric,0.03,0.2,competitor,competitor,0,6.767
9,151,perceptual,0.03,0.2,competitor,target,1,3.341
9,152,perceptual,0.1,0.05,target,target,1,7.214
9,153,perceptual,0.03,0.05,target,target,1,3.98
9,154,perceptual,0.03,0.05,target,competitor,0,3.847
9,155,numeric,0.03,0.05,target,target,1,7.733
9,156,perceptual,0.03,0.05,target,competitor,0,5.437
9,157,perceptual,0.03,0.2,target,target,1,3.568
9,158,perceptual,0.1,0.05,competitor,decoy,0,6.634
9,159,perceptual,0.03,0.2,target,target,1,3.581
9,160,perceptual,0.1,0.2,competitor,target,1,2.737
9,161,numeric,0.03,0.05,competitor,competitor,0,5.211
9,162,numeric,0.1,0.2,competitor,competitor,0,6.795
9,163,numeric,0.1,0.2,competitor,competitor,0,7.896
9,164,perceptual,0.1,0.05,target,target,1,2.434
9,165,numeric,0.1,0.2,competitor,target,1,4.054
9,166,numeric,0.1,0.2,competitor,competitor,0,6.318
9,167,perceptual,0.03,0.05,target,target,1,5.451
9,168,perceptual,0.03,0.2,target,target,1,3.272
9,169,numeric,0.03,0.2,competitor,target,1,5.636
9,170,numeric,0.03,0.05,target,target,1,10.208
9,171,perceptual,0.03,0.2,target,target,1,3.732
9,172,perceptual,0.03,0.2,target,target,1,4.314
9,173,numeric,0.03,0.05,target,target,1,7.529
9,174,numeric,0.03,0.05,competitor,target,1,4.371
9,175,numeric,0.1,0.2,target,target,1,6.301
9,176,numeric,0.1,0.2,competitor,competitor,0,7.669
9,177,perceptual,0.1,0.05,target,target,1,5.477
9,178,numeric,0.03,0.2,target,target,1,5.168
9,179,numeric,0.1,0.2,target,target,1,4.33
9,180,numeric,0.1,0.05,target,target,1,7.139
9,181,perceptual,0.03,0.2,competitor,target,1,3.668
9,182,numeric,0.1,0.2,target,target,1,10.666
9,183,perceptual,0.03,0.05,competitor,decoy,0,3.651
9,184,numeric,0.03,0.2,target,competitor,0,11.42
9,185,perceptual,0.1,0.05,competitor,target,1,3.368
9,186,numeric,0.1,0.05,target,target,1,5.348
9,187,perceptual,0.03,0.05,competitor,competitor,0,5.62
9,188,perceptual,0.1,0.05,competitor,decoy,0,2.72
9,189,numeric,0.03,0.2,competitor,competitor,0,3.903
9,190,numeric,0.03,0.2,target,target,1,7.317
9,191,numeric,0.1,0.05,target,target,1,11.901
9,192,perceptual,0.03,0.2,target,target,1,3.42
10,1,perceptual,0.1,0.05,target,target,1,11.206
10,2,perceptual,0.03,0.2,target,decoy,0,12.097
10,3,numeric,0.1,0.2,competitor,target,1,8.41
10,4,perceptual,0.03,0.05,competitor,target,1,8.313
10,5,perceptual,0.1,0.05,target,competitor,0,10.328
10,6,numeric,0.1,0.2,target,target,1,18.981
10,7,numeric,0.1,0.2,competitor,competitor,0,12.611
10,8,numeric,0.03,0.05,competitor,competitor,0,12.367
10,9,numeric,0.03,0.05,competitor,competitor,0,11.434
10,10,numeric,0.03,0.05,target,target,1,12.887
10,11,numeric,0.1,0.2,target,target,1,10.796
10,12,perceptual,0.03,0.2,target,competitor,0,9.093
10,13,numeric,0.1,0.05,target,target,1,14.211
10,14,perceptual,0.03,0.2,competitor,target,1,4.743
10,15,numeric,0.03,0.2,target,target,1,4.178
10,16,numeric,0.1,0.05,target,target,1,5.412
10,17,perceptual,0.1,0.05,competitor,decoy,0,13.547
10,18,numeric,0.03,0.05,competitor,decoy,0,11.395
10,21,numeric,0.1,0.05,competitor,competitor,0,14.61
10,22,perceptual,0.03,0.05,target,target,1,12.142
10,23,numeric,0.1,0.05,competitor,target,1,17.925
10,24,numeric,0.1,0.2,target,target,1,13.219
10,25,numeric,0.03,0.2,competitor,competitor,0,8.198
10,26,perceptual,0.03,0.2,competitor,target,1,13.919
10,28,numeric,0.03,0.05,target,target,1,0.645
10,29,numeric,0.1,0.05,competitor,competitor,0,8.711
10,30,numeric,0.1,0.05,target,target,1,11.496
10,31,numeric,0.03,0.2,competitor,competitor,0,15.347
10,32,perceptual,0.03,0.2,target,competitor,0,9.986
10,33,perceptual,0.03,0.2,competitor,competitor,0,12.761
10,34,numeric,0.1,0.05,target,competitor,0,11.923
10,35,perceptual,0.03,0.05,competitor,competitor,0,4.994
10,36,numeric,0.1,0.2,target,target,1,11.101
10,37,numeric,0.1,0.05,target,target,1,5.422
10,38,perceptual,0.1,0.2,target,target,1,6.362
10,39,numeric,0.1,0.2,competitor,decoy,0,6.207
10,40,numeric,0.03,0.2,target,target,1,7.294
10,41,numeric,0.1,0.05,competitor,target,1,6.317
10,42,numeric,0.1,0.2,competitor,target,1,3.096
10,43,numeric,0.03,0.2,target,target,1,5.232
10,44,perceptual,0.03,0.05,target,target,1,5.496
10,45,perceptual,0.03,0.2,target,target,1,4.976
10,46,numeric,0.03,0.2,target,target,1,6.928
10,47,perceptual,0.1,0.2,target,target,1,4.28
10,48,perceptual,0.1,0.2,competitor,target,1,2.374
10,49,perceptual,0.1,0.2,target,target,1,4.385
10,52,numeric,0.1,0.2,target,target,1,5.676
10,53,perceptual,0.03,0.2,target,target,1,5.164
10,54,numeric,0.1,0.2,target,target,1,4.145
10,55,numeric,0.03,0.2,competitor,target,1,5.767
10,56,perceptual,0.03,0.2,target,target,1,9.227
10,57,perceptual,0.1,0.2,target,target,1,6.896
10,58,numeric,0.1,0.2,target,target,1,5.278
10,59,perceptual,0.1,0.05,competitor,target,1,4.428
10,60,perceptual,0.03,0.05,target,decoy,0,7.694
10,61,perceptual,0.1,0.05,target,target,1,2.408
10,62,numeric,0.03,0.05,target,decoy,0,4.829
10,63,perceptual,0.1,0.2,target,target,1,5.101
10,64,numeric,0.03,0.2,competitor,target,1,7.423
10,65,perceptual,0.03,0.2,competitor,target,1,5.351
10,66,numeric,0.03,0.05,competitor,target,1,6.697
10,67,perceptual,0.1,0.2,competitor,target,1,16.691
10,68,numeric,0.03,0.05,target,decoy,0,6.2
10,69,numeric,0.03,0.05,target,competitor,0,2.505
10,70,numeric,0.1,0.2,target,competitor,0,3.166
10,71,numeric,0.03,0.2,competitor,target,1,2.671
10,72,numeric,0.03,0.2,target,competitor,0,2.832
10,73,perceptual,0.03,0.05,competitor,competitor,0,4.265
10,74,numeric,0.1,0.05,competitor,target,1,3.995
10,75,perceptual,0.03,0.05,target,target,1,4.875
10,76,perceptual,0.03,0.2,target,target,1,5.691
10,77,perceptual,0.03,0.05,target,decoy,0,5.425
10,78,numeric,0.1,0.05,target,decoy,0,4.796
10,79,numeric,0.1,0.05,competitor,target,1,4.465
10,80,numeric,0.03,0.05,target,target,1,16.767
10,81,numeric,0.1,0.05,competitor,target,1,7.164
10,82,numeric,0.03,0.05,target,decoy,0,4.729
10,83,perceptual,0.03,0.2,competitor,target,1,4.951
10,84,numeric,0.1,0.05,target,decoy,0,7.14
10,85,perceptual,0.03,0.2,competitor,competitor,0,3.207
10,86,numeric,0.03,0.2,competitor,target,1,2.203
10,87,perceptual,0.1,0.2,target,decoy,0,4.238
10,88,perceptual,0.03,0.2,competitor,competitor,0,3.729
10,89,numeric,0.03,0.2,target,target,1,5.858
10,90,numeric,0.1,0.05,target,decoy,0,5.092
10,91,numeric,0.03,0.05,competitor,decoy,0,6.741
10,92,numeric,0.1,0.2,target,target,1,9.161
10,93,perceptual,0.03,0.2,competitor,target,1,5.728
10,94,numeric,0.1,0.2,target,target,1,5.347
10,95,perceptual,0.03,0.05,target,decoy,0,12.749
10,96,perceptual,0.1,0.2,competitor,decoy,0,4.259
10,97,perceptual,0.03,0.05,competitor,target,1,3.817
10,98,perceptual,0.03,0.05,competitor,target,1,5.178
10,99,numeric,0.03,0.05,competitor,target,1,9.246
10,100,perceptual,0.03,0.2,target,target,1,7.906
10,101,numeric,0.1,0.05,competitor,target,1,5.303
10,102,numeric,0.03,0.05,target,target,1,5.372
10,103,perceptual,0.1,0.05,competitor,target,1,5.468
10,104,numeric,0.1,0.05,target,decoy,0,4.121
10,105,perceptual,0.03,0.2,target,target,1,3.469
10,106,numeric,0.03,0.2,target,competitor,0,3.932
10,107,perceptual,0.1,0.05,competitor,target,1,4.067
10,108,numeric,0.1,0.05,competitor,target,1,3.904
10,109,perceptual,0.1,0.05,competitor,target,1,4.747
10,110,perceptual,0.03,0.05,competitor,competitor,0,4.822
10,111,numeric,0.1,0.2,competitor,target,1,8.832
10,112,perceptual,0.1,0.05,competitor,competitor,0,5.482
10,113,perceptual,0.1,0.2,target,target,1,3.699
10,114,perceptual,0.03,0.05,target,target,1,7.839
10,115,perceptual,0.03,0.05,target,target,1,3.826
10,116,perceptual,0.03,0.2,competitor,competitor,0,3.88
10,117,numeric,0.03,0.05,competitor,competitor,0,4.984
10,118,perceptual,0.1,0.05,competitor,decoy,0,7.961
10,119,perceptual,0.1,0.05,competitor,target,1,8.147
10,120,numeric,0.1,0.2,competitor,target,1,3.543
10,121,numeric,0.1,0.2,competitor,decoy,0,3.985
10,122,numeric,0.03,0.05,target,decoy,0,4.431
10,123,numeric,0.03,0.05,competitor,decoy,0,8.253
10,124,numeric,0.03,0.05,target,decoy,0,10.387
10,125,numeric,0.1,0.2,competitor,target,1,4.083
10,126,perceptual,0.1,0.2,target,target,1,5.326
10,127,numeric,0.03,0.05,competitor,target,1,3.309
10,128,numeric,0.03,0.2,target,competitor,0,5.124
10,129,perceptual,0.03,0.2,target,competitor,0,4.732
10,130,perceptual,0.1,0.05,target,target,1,5.046
10,131,numeric,0.1,0.2,target,target,1,5.215
10,132,perceptual,0.03,0.2,competitor,target,1,2.327
10,133,numeric,0.03,0.05,competitor,decoy,0,4.501
10,134,perceptual,0.1,0.2,competitor,target,1,3.008
10,135,perceptual,0.1,0.2,competitor,target,1,4.643
10,136,perceptual,0.03,0.05,competitor,decoy,0,3.061
10,137,perceptual,0.03,0.05,target,competitor,0,5.885
10,138,numeric,0.1,0.05,competitor,competitor,0,4.742
10,139,perceptual,0.03,0.05,target,target,1,5.346
10,140,perceptual,0.03,0.05,competitor,competitor,0,5.201
10,144,numeric,0.1,0.05,competitor,target,1,14.407
10,145,perceptual,0.1,0.2,competitor,target,1,3.925
10,146,perceptual,0.03,0.05,competitor,decoy,0,4.255
10,147,perceptual,0.1,0.2,competitor,target,1,3.621
10,148,perceptual,0.1,0.05,target,target,1,4.007
10,149,numeric,0.03,0.2,competitor,competitor,0,4.046
10,150,perceptual,0.1,0.05,target,decoy,0,2.568
10,151,numeric,0.1,0.2,competitor,target,1,4.69
10,152,numeric,0.03,0.05,competitor,decoy,0,2.214
10,153,numeric,0.03,0.05,target,competitor,0,3.54
10,154,perceptual,0.03,0.05,target,competitor,0,6.03
10,155,perceptual,0.1,0.2,competitor,target,1,2.111
10,156,perceptual,0.1,0.2,competitor,target,1,3.614
10,157,perceptual,0.03,0.2,target,target,1,3.086
10,158,numeric,0.1,0.05,target,target,1,5.256
10,159,perceptual,0.1,0.05,target,target,1,2.693
10,160,numeric,0.1,0.05,target,target,1,3.011
10,161,numeric,0.03,0.05,target,decoy,0,5.317
10,162,perceptual,0.1,0.2,target,decoy,0,3.589
10,163,numeric,0.1,0.05,competitor,target,1,4.108
10,164,perceptual,0.1,0.05,competitor,decoy,0,7.261
10,165,numeric,0.03,0.05,competitor,target,1,3.918
10,166,numeric,0.03,0.2,target,target,1,3.008
10,167,numeric,0.1,0.2,competitor,competitor,0,2.625
10,168,numeric,0.1,0.2,competitor,target,1,3.568
10,169,numeric,0.03,0.2,target,target,1,6.19
10,170,perceptual,0.1,0.05,competitor,target,1,4.923
10,171,perceptual,0.1,0.05,target,decoy,0,3.179
10,172,perceptual,0.1,0.2,competitor,target,1,3.658
10,173,numeric,0.03,0.2,competitor,competitor,0,3.255
10,174,perceptual,0.1,0.2,competitor,competitor,0,3.421
10,175,perceptual,0.03,0.2,competitor,target,1,4.356
10,176,numeric,0.03,0.2,competitor,competitor,0,3.257
10,177,numeric,0.03,0.2,target,target,1,4.304
10,178,numeric,0.1,0.2,target,competitor,0,2.898
10,179,numeric,0.03,0.2,competitor,target,1,4.046
10,180,numeric,0.1,0.05,target,target,1,2.654
10,181,perceptual,0.03,0.2,target,competitor,0,2.677
10,182,perceptual,0.03,0.2,competitor,target,1,6.911
10,183,numeric,0.03,0.2,competitor,target,1,4.553
10,184,perceptual,0.03,0.05,competitor,target,1,2.989
10,185,perceptual,0.1,0.2,target,target,1,3.267
10,186,numeric,0.03,0.2,competitor,target,1,5.799
10,187,numeric,0.03,0.2,target,decoy,0,5.469
10,188,perceptual,0.1,0.2,target,target,1,6.68
10,189,perceptual,0.1,0.05,competitor,target,1,3.65
10,190,perceptual,0.03,0.05,target,competitor,0,3.639
10,191,perceptual,0.03,0.05,competitor,target,1,3.26
10,192,perceptual,0.1,0.05,target,target,1,3.571
11,1,perceptual,0.03,0.2,target,competitor,0,5.158
11,2,perceptual,0.1,0.2,target,target,1,3.739
11,3,perceptual,0.1,0.05,target,target,1,6.486
11,4,numeric,0.1,0.2,competitor,target,1,10.978
11,5,numeric,0.1,0.2,competitor,target,1,7.43
11,6,numeric,0.1,0.2,competitor,target,1,5.768
11,7,perceptual,0.03,0.2,target,competitor,0,6.35
11,8,numeric,0.1,0.05,target,target,1,7.49
11,9,numeric,0.03,0.05,competitor,competitor,0,8.353
11,10,numeric,0.03,0.2,competitor,competitor,0,5.777
11,11,perceptual,0.03,0.05,target,target,1,6.159
11,12,perceptual,0.03,0.05,competitor,target,1,7.628
11,13,numeric,0.1,0.2,competitor,competitor,0,8.518
11,14,numeric,0.03,0.2,target,target,1,8
11,15,numeric,0.1,0.05,competitor,target,1,8.076
11,16,perceptual,0.1,0.05,competitor,target,1,4.919
11,17,perceptual,0.03,0.2,competitor,target,1,7.939
11,18,perceptual,0.1,0.05,competitor,competitor,0,6.81
11,19,numeric,0.03,0.05,target,target,1,6.208
11,20,numeric,0.1,0.05,target,target,1,7.993
11,21,perceptual,0.1,0.2,competitor,target,1,5.539
11,22,perceptual,0.1,0.2,target,target,1,6.398
11,23,numeric,0.03,0.2,competitor,target,1,15.624
11,24,numeric,0.1,0.05,target,target,1,8.003
11,25,numeric,0.03,0.05,competitor,target,1,12.208
11,26,numeric,0.03,0.05,competitor,competitor,0,10.904
11,27,perceptual,0.1,0.2,target,target,1,8.111
11,28,perceptual,0.03,0.05,target,target,1,7.76
11,29,numeric,0.1,0.2,competitor,target,1,8.128
11,30,numeric,0.1,0.2,competitor,target,1,5.639
11,31,numeric,0.03,0.05,target,target,1,9.257
11,32,numeric,0.03,0.2,target,target,1,10.635
11,33,numeric,0.1,0.05,competitor,target,1,15.963
11,34,perceptual,0.03,0.05,target,target,1,9
11,35,perceptual,0.03,0.05,target,target,1,5.57
11,36,numeric,0.03,0.05,competitor,target,1,10.646
11,37,numeric,0.03,0.2,target,target,1,14.62
11,38,perceptual,0.03,0.2,competitor,target,1,8.777
11,39,numeric,0.1,0.05,competitor,target,1,4.971
11,40,perceptual,0.03,0.2,competitor,target,1,7.038
11,41,perceptual,0.03,0.2,competitor,target,1,5.481
11,42,numeric,0.03,0.05,target,target,1,13.094
11,43,numeric,0.03,0.05,competitor,competitor,0,16.031
11,44,perceptual,0.03,0.2,target,target,1,6.552
11,45,perceptual,0.1,0.2,competitor,competitor,0,11.951
11,46,numeric,0.1,0.2,competitor,target,1,9.789
11,47,numeric,0.03,0.05,competitor,target,1,13.171
11,48,perceptual,0.03,0.05,competitor,target,1,16.596
11,49,numeric,0.1,0.05,competitor,target,1,8.444
11,50,perceptual,0.1,0.2,target,target,1,8.757
11,51,perceptual,0.1,0.05,target,target,1,9.544
11,52,numeric,0.1,0.05,target,target,1,12.577
11,53,perceptual,0.03,0.05,competitor,competitor,0,10.148
11,54,perceptual,0.1,0.2,competitor,target,1,4.218
11,55,perceptual,0.1,0.2,competitor,target,1,5.528
11,56,perceptual,0.03,0.05,competitor,competitor,0,4.771
11,57,perceptual,0.1,0.05,target,target,1,5.026
11,58,perceptual,0.1,0.2,competitor,target,1,7.31
11,59,perceptual,0.03,0.2,target,target,1,6.576
11,60,perceptual,0.1,0.05,competitor,target,1,10.096
11,61,numeric,0.03,0.2,target,competitor,0,11.905
11,62,numeric,0.03,0.05,competitor,target,1,9.625
11,63,perceptual,0.1,0.05,competitor,target,1,10.419
11,64,numeric,0.03,0.2,competitor,target,1,15.343
11,65,perceptual,0.1,0.2,competitor,target,1,8.556
11,66,numeric,0.1,0.2,target,target,1,9.753
11,67,perceptual,0.03,0.05,competitor,competitor,0,16.547
11,68,perceptual,0.03,0.2,competitor,competitor,0,7.977
11,69,perceptual,0.03,0.05,competitor,target,1,13.3
11,70,numeric,0.1,0.05,competitor,target,1,10.795
11,71,numeric,0.03,0.2,target,competitor,0,17.819
11,72,numeric,0.1,0.05,competitor,target,1,8.475
11,73,numeric,0.03,0.05,competitor,target,1,13.065
11,74,numeric,0.1,0.05,competitor,target,1,14.088
11,75,perceptual,0.1,0.2,target,target,1,9.501
11,76,numeric,0.03,0.2,target,target,1,7.275
11,77,numeric,0.1,0.2,target,target,1,9.496
11,78,numeric,0.1,0.05,competitor,target,1,7.29
11,79,perceptual,0.1,0.05,target,target,1,12.075
11,80,perceptual,0.03,0.05,target,target,1,5.439
11,81,numeric,0.03,0.05,target,competitor,0,19.594
11,82,perceptual,0.1,0.2,target,target,1,4.861
11,83,numeric,0.1,0.05,target,target,1,11.302
11,84,numeric,0.1,0.05,target,target,1,12.193
11,85,perceptual,0.03,0.05,competitor,target,1,13.251
11,86,numeric,0.03,0.05,target,competitor,0,14.594
11,87,perceptual,0.1,0.2,target,target,1,12.924
11,88,perceptual,0.03,0.05,competitor,target,1,8.77
11,89,numeric,0.1,0.05,competitor,target,1,11.306
11,90,perceptual,0.03,0.2,competitor,target,1,7.897
11,91,perceptual,0.1,0.05,target,target,1,5.806
11,92,numeric,0.03,0.05,competitor,target,1,10.224
11,93,perceptual,0.1,0.2,target,target,1,6.284
11,94,numeric,0.1,0.2,target,competitor,0,16.764
11,95,perceptual,0.1,0.05,competitor,target,1,7.908
11,96,numeric,0.1,0.2,target,target,1,10.623
11,97,perceptual,0.03,0.05,target,target,1,8.796
11,98,perceptual,0.03,0.05,target,target,1,6.276
11,99,perceptual,0.03,0.2,target,target,1,12.812
11,100,perceptual,0.03,0.05,target,target,1,11.156
11,101,numeric,0.1,0.2,competitor,competitor,0,16.764
11,102,perceptual,0.1,0.2,competitor,target,1,8.504
11,103,perceptual,0.1,0.2,competitor,target,1,7.834
11,104,numeric,0.1,0.05,target,target,1,8.179
11,105,perceptual,0.03,0.2,competitor,target,1,7.304
11,106,perceptual,0.03,0.2,competitor,target,1,6.626
11,107,numeric,0.03,0.2,competitor,target,1,11.968
11,108,numeric,0.1,0.2,competitor,target,1,12.364
11,109,numeric,0.03,0.05,target,target,1,10.89
11,110,numeric,0.03,0.2,competitor,competitor,0,9.963
11,111,numeric,0.1,0.05,competitor,target,1,8.869
11,112,numeric,0.1,0.2,target,target,1,10.046
11,113,perceptual,0.1,0.05,target,target,1,7.533
11,114,numeric,0.03,0.2,competitor,competitor,0,10.029
11,115,numeric,0.1,0.2,target,target,1,15.274
11,116,numeric,0.1,0.05,target,target,1,13.723
11,117,numeric,0.03,0.2,target,competitor,0,12.826
11,118,numeric,0.03,0.2,target,target,1,13.333
11,119,perceptual,0.1,0.2,competitor,target,1,9.976
11,120,numeric,0.1,0.2,target,target,1,7.421
11,121,numeric,0.03,0.05,target,competitor,0,10.964
11,122,perceptual,0.1,0.05,competitor,competitor,0,5.636
11,123,perceptual,0.1,0.2,target,target,1,9.257
11,124,numeric,0.1,0.2,competitor,target,1,12.388
11,125,perceptual,0.1,0.05,competitor,target,1,9.643
11,126,numeric,0.03,0.2,competitor,target,1,8.58
11,127,perceptual,0.03,0.2,competitor,target,1,7.153
11,128,perceptual,0.03,0.05,target,target,1,5.7
11,129,numeric,0.03,0.2,target,target,1,13.239
11,130,perceptual,0.03,0.05,competitor,target,1,8.406
11,131,numeric,0.03,0.05,competitor,target,1,9.831
11,132,perceptual,0.1,0.05,competitor,target,1,7.26
