participant,trial_counter,condition,target_to_competitor,decoy_reduction,decoy_on,chosen_item,correct,rt
1,1,numeric,0.1,0.2,target,target,1,12.972
1,2,perceptual,0.1,0.2,competitor,target,1,9.02
1,3,perceptual,0.03,0.05,competitor,competitor,0,11.342
1,4,numeric,0.03,0.2,target,decoy,0,5.784
1,5,perceptual,0.03,0.2,target,competitor,0,6.063
1,6,numeric,0.03,0.2,target,target,1,8.57
1,7,perceptual,0.1,0.2,target,decoy,0,8.241
1,8,numeric,0.1,0.05,competitor,target,1,6.874
1,9,numeric,0.1,0.05,competitor,target,1,6.643
1,10,numeric,0.1,0.2,competitor,target,1,8.823
1,11,numeric,0.1,0.05,competitor,target,1,8.499
1,12,numeric,0.1,0.05,competitor,competitor,0,5.389
1,13,perceptual,0.03,0.2,competitor,decoy,0,6.946
1,14,perceptual,0.03,0.2,target,competitor,0,6.946
1,15,perceptual,0.1,0.05,target,competitor,0,7.801
1,16,numeric,0.1,0.05,target,target,1,9.862
1,17,numeric,0.03,0.2,competitor,target,1,5.74
1,18,numeric,0.03,0.05,competitor,competitor,0,6.432
1,19,perceptual,0.1,0.2,target,target,1,4.951
1,20,perceptual,0.03,0.05,target,decoy,0,5.791
1,21,perceptual,0.1,0.2,competitor,target,1,7.511
1,22,numeric,0.1,0.2,target,target,1,7.207
1,23,numeric,0.03,0.2,competitor,target,1,9.28
1,24,perceptual,0.03,0.05,target,decoy,0,4.743
1,25,perceptual,0.03,0.05,competitor,target,1,9.284
1,26,perceptual,0.03,0.2,competitor,competitor,0,5.393
1,27,numeric,0.1,0.2,competitor,target,1,5.113
1,28,numeric,0.03,0.05,competitor,competitor,0,10.042
1,29,numeric,0.1,0.2,competitor,target,1,9.741
1,30,perceptual,0.1,0.2,target,competitor,0,4.129
1,31,perceptual,0.1,0.05,target,decoy,0,3.135
1,32,numeric,0.1,0.2,target,target,1,7.324
1,33,numeric,0.03,0.05,competitor,target,1,7.269
1,34,perceptual,0.1,0.2,target,competitor,0,4.464
1,35,numeric,0.1,0.05,competitor,target,1,5.984
1,36,numeric,0.1,0.2,competitor,target,1,10.589
1,37,perceptual,0.03,0.2,target,competitor,0,3.512
1,38,perceptual,0.03,0.2,competitor,competitor,0,7.574
1,39,perceptual,0.1,0.2,competitor,target,1,5.253
1,40,numeric,0.1,0.05,target,target,1,6.188
1,41,perceptual,0.03,0.2,target,competitor,0,4.694
1,42,perceptual,0.1,0.05,competitor,decoy,0,6.064
1,43,perceptual,0.03,0.05,competitor,competitor,0,4.91
1,44,numeric,0.03,0.2,competitor,competitor,0,8.561
1,45,perceptual,0.1,0.05,target,competitor,0,7.384
1,46,perceptual,0.1,0.2,competitor,decoy,0,6.737
1,47,numeric,0.1,0.05,target,decoy,0,5.568
1,48,perceptual,0.03,0.2,competitor,competitor,0,4.981
1,49,perceptual,0.1,0.2,competitor,target,1,6.341
1,50,numeric,0.03,0.05,competitor,target,1,8.237
1,51,numeric,0.1,0.2,competitor,competitor,0,13.019
1,52,numeric,0.1,0.2,competitor,target,1,10.151
1,53,perceptual,0.03,0.05,target,decoy,0,6.508
1,54,numeric,0.1,0.05,target,target,1,7.345
1,55,numeric,0.03,0.05,target,target,1,9.165
1,56,perceptual,0.03,0.2,target,target,1,7.807
1,57,numeric,0.1,0.05,target,competitor,0,12.134
1,58,perceptual,0.03,0.05,competitor,competitor,0,3.888
1,59,numeric,0.03,0.05,target,competitor,0,8.516
1,60,numeric,0.03,0.05,target,competitor,0,5.272
1,61,numeric,0.1,0.2,target,target,1,6.611
1,62,numeric,0.1,0.2,competitor,target,1,12.814
1,63,numeric,0.03,0.2,competitor,target,1,9.199
1,64,numeric,0.03,0.05,target,target,1,9.906
1,65,numeric,0.03,0.2,competitor,competitor,0,6.368
1,66,perceptual,0.1,0.05,competitor,decoy,0,7.318
1,67,perceptual,0.1,0.05,competitor,target,1,3.864
1,68,numeric,0.03,0.2,target,competitor,0,5.815
1,69,numeric,0.1,0.2,target,target,1,6.044
1,70,perceptual,0.1,0.2,competitor,competitor,0,5.72
1,71,perceptual,0.03,0.2,target,competitor,0,3.928
1,72,numeric,0.03,0.05,competitor,target,1,11.328
1,73,numeric,0.1,0.2,target,target,1,8.429
1,74,perceptual,0.1,0.05,target,decoy,0,4.037
1,75,perceptual,0.03,0.05,competitor,target,1,4.753
1,76,perceptual,0.03,0.05,competitor,competitor,0,5.848
1,77,numeric,0.1,0.05,target,target,1,10.041
1,78,numeric,0.1,0.2,target,decoy,0,9.755
1,79,perceptual,0.03,0.2,target,competitor,0,5.495
1,80,perceptual,0.03,0.05,target,competitor,0,7.052
1,81,perceptual,0.1,0.2,target,competitor,0,3.714
1,82,perceptual,0.1,0.05,target,competitor,0,3.374
1,83,perceptual,0.1,0.2,target,target,1,2.606
1,84,perceptual,0.03,0.2,competitor,competitor,0,3.758
1,85,perceptual,0.03,0.05,competitor,target,1,6.79
1,86,numeric,0.03,0.2,competitor,competitor,0,6.341
1,87,perceptual,0.03,0.2,target,target,1,6.971
1,88,perceptual,0.1,0.05,competitor,target,1,5.49
1,89,numeric,0.1,0.2,competitor,target,1,11.29
1,90,numeric,0.03,0.2,target,target,1,8.481
1,91,perceptual,0.1,0.2,competitor,decoy,0,8.534
1,92,perceptual,0.1,0.2,target,decoy,0,6.878
1,93,perceptual,0.03,0.2,competitor,competitor,0,6.112
1,94,numeric,0.03,0.2,competitor,competitor,0,8.409
1,95,perceptual,0.1,0.2,target,target,1,5.135
1,96,numeric,0.03,0.2,target,competitor,0,9.778
1,97,perceptual,0.03,0.2,target,competitor,0,5.228
1,98,numeric,0.1,0.2,target,target,1,5.93
1,99,numeric,0.1,0.2,competitor,target,1,7.537
1,100,numeric,0.03,0.05,target,competitor,0,6.667
1,101,perceptual,0.1,0.2,competitor,competitor,0,3.863
1,102,numeric,0.1,0.2,target,target,1,6.095
1,103,perceptual,0.1,0.05,competitor,competitor,0,2.848
1,104,numeric,0.03,0.2,competitor,target,1,8.937
1,105,perceptual,0.1,0.2,competitor,target,1,4.539
1,106,perceptual,0.03,0.05,competitor,target,1,3.857
1,107,perceptual,0.1,0.05,competitor,target,1,2.964
1,108,numeric,0.03,0.2,target,target,1,7.01
1,109,perceptual,0.1,0.05,competitor,decoy,0,4.352
1,110,numeric,0.03,0.2,target,target,1,7.544
1,111,perceptual,0.1,0.05,competitor,target,1,5.678
1,112,perceptual,0.03,0.2,target,competitor,0,4.828
1,113,numeric,0.1,0.05,target,target,1,6.75
1,114,numeric,0.03,0.2,target,target,1,12.38
1,115,numeric,0.03,0.2,target,competitor,0,7.869
1,116,numeric,0.1,0.2,target,target,1,10.47
1,117,perceptual,0.03,0.05,competitor,target,1,3.774
1,118,numeric,0.03,0.05,target,target,1,10.257
1,119,numeric,0.03,0.05,target,target,1,9.415
1,120,perceptual,0.1,0.05,competitor,target,1,3.372
1,121,perceptual,0.03,0.2,competitor,decoy,0,4.279
1,122,numeric,0.1,0.05,competitor,target,1,6.43
1,123,perceptual,0.03,0.2,competitor,competitor,0,3.862
1,124,perceptual,0.1,0.2,target,target,1,6.902
1,125,numeric,0.03,0.2,competitor,target,1,9.089
1,126,numeric,0.03,0.2,target,target,1,13.164
1,127,perceptual,0.1,0.05,competitor,competitor,0,3.94
1,128,perceptual,0.03,0.2,competitor,decoy,0,4.352
1,129,perceptual,0.03,0.05,target,decoy,0,6.269
1,130,perceptual,0.03,0.2,target,competitor,0,5.291
1,131,numeric,0.03,0.05,competitor,competitor,0,7.804
1,132,numeric,0.03,0.05,competitor,target,1,7.492
1,133,numeric,0.03,0.05,competitor,competitor,0,9.538
1,134,perceptual,0.03,0.05,target,competitor,0,6.484
1,135,numeric,0.03,0.05,target,target,1,6.346
1,136,perceptual,0.1,0.05,competitor,target,1,3.921
1,137,numeric,0.1,0.05,target,competitor,0,6.248
1,138,perceptual,0.1,0.05,target,target,1,3.214
1,139,perceptual,0.03,0.05,competitor,decoy,0,6.15
1,140,perceptual,0.03,0.2,competitor,target,1,3.64
1,141,numeric,0.03,0.05,target,target,1,9.521
1,142,perceptual,0.1,0.2,target,competitor,0,3.54
1,143,perceptual,0.1,0.2,competitor,target,1,4.602
1,144,numeric,0.1,0.05,competitor,target,1,6.973
1,145,numeric,0.1,0.05,competitor,target,1,5.469
1,146,perceptual,0.03,0.05,competitor,target,1,2.866
1,147,numeric,0.1,0.2,target,target,1,5.746
1,148,perceptual,0.1,0.05,target,decoy,0,2.871
1,149,perceptual,0.03,0.2,competitor,decoy,0,5.2
1,150,perceptual,0.03,0.05,target,decoy,0,4.585
1,151,perceptual,0.03,0.2,target,competitor,0,3.207
1,152,numeric,0.1,0.2,competitor,competitor,0,7.695
1,153,numeric,0.03,0.05,competitor,competitor,0,19.371
1,154,numeric,0.1,0.05,target,target,1,9.808
1,155,perceptual,0.03,0.05,target,competitor,0,0.478
1,156,numeric,0.1,0.2,competitor,target,1,10.843
1,157,perceptual,0.03,0.05,target,target,1,3.005
1,158,numeric,0.03,0.05,competitor,target,1,9.135
1,159,numeric,0.1,0.05,target,target,1,12.626
1,160,numeric,0.03,0.2,competitor,target,1,8.642
1,161,numeric,0.03,0.2,competitor,competitor,0,7.053
1,162,perceptual,0.1,0.05,target,target,1,4.407
1,163,perceptual,0.1,0.05,target,competitor,0,6.858
1,164,numeric,0.03,0.2,competitor,competitor,0,8.287
1,165,perceptual,0.03,0.05,competitor,competitor,0,4.208
1,166,perceptual,0.03,0.2,competitor,target,1,5.636
1,167,perceptual,0.03,0.05,target,competitor,0,4.801
1,168,numeric,0.03,0.05,competitor,competitor,0,10.905
1,169,numeric,0.1,0.05,competitor,target,1,11.098
1,170,perceptual,0.1,0.2,competitor,target,1,3.434
1,171,perceptual,0.1,0.05,target,target,1,4.076
1,172,perceptual,0.1,0.2,target,decoy,0,4.764
1,173,numeric,0.03,0.05,competitor,competitor,0,6.946
1,174,numeric,0.03,0.05,target,competitor,0,7.744
1,175,numeric,0.1,0.05,target,competitor,0,11.119
1,176,perceptual,0.1,0.05,target,competitor,0,2.688
1,177,perceptual,0.03,0.05,target,competitor,0,2.904
1,178,numeric,0.1,0.05,competitor,target,1,4.737
1,179,numeric,0.1,0.05,competitor,competitor,0,8.899
1,180,numeric,0.03,0.2,target,target,1,6.483
1,181,perceptual,0.1,0.2,target,decoy,0,4.406
1,182,perceptual,0.1,0.2,competitor,target,1,3.69
1,183,perceptual,0.1,0.05,competitor,competitor,0,8.417
1,184,numeric,0.03,0.05,target,target,1,8.434
1,185,numeric,0.1,0.05,competitor,competitor,0,10.105
1,186,perceptual,0.1,0.05,target,target,1,7.197
1,187,numeric,0.1,0.2,target,competitor,0,13.999
1,188,numeric,0.03,0.2,target,target,1,8.345
1,189,numeric,0.03,0.05,target,target,1,10.336
1,190,numeric,0.1,0.2,competitor,competitor,0,9.489
1,191,numeric,0.1,0.05,target,target,1,10.112
1,192,perceptual,0.03,0.05,target,decoy,0,5.17
2,1,perceptual,0.1,0.05,competitor,target,1,6.26
2,2,numeric,0.1,0.2,competitor,target,1,8.755
2,3,numeric,0.1,0.2,target,competitor,0,4.983
2,4,perceptual,0.1,0.05,target,competitor,0,2.649
2,5,perceptual,0.03,0.05,target,target,1,4.868
2,6,perceptual,0.03,0.05,competitor,target,1,5.754
2,7,numeric,0.1,0.2,target,competitor,0,4.198
2,8,perceptual,0.1,0.2,target,target,1,2.634
2,9,numeric,0.03,0.05,target,target,1,5.25
2,10,numeric,0.1,0.2,target,target,1,6.931
2,11,perceptual,0.03,0.05,competitor,competitor,0,3.972
2,12,numeric,0.1,0.2,target,target,1,6.741
2,13,numeric,0.03,0.2,competitor,target,1,5.449
2,14,perceptual,0.1,0.2,target,target,1,2.198
2,15,numeric,0.03,0.05,target,target,1,6.117
2,16,numeric,0.03,0.2,target,target,1,5.416
2,17,perceptual,0.03,0.05,competitor,competitor,0,3.073
2,18,perceptual,0.03,0.05,competitor,competitor,0,4.363
2,19,numeric,0.03,0.2,target,competitor,0,6.082
2,20,numeric,0.03,0.05,target,competitor,0,3.748
2,21,numeric,0.03,0.2,competitor,competitor,0,8.53
2,22,perceptual,0.1,0.2,competitor,target,1,2.644
2,23,numeric,0.03,0.2,competitor,target,1,5.683
2,24,numeric,0.03,0.05,target,competitor,0,4.454
2,25,perceptual,0.1,0.2,competitor,target,1,7.921
2,26,numeric,0.03,0.05,target,target,1,6.965
2,27,numeric,0.1,0.05,competitor,target,1,6.819
2,28,numeric,0.1,0.2,target,target,1,6.905
2,29,perceptual,0.03,0.2,target,target,1,3.248
2,30,numeric,0.1,0.05,competitor,competitor,0,4.326
2,31,perceptual,0.1,0.05,target,competitor,0,5.315
2,32,perceptual,0.03,0.05,competitor,target,1,2.98
2,33,perceptual,0.03,0.05,target,target,1,2.003
2,34,numeric,0.03,0.05,target,competitor,0,3.391
2,35,numeric,0.1,0.05,competitor,decoy,0,4.782
2,36,numeric,0.03,0.2,target,competitor,0,7.125
2,37,perceptual,0.1,0.05,competitor,target,1,3.291
2,38,perceptual,0.03,0.2,competitor,competitor,0,7.164
2,39,numeric,0.03,0.05,competitor,decoy,0,7.053
2,40,numeric,0.03,0.2,competitor,target,1,8.496
2,41,perceptual,0.03,0.2,target,target,1,0.053
2,42,numeric,0.03,0.05,competitor,target,1,5.071
2,43,numeric,0.1,0.2,competitor,competitor,0,5.066
2,44,perceptual,0.1,0.05,target,target,1,3.724
2,45,perceptual,0.1,0.2,target,target,1,3.734
2,46,perceptual,0.03,0.2,competitor,target,1,2.204
2,47,numeric,0.1,0.2,competitor,target,1,5.99
2,48,numeric,0.03,0.05,target,target,1,7.186
2,49,perceptual,0.1,0.2,competitor,competitor,0,2.559
2,50,numeric,0.03,0.05,competitor,competitor,0,5.917
2,51,perceptual,0.1,0.2,competitor,target,1,2.665
2,52,numeric,0.03,0.2,target,target,1,6.179
2,53,numeric,0.03,0.2,competitor,competitor,0,4.697
2,54,numeric,0.03,0.05,target,competitor,0,7.405
2,55,numeric,0.1,0.05,competitor,target,1,7.251
2,56,numeric,0.1,0.05,target,target,1,6.455
2,57,perceptual,0.03,0.05,competitor,competitor,0,3.749
2,58,numeric,0.03,0.2,competitor,target,1,5.571
2,59,numeric,0.1,0.05,competitor,target,1,6.072
2,60,perceptual,0.1,0.05,competitor,target,1,3.357
2,61,perceptual,0.03,0.2,competitor,target,1,3.099
2,62,perceptual,0.03,0.05,target,target,1,3.29
2,63,numeric,0.03,0.05,competitor,competitor,0,7.899
2,64,numeric,0.03,0.2,target,target,1,5.461
2,65,perceptual,0.1,0.05,target,decoy,0,4.672
2,66,numeric,0.1,0.2,competitor,target,1,5.938
2,67,numeric,0.1,0.05,target,target,1,7.506
2,68,numeric,0.03,0.2,target,target,1,6.571
2,69,perceptual,0.03,0.2,competitor,competitor,0,2.874
2,70,perceptual,0.1,0.2,target,target,1,3.548
2,71,perceptual,0.03,0.05,competitor,target,1,4.416
2,72,perceptual,0.1,0.05,target,competitor,0,4.598
2,73,numeric,0.1,0.2,target,target,1,5.197
2,74,perceptual,0.1,0.2,competitor,competitor,0,3.348
2,75,numeric,0.03,0.2,competitor,target,1,4.715
2,76,perceptual,0.03,0.2,competitor,target,1,2.496
2,77,numeric,0.1,0.2,competitor,competitor,0,2.915
2,78,perceptual,0.03,0.05,target,decoy,0,2.443
2,79,perceptual,0.03,0.05,competitor,target,1,4.812
2,80,perceptual,0.03,0.2,target,target,1,2.771
2,81,perceptual,0.1,0.2,target,target,1,3.36
2,82,numeric,0.03,0.2,target,target,1,5.864
2,83,numeric,0.1,0.05,target,target,1,6.279
2,84,perceptual,0.1,0.05,target,target,1,2.288
2,85,numeric,0.03,0.2,competitor,competitor,0,3.234
2,86,perceptual,0.03,0.05,target,target,1,4.748
2,87,numeric,0.03,0.2,target,target,1,4.203
2,88,perceptual,0.03,0.05,competitor,competitor,0,3.051
2,89,numeric,0.03,0.2,target,target,1,6.118
2,90,numeric,0.1,0.2,competitor,target,1,5.152
2,91,numeric,0.1,0.2,target,target,1,7.248
2,92,perceptual,0.03,0.2,competitor,target,1,2.968
2,93,perceptual,0.03,0.05,competitor,target,1,3.122
2,94,numeric,0.1,0.05,competitor,target,1,5.389
2,95,numeric,0.1,0.05,target,decoy,0,5.122
2,96,perceptual,0.1,0.05,competitor,competitor,0,3.266
2,97,numeric,0.1,0.05,target,target,1,4.158
2,98,numeric,0.03,0.05,target,target,1,7.206
2,99,perceptual,0.03,0.05,target,decoy,0,2.663
2,100,perceptual,0.03,0.2,target,competitor,0,3.661
2,101,numeric,0.03,0.2,competitor,target,1,7.037
2,102,numeric,0.03,0.05,target,target,1,9.028
2,103,perceptual,0.1,0.05,competitor,competitor,0,3.579
2,104,perceptual,0.1,0.2,target,competitor,0,4.985
2,105,perceptual,0.1,0.05,target,decoy,0,3.714
2,106,perceptual,0.1,0.05,target,decoy,0,3.766
2,107,numeric,0.1,0.05,competitor,competitor,0,5.348
2,108,perceptual,0.03,0.2,competitor,competitor,0,3.554
2,109,numeric,0.1,0.05,target,target,1,4.914
2,110,numeric,0.03,0.05,competitor,target,1,7.163
2,111,perceptual,0.1,0.2,competitor,target,1,2.61
2,112,numeric,0.1,0.2,competitor,target,1,14.911
2,113,perceptual,0.1,0.2,target,target,1,3.178
2,114,numeric,0.03,0.2,target,competitor,0,5.168
2,115,perceptual,0.1,0.05,competitor,competitor,0,3.418
2,116,numeric,0.03,0.05,competitor,target,1,10.148
2,117,perceptual,0.1,0.2,competitor,target,1,2.476
2,118,numeric,0.1,0.05,competitor,target,1,6.014
2,119,numeric,0.1,0.05,competitor,target,1,5.385
2,120,perceptual,0.03,0.2,competitor,target,1,3.551
2,121,numeric,0.03,0.2,target,target,1,7.522
2,122,numeric,0.1,0.05,competitor,target,1,8.435
2,123,numeric,0.03,0.05,competitor,decoy,0,8.102
2,124,numeric,0.1,0.2,competitor,target,1,9.921
2,125,numeric,0.03,0.2,competitor,competitor,0,5.637
2,126,perceptual,0.1,0.2,competitor,target,1,3.231
2,127,numeric,0.1,0.2,target,target,1,7.38
2,128,numeric,0.1,0.2,target,target,1,7.615
2,129,numeric,0.1,0.2,competitor,target,1,5.177
2,130,numeric,0.03,0.05,target,competitor,0,5.03
2,131,numeric,0.1,0.05,competitor,target,1,5.352
2,132,perceptual,0.03,0.05,target,target,1,3.965
2,133,perceptual,0.03,0.2,competitor,competitor,0,3.129
2,134,perceptual,0.03,0.2,target,target,1,2.732
2,135,perceptual,0.03,0.05,target,competitor,0,4.4
2,136,perceptual,0.03,0.2,target,target,1,2.985
2,137,perceptual,0.1,0.2,target,target,1,3.246
2,138,numeric,0.03,0.05,competitor,target,1,9.422
2,139,numeric,0.1,0.2,competitor,target,1,7.651
2,140,perceptual,0.03,0.2,competitor,competitor,0,5.15
2,141,numeric,0.1,0.05,target,target,1,3.814
2,142,numeric,0.03,0.05,competitor,target,1,5.862
2,143,perceptual,0.1,0.2,competitor,target,1,3.901
2,144,numeric,0.1,0.2,target,target,1,4.874
2,145,numeric,0.03,0.05,competitor,target,1,5.138
2,146,perceptual,0.03,0.2,target,target,1,2.444
2,147,perceptual,0.03,0.05,target,competitor,0,4.908
2,148,numeric,0.1,0.05,target,target,1,6.584
2,149,perceptual,0.1,0.2,target,competitor,0,4.699
2,150,perceptual,0.03,0.2,target,competitor,0,2.482
2,151,numeric,0.03,0.05,target,target,1,4.709
2,152,perceptual,0.1,0.2,competitor,target,1,2.295
2,153,perceptual,0.1,0.2,target,competitor,0,2.851
2,154,perceptual,0.1,0.05,target,target,1,4.274
2,155,perceptual,0.1,0.05,competitor,target,1,3.771
2,156,numeric,0.1,0.05,target,target,1,3.853
2,157,perceptual,0.03,0.2,target,target,1,2.601
2,158,numeric,0.03,0.05,competitor,competitor,0,5.171
2,159,perceptual,0.1,0.2,target,competitor,0,2.648
2,160,perceptual,0.03,0.05,target,target,1,2.282
2,161,perceptual,0.1,0.05,competitor,target,1,4.316
2,162,numeric,0.03,0.05,competitor,target,1,4.068
2,163,perceptual,0.1,0.2,competitor,target,1,2.715
2,164,perceptual,0.1,0.05,competitor,target,1,3.043
2,165,perceptual,0.1,0.2,competitor,competitor,0,3.063
2,166,numeric,0.03,0.2,target,target,1,9.041
2,167,perceptual,0.03,0.2,competitor,competitor,0,2.834
2,168,numeric,0.1,0.05,target,target,1,4.449
2,169,numeric,0.1,0.2,competitor,target,1,7.973
2,170,perceptual,0.03,0.05,target,competitor,0,2.433
2,171,numeric,0.1,0.05,competitor,competitor,0,8.787
2,172,perceptual,0.03,0.2,target,competitor,0,3.2
2,173,numeric,0.1,0.2,target,target,1,8.855
2,174,perceptual,0.03,0.2,competitor,target,1,2.532
2,175,perceptual,0.1,0.05,target,competitor,0,1.987
2,176,numeric,0.1,0.2,competitor,target,1,4.356
2,177,perceptual,0.1,0.05,competitor,decoy,0,4.585
2,178,perceptual,0.03,0.2,target,decoy,0,2.511
2,179,perceptual,0.03,0.2,target,competitor,0,2.925
2,180,perceptual,0.1,0.2,target,competitor,0,3.229
2,181,numeric,0.03,0.2,competitor,competitor,0,7.757
2,182,perceptual,0.03,0.05,competitor,target,1,3.332
2,183,perceptual,0.1,0.05,competitor,target,1,2.637
2,184,perceptual,0.1,0.05,target,competitor,0,3.398
2,185,perceptual,0.1,0.05,competitor,target,1,3.065
2,186,numeric,0.1,0.05,target,target,1,6.376
2,187,numeric,0.1,0.2,target,target,1,4.413
2,188,perceptual,0.03,0.05,competitor,competitor,0,2.229
2,189,perceptual,0.1,0.05,target,decoy,0,4.778
2,190,perceptual,0.03,0.05,target,competitor,0,3.111
2,191,numeric,0.03,0.2,competitor,target,1,4.194
2,192,numeric,0.1,0.05,target,target,1,5.492
3,1,perceptual,0.03,0.2,target,target,1,8.206
3,2,perceptual,0.1,0.05,competitor,competitor,0,6.714
3,3,numeric,0.03,0.05,competitor,target,1,7.523
3,4,perceptual,0.1,0.2,competitor,competitor,0,5.33
3,5,numeric,0.1,0.2,competitor,competitor,0,4.886
3,6,perceptual,0.1,0.2,target,competitor,0,2.837
3,7,perceptual,0.03,0.05,target,target,1,1.498
3,8,perceptual,0.1,0.2,competitor,target,1,1.33
3,9,numeric,0.1,0.2,target,target,1,1.3
3,10,perceptual,0.03,0.2,competitor,target,1,1.263
3,11,numeric,0.1,0.2,competitor,target,1,1.3
3,12,perceptual,0.03,0.2,target,decoy,0,2.522
3,13,perceptual,0.03,0.05,target,target,1,1.402
3,14,perceptual,0.03,0.2,competitor,competitor,0,1.941
3,15,numeric,0.1,0.05,target,target,1,4.248
3,16,perceptual,0.1,0.2,target,target,1,1.821
3,17,perceptual,0.1,0.2,target,competitor,0,1.718
3,18,perceptual,0.03,0.2,competitor,decoy,0,1.565
3,19,perceptual,0.1,0.2,target,competitor,0,1.247
3,20,perceptual,0.03,0.2,competitor,competitor,0,1.133
3,21,numeric,0.03,0.2,target,decoy,0,0.99
3,22,perceptual,0.1,0.2,target,target,1,1.346
3,23,perceptual,0.1,0.05,competitor,decoy,0,1.434
3,24,perceptual,0.03,0.05,competitor,target,1,1.301
3,25,perceptual,0.1,0.2,competitor,decoy,0,1.321
3,26,perceptual,0.03,0.05,target,decoy,0,1.267
3,27,numeric,0.1,0.05,target,target,1,1.287
3,28,perceptual,0.03,0.2,target,competitor,0,1.044
3,29,perceptual,0.1,0.2,competitor,target,1,1.1
3,30,numeric,0.03,0.2,competitor,target,1,1.214
3,31,perceptual,0.1,0.05,target,competitor,0,1.11
3,32,perceptual,0.03,0.2,target,decoy,0,1.195
3,33,numeric,0.03,0.2,competitor,competitor,0,5.345
3,34,perceptual,0.03,0.05,competitor,competitor,0,1.25
3,35,perceptual,0.03,0.2,target,competitor,0,1.279
3,36,perceptual,0.03,0.2,competitor,decoy,0,1.121
3,37,numeric,0.1,0.05,competitor,decoy,0,1.216
3,38,numeric,0.1,0.2,competitor,target,1,1.197
3,39,numeric,0.1,0.2,target,competitor,0,1.246
3,40,perceptual,0.1,0.2,target,decoy,0,1.444
3,41,perceptual,0.03,0.05,target,decoy,0,1.273
3,42,numeric,0.03,0.05,competitor,decoy,0,1.278
3,43,perceptual,0.03,0.05,competitor,target,1,1.272
3,44,perceptual,0.1,0.05,target,target,1,1.284
3,45,numeric,0.1,0.05,competitor,target,1,1.345
3,46,perceptual,0.03,0.05,competitor,target,1,1.269
3,47,perceptual,0.1,0.2,target,decoy,0,1.322
3,48,numeric,0.03,0.05,competitor,competitor,0,1.29
3,49,perceptual,0.1,0.05,target,decoy,0,1.302
3,50,perceptual,0.1,0.05,competitor,decoy,0,1.24
3,51,numeric,0.1,0.05,target,competitor,0,1.281
3,52,numeric,0.1,0.2,target,decoy,0,1.278
3,53,numeric,0.1,0.05,competitor,target,1,1.496
3,54,perceptual,0.1,0.05,target,decoy,0,1.31
3,55,perceptual,0.03,0.05,competitor,competitor,0,1.31
3,56,numeric,0.1,0.05,target,target,1,1.272
3,57,perceptual,0.03,0.05,target,decoy,0,1.474
3,58,perceptual,0.03,0.2,competitor,competitor,0,1.474
3,59,perceptual,0.1,0.05,target,competitor,0,1.398
3,60,numeric,0.03,0.05,target,competitor,0,3.445
3,61,perceptual,0.03,0.05,target,decoy,0,1.927
3,62,perceptual,0.03,0.05,target,decoy,0,2.11
3,63,numeric,0.03,0.05,target,target,1,3.32
3,64,perceptual,0.03,0.2,target,competitor,0,1.814
3,65,numeric,0.1,0.05,competitor,competitor,0,4.222
3,66,numeric,0.03,0.05,target,target,1,8.818
3,67,numeric,0.03,0.05,target,target,1,5.027
3,68,numeric,0.03,0.05,competitor,competitor,0,2.156
3,69,perceptual,0.1,0.2,competitor,decoy,0,1.883
3,70,perceptual,0.1,0.2,target,competitor,0,1.899
3,71,numeric,0.1,0.05,competitor,decoy,0,1.54
3,72,perceptual,0.03,0.05,competitor,target,1,1.616
3,73,perceptual,0.03,0.05,target,target,1,4.928
3,74,perceptual,0.03,0.2,competitor,competitor,0,3.599
3,75,perceptual,0.03,0.2,competitor,competitor,0,3.493
3,76,numeric,0.1,0.2,competitor,target,1,4.178
3,77,numeric,0.1,0.05,competitor,target,1,6.243
3,78,numeric,0.03,0.2,target,competitor,0,3.674
3,79,perceptual,0.1,0.2,target,competitor,0,2.651
3,80,numeric,0.1,0.2,target,target,1,5.598
3,81,perceptual,0.1,0.05,competitor,competitor,0,3.328
3,82,numeric,0.1,0.2,competitor,target,1,8.135
3,83,perceptual,0.03,0.05,target,decoy,0,4.647
3,84,perceptual,0.1,0.05,competitor,competitor,0,1.38
3,85,numeric,0.1,0.05,target,competitor,0,1.67
3,86,numeric,0.03,0.2,target,target,1,2.908
3,87,numeric,0.03,0.05,competitor,competitor,0,3.96
3,88,perceptual,0.1,0.05,competitor,competitor,0,2.039
3,89,numeric,0.1,0.2,target,target,1,6.128
3,90,perceptual,0.03,0.2,target,competitor,0,2.817
3,91,numeric,0.03,0.2,target,competitor,0,4.67
3,92,numeric,0.03,0.05,target,target,1,4.925
3,93,perceptual,0.03,0.2,target,target,1,2.055
3,94,perceptual,0.03,0.2,target,decoy,0,2.219
3,95,perceptual,0.1,0.2,competitor,competitor,0,2.361
3,96,numeric,0.03,0.2,competitor,competitor,0,5.791
3,97,perceptual,0.03,0.05,target,target,1,2.033
3,98,numeric,0.03,0.2,competitor,decoy,0,3.2
3,99,numeric,0.03,0.2,target,competitor,0,4.011
3,100,numeric,0.03,0.05,competitor,target,1,2.967
3,101,numeric,0.1,0.05,competitor,target,1,3.977
3,102,numeric,0.03,0.2,target,decoy,0,3.862
3,103,numeric,0.1,0.2,target,competitor,0,4.648
3,104,numeric,0.03,0.05,target,decoy,0,5.71
3,105,numeric,0.03,0.2,target,decoy,0,4.244
3,106,numeric,0.1,0.05,target,decoy,0,1.633
3,107,perceptual,0.03,0.05,competitor,decoy,0,1.811
3,108,numeric,0.03,0.2,target,target,1,1.946
3,109,numeric,0.1,0.2,target,target,1,1.679
3,110,numeric,0.03,0.05,target,decoy,0,1.817
3,111,numeric,0.03,0.05,competitor,target,1,1.793
3,112,numeric,0.1,0.05,target,target,1,1.961
3,113,perceptual,0.03,0.05,competitor,target,1,1.645
3,114,perceptual,0.1,0.05,competitor,decoy,0,1.671
3,115,numeric,0.03,0.05,competitor,competitor,0,4.878
3,116,perceptual,0.1,0.2,competitor,target,1,2.801
3,117,numeric,0.1,0.2,competitor,target,1,1.856
3,118,perceptual,0.1,0.2,competitor,target,1,1.464
3,119,perceptual,0.03,0.2,competitor,competitor,0,1.309
3,120,perceptual,0.03,0.2,target,competitor,0,1.338
3,121,numeric,0.03,0.05,target,competitor,0,1.523
3,122,perceptual,0.03,0.2,target,decoy,0,1.295
3,123,numeric,0.1,0.2,target,decoy,0,1.259
3,124,numeric,0.1,0.05,competitor,competitor,0,1.622
3,125,numeric,0.03,0.2,competitor,decoy,0,1.334
3,126,numeric,0.03,0.05,target,decoy,0,1.348
3,127,perceptual,0.03,0.05,competitor,decoy,0,1.295
3,128,perceptual,0.1,0.05,competitor,competitor,0,1.383
3,129,numeric,0.1,0.05,target,competitor,0,1.702
3,130,perceptual,0.1,0.05,target,decoy,0,1.311
3,131,perceptual,0.1,0.05,target,competitor,0,1.435
3,132,perceptual,0.1,0.05,target,decoy,0,1.308
3,133,numeric,0.1,0.05,competitor,decoy,0,1.294
3,134,perceptual,0.1,0.2,competitor,competitor,0,1.154
3,135,perceptual,0.1,0.2,target,target,1,1.326
3,136,numeric,0.03,0.2,competitor,competitor,0,1.245
3,137,numeric,0.03,0.2,competitor,competitor,0,1.311
3,138,perceptual,0.1,0.05,competitor,target,1,1.33
3,139,perceptual,0.1,0.05,competitor,decoy,0,1.259
3,140,numeric,0.03,0.05,target,competitor,0,1.352
3,141,numeric,0.03,0.05,competitor,decoy,0,1.443
3,142,numeric,0.03,0.05,competitor,decoy,0,1.319
3,143,perceptual,0.03,0.05,competitor,competitor,0,1.724
3,144,numeric,0.03,0.05,target,target,1,1.374
3,145,numeric,0.03,0.2,target,decoy,0,1.65
3,146,perceptual,0.03,0.05,target,target,1,1.726
3,147,perceptual,0.1,0.05,target,decoy,0,0
3,148,numeric,0.1,0.05,target,decoy,0,1.502
3,149,perceptual,0.03,0.05,competitor,decoy,0,2.223
3,150,perceptual,0.1,0.05,competitor,target,1,1.58
3,151,numeric,0.1,0.05,competitor,target,1,1.45
3,152,numeric,0.1,0.2,competitor,competitor,0,0.003
3,153,numeric,0.03,0.2,target,decoy,0,0.202
3,154,numeric,0.03,0.2,competitor,target,1,1.807
3,155,perceptual,0.03,0.05,competitor,decoy,0,1.363
3,156,perceptual,0.03,0.2,competitor,target,1,1.582
3,157,numeric,0.03,0.05,competitor,target,1,1.378
3,158,numeric,0.03,0.2,competitor,target,1,1.34
3,159,numeric,0.03,0.2,competitor,decoy,0,1.361
3,160,numeric,0.03,0.05,target,decoy,0,1.847
3,161,perceptual,0.1,0.05,target,competitor,0,1.689
3,162,numeric,0.03,0.2,target,competitor,0,1.681
3,163,numeric,0.1,0.05,competitor,target,1,5.279
3,164,numeric,0.1,0.2,target,target,1,6.675
3,165,numeric,0.1,0.2,target,competitor,0,2.859
3,166,numeric,0.03,0.2,target,target,1,4.921
3,167,perceptual,0.03,0.05,target,decoy,0,2.154
3,168,perceptual,0.1,0.2,competitor,target,1,1.645
3,169,numeric,0.1,0.05,competitor,target,1,5.105
3,170,numeric,0.1,0.2,target,competitor,0,3.983
3,171,numeric,0.1,0.2,competitor,target,1,4.534
3,172,numeric,0.1,0.2,competitor,target,1,7.01
3,173,numeric,0.03,0.05,competitor,target,1,3.325
3,174,perceptual,0.1,0.2,competitor,target,1,3.968
3,175,perceptual,0.1,0.2,competitor,decoy,0,2.218
3,176,numeric,0.1,0.2,competitor,competitor,0,5.743
3,177,perceptual,0.1,0.2,target,competitor,0,2.416
3,178,numeric,0.03,0.2,competitor,target,1,3.629
3,179,numeric,0.1,0.2,competitor,competitor,0,3.99
3,180,numeric,0.1,0.2,competitor,decoy,0,2.947
3,181,numeric,0.1,0.05,target,target,1,2.184
3,182,perceptual,0.1,0.05,target,competitor,0,1.983
3,183,perceptual,0.1,0.2,target,competitor,0,2.415
3,184,perceptual,0.03,0.2,competitor,decoy,0,1.633
3,185,perceptual,0.1,0.05,competitor,target,1,1.802
3,186,numeric,0.1,0.05,target,target,1,1.701
3,187,perceptual,0.1,0.05,target,decoy,0,1.706
3,188,numeric,0.03,0.2,competitor,target,1,3.69
3,189,numeric,0.1,0.05,target,target,1,4.978
3,190,perceptual,0.03,0.2,competitor,competitor,0,2.135
3,191,perceptual,0.03,0.2,target,competitor,0,1.673
3,192,numeric,0.1,0.2,target,target,1,6.17
4,1,perceptual,0.03,0.2,target,competitor,0,5.158
4,2,perceptual,0.1,0.2,target,target,1,3.739
4,3,perceptual,0.1,0.05,target,target,1,6.486
4,4,numeric,0.1,0.2,competitor,target,1,10.978
4,5,numeric,0.1,0.2,competitor,target,1,7.43
4,6,numeric,0.1,0.2,competitor,target,1,5.768
4,7,perceptual,0.03,0.2,target,competitor,0,6.35
4,8,numeric,0.1,0.05,target,target,1,7.49
4,9,numeric,0.03,0.05,competitor,competitor,0,8.353
4,10,numeric,0.03,0.2,competitor,competitor,0,5.777
4,11,perceptual,0.03,0.05,target,target,1,6.159
4,12,perceptual,0.03,0.05,competitor,target,1,7.628
4,13,numeric,0.1,0.2,competitor,competitor,0,8.518
4,14,numeric,0.03,0.2,target,target,1,8
4,15,numeric,0.1,0.05,competitor,target,1,8.076
4,16,perceptual,0.1,0.05,competitor,target,1,4.919
4,17,perceptual,0.03,0.2,competitor,target,1,7.939
4,18,perceptual,0.1,0.05,competitor,competitor,0,6.81
4,19,numeric,0.03,0.05,target,target,1,6.208
4,20,numeric,0.1,0.05,target,target,1,7.993
4,21,perceptual,0.1,0.2,competitor,target,1,5.539
4,22,perceptual,0.1,0.2,target,target,1,6.398
4,23,numeric,0.03,0.2,competitor,target,1,15.624
4,24,numeric,0.1,0.05,target,target,1,8.003
4,25,numeric,0.03,0.05,competitor,target,1,12.208
4,26,numeric,0.03,0.05,competitor,competitor,0,10.904
4,27,perceptual,0.1,0.2,target,target,1,8.111
4,28,perceptual,0.03,0.05,target,target,1,7.76
4,29,numeric,0.1,0.2,competitor,target,1,8.128
4,30,numeric,0.1,0.2,competitor,target,1,5.639
4,31,numeric,0.03,0.05,target,target,1,9.257
4,32,numeric,0.03,0.2,target,target,1,10.635
4,33,numeric,0.1,0.05,competitor,target,1,15.963
4,34,perceptual,0.03,0.05,target,target,1,9
4,35,perceptual,0.03,0.05,target,target,1,5.57
4,36,numeric,0.03,0.05,competitor,target,1,10.646
4,37,numeric,0.03,0.2,target,target,1,14.62
4,38,perceptual,0.03,0.2,competitor,target,1,8.777
4,39,numeric,0.1,0.05,competitor,target,1,4.971
4,40,perceptual,0.03,0.2,competitor,target,1,7.038
4,41,perceptual,0.03,0.2,competitor,target,1,5.481
4,42,numeric,0.03,0.05,target,target,1,13.094
4,43,numeric,0.03,0.05,competitor,competitor,0,16.031
4,44,perceptual,0.03,0.2,target,target,1,6.552
4,45,perceptual,0.1,0.2,competitor,competitor,0,11.951
4,46,numeric,0.1,0.2,competitor,target,1,9.789
4,47,numeric,0.03,0.05,competitor,target,1,13.171
4,48,perceptual,0.03,0.05,competitor,target,1,16.596
4,49,numeric,0.1,0.05,competitor,target,1,8.444
4,50,perceptual,0.1,0.2,target,target,1,8.757
4,51,perceptual,0.1,0.05,target,target,1,9.544
4,52,numeric,0.1,0.05,target,target,1,12.577
4,53,perceptual,0.03,0.05,competitor,competitor,0,10.148
4,54,perceptual,0.1,0.2,competitor,target,1,4.218
4,55,perceptual,0.1,0.2,competitor,target,1,5.528
4,56,perceptual,0.03,0.05,competitor,competitor,0,4.771
4,57,perceptual,0.1,0.05,target,target,1,5.026
4,58,perceptual,0.1,0.2,competitor,target,1,7.31
4,59,perceptual,0.03,0.2,target,target,1,6.576
4,60,perceptual,0.1,0.05,competitor,target,1,10.096
4,61,numeric,0.03,0.2,target,competitor,0,11.905
4,62,numeric,0.03,0.05,competitor,target,1,9.625
4,63,perceptual,0.1,0.05,competitor,target,1,10.419
4,64,numeric,0.03,0.2,competitor,target,1,15.343
4,65,perceptual,0.1,0.2,competitor,target,1,8.556
4,66,numeric,0.1,0.2,target,target,1,9.753
4,67,perceptual,0.03,0.05,competitor,competitor,0,16.547
4,68,perceptual,0.03,0.2,competitor,competitor,0,7.977
4,69,perceptual,0.03,0.05,competitor,target,1,13.3
4,70,numeric,0.1,0.05,competitor,target,1,10.795
4,71,numeric,0.03,0.2,target,competitor,0,17.819
4,72,numeric,0.1,0.05,competitor,target,1,8.475
4,73,numeric,0.03,0.05,competitor,target,1,13.065
4,74,numeric,0.1,0.05,competitor,target,1,14.088
4,75,perceptual,0.1,0.2,target,target,1,9.501
4,76,numeric,0.03,0.2,target,target,1,7.275
4,77,numeric,0.1,0.2,target,target,1,9.496
4,78,numeric,0.1,0.05,competitor,target,1,7.29
4,79,perceptual,0.1,0.05,target,target,1,12.075
4,80,perceptual,0.03,0.05,target,target,1,5.439
4,81,numeric,0.03,0.05,target,competitor,0,19.594
4,82,perceptual,0.1,0.2,target,target,1,4.861
4,83,numeric,0.1,0.05,target,target,1,11.302
4,84,numeric,0.1,0.05,target,target,1,12.193
4,85,perceptual,0.03,0.05,competitor,target,1,13.251
4,86,numeric,0.03,0.05,target,competitor,0,14.594
4,87,perceptual,0.1,0.2,target,target,1,12.924
4,88,perceptual,0.03,0.05,competitor,target,1,8.77
4,89,numeric,0.1,0.05,competitor,target,1,11.306
4,90,perceptual,0.03,0.2,competitor,target,1,7.897
4,91,perceptual,0.1,0.05,target,target,1,5.806
4,92,numeric,0.03,0.05,competitor,target,1,10.224
4,93,perceptual,0.1,0.2,target,target,1,6.284
4,94,numeric,0.1,0.2,target,competitor,0,16.764
4,95,perceptual,0.1,0.05,competitor,target,1,7.908
4,96,numeric,0.1,0.2,target,target,1,10.623
4,97,perceptual,0.03,0.05,target,target,1,8.796
4,98,perceptual,0.03,0.05,target,target,1,6.276
4,99,perceptual,0.03,0.2,target,target,1,12.812
4,100,perceptual,0.03,0.05,target,target,1,11.156
4,101,numeric,0.1,0.2,competitor,competitor,0,16.764
4,102,perceptual,0.1,0.2,competitor,target,1,8.504
4,103,perceptual,0.1,0.2,competitor,target,1,7.834
4,104,numeric,0.1,0.05,target,target,1,8.179
4,105,perceptual,0.03,0.2,competitor,target,1,7.304
4,106,perceptual,0.03,0.2,competitor,target,1,6.626
4,107,numeric,0.03,0.2,competitor,target,1,11.968
4,108,numeric,0.1,0.2,competitor,target,1,12.364
4,109,numeric,0.03,0.05,target,target,1,10.89
4,110,numeric,0.03,0.2,competitor,competitor,0,9.963
4,111,numeric,0.1,0.05,competitor,target,1,8.869
4,112,numeric,0.1,0.2,target,target,1,10.046
4,113,perceptual,0.1,0.05,target,target,1,7.533
4,114,numeric,0.03,0.2,competitor,competitor,0,10.029
4,115,numeric,0.1,0.2,target,target,1,15.274
4,116,numeric,0.1,0.05,target,target,1,13.723
4,117,numeric,0.03,0.2,target,competitor,0,12.826
4,118,numeric,0.03,0.2,target,target,1,13.333
4,119,perceptual,0.1,0.2,competitor,target,1,9.976
4,120,numeric,0.1,0.2,target,target,1,7.421
4,121,numeric,0.03,0.05,target,competitor,0,10.964
4,122,perceptual,0.1,0.05,competitor,competitor,0,5.636
4,123,perceptual,0.1,0.2,target,target,1,9.257
4,124,numeric,0.1,0.2,competitor,target,1,12.388
4,125,perceptual,0.1,0.05,competitor,target,1,9.643
4,126,numeric,0.03,0.2,competitor,target,1,8.58
4,127,perceptual,0.03,0.2,competitor,target,1,7.153
4,128,perceptual,0.03,0.05,target,target,1,5.7
4,129,numeric,0.03,0.2,target,target,1,13.239
4,130,perceptual,0.03,0.05,competitor,target,1,8.406
4,131,numeric,0.03,0.05,competitor,target,1,9.831
4,132,perceptual,0.1,0.05,competitor,target,1,7.26
4,133,perceptual,0.03,0.2,target,target,1,9.379
4,134,numeric,0.03,0.05,target,target,1,11.465
4,135,perceptual,0.03,0.05,competitor,target,1,5.467
4,136,perceptual,0.1,0.05,target,target,1,8.621
4,137,perceptual,0.03,0.2,competitor,target,1,7.373
4,138,perceptual,0.03,0.2,target,competitor,0,7.849
4,139,numeric,0.1,0.05,target,decoy,0,8.921
4,140,numeric,0.03,0.05,target,target,1,12.894
4,141,perceptual,0.03,0.05,competitor,target,1,11.384
4,142,numeric,0.1,0.05,competitor,target,1,11.875
4,143,numeric,0.03,0.2,target,target,1,15.178
4,144,numeric,0.1,0.2,competitor,target,1,8.712
4,145,numeric,0.1,0.2,target,target,1,7.706
4,146,numeric,0.1,0.2,competitor,target,1,9.192
4,147,numeric,0.03,0.05,competitor,target,1,9.54
4,148,perceptual,0.1,0.05,target,target,1,6.902
4,149,numeric,0.1,0.05,target,target,1,9.369
4,150,numeric,0.03,0.2,competitor,target,1,13.587
4,151,perceptual,0.03,0.2,target,target,1,6.691
4,152,perceptual,0.1,0.05,competitor,target,1,6.248
4,153,perceptual,0.1,0.05,competitor,target,1,5.921
4,154,numeric,0.03,0.2,competitor,competitor,0,6.155
4,155,perceptual,0.1,0.05,competitor,target,1,5.027
4,156,numeric,0.1,0.2,target,target,1,6.395
4,157,perceptual,0.1,0.2,competitor,competitor,0,6.621
4,158,numeric,0.1,0.2,target,competitor,0,8.489
4,159,perceptual,0.03,0.2,competitor,target,1,4.914
4,160,perceptual,0.1,0.05,competitor,decoy,0,4.752
4,161,perceptual,0.1,0.2,target,target,1,6.508
4,162,numeric,0.1,0.2,target,target,1,9.447
4,163,perceptual,0.1,0.2,competitor,target,1,5.883
4,164,numeric,0.03,0.2,competitor,target,1,6.013
4,165,perceptual,0.1,0.2,target,target,1,5.461
4,166,numeric,0.03,0.05,competitor,target,1,9.231
4,167,perceptual,0.1,0.05,target,target,1,4.622
4,168,perceptual,0.03,0.2,competitor,competitor,0,5.928
4,169,numeric,0.03,0.2,target,competitor,0,8.541
4,170,numeric,0.03,0.05,target,target,1,9.932
4,171,perceptual,0.03,0.2,target,target,1,4.473
4,172,perceptual,0.1,0.2,target,target,1,8.849
4,173,numeric,0.03,0.2,target,competitor,0,14.012
4,174,perceptual,0.03,0.05,target,decoy,0,13.08
4,175,perceptual,0.03,0.2,target,target,1,6.827
4,176,numeric,0.1,0.05,competitor,target,1,8.748
4,177,numeric,0.03,0.2,competitor,target,1,10.478
4,178,perceptual,0.03,0.05,target,competitor,0,9.62
4,179,numeric,0.1,0.05,target,target,1,13.257
4,180,perceptual,0.03,0.05,competitor,target,1,8.471
4,181,numeric,0.03,0.05,target,competitor,0,10.844
4,182,perceptual,0.1,0.05,target,target,1,8.882
4,183,perceptual,0.1,0.05,target,target,1,7.043
4,184,perceptual,0.03,0.2,target,competitor,0,8.857
4,185,numeric,0.1,0.05,target,decoy,0,12.846
4,186,numeric,0.1,0.2,target,target,1,14.124
4,187,perceptual,0.03,0.05,target,competitor,0,10.093
4,188,perceptual,0.03,0.2,target,competitor,0,6.063
4,189,perceptual,0.1,0.05,target,target,1,5.726
4,190,numeric,0.03,0.2,competitor,competitor,0,11.864
4,192,perceptual,0.1,0.2,competitor,target,1,6.297
5,1,perceptual,0.03,0.2,target,target,1,12.436
5,2,perceptual,0.1,0.2,target,target,1,5.71
5,3,numeric,0.1,0.2,target,competitor,0,5.404
5,4,numeric,0.03,0.05,target,competitor,0,6.808
5,5,perceptual,0.03,0.2,target,decoy,0,5.199
5,6,numeric,0.1,0.2,competitor,competitor,0,5.078
5,8,numeric,0.1,0.05,target,target,1,6.364
5,9,numeric,0.03,0.05,target,target,1,5.944
5,10,numeric,0.1,0.2,target,target,1,5.355
5,11,perceptual,0.03,0.2,target,competitor,0,4.483
5,12,perceptual,0.03,0.2,competitor,competitor,0,3.152
5,13,numeric,0.1,0.2,target,target,1,5.348
5,14,perceptual,0.1,0.05,target,decoy,0,4.237
5,15,perceptual,0.03,0.2,target,competitor,0,3.26
5,16,numeric,0.03,0.2,target,decoy,0,5.256
5,17,perceptual,0.1,0.05,competitor,target,1,3.036
5,18,perceptual,0.03,0.2,target,target,1,3.453
5,19,perceptual,0.03,0.2,competitor,competitor,0,3.754
5,20,numeric,0.03,0.05,target,competitor,0,3.634
5,21,numeric,0.03,0.05,target,competitor,0,5.102
5,22,perceptual,0.1,0.2,competitor,target,1,3.251
5,23,numeric,0.1,0.2,competitor,target,1,4.313
5,24,numeric,0.1,0.05,competitor,target,1,3.632
5,25,perceptual,0.1,0.2,competitor,target,1,2.67
5,26,numeric,0.03,0.2,competitor,competitor,0,2.997
5,27,perceptual,0.1,0.2,competitor,competitor,0,2.849
5,28,perceptual,0.1,0.2,target,target,1,3.99
5,29,numeric,0.1,0.2,target,target,1,4.545
5,30,numeric,0.03,0.2,target,target,1,3.636
5,31,numeric,0.03,0.2,competitor,decoy,0,6.863
5,32,numeric,0.03,0.2,target,competitor,0,3.407
5,33,perceptual,0.03,0.05,target,competitor,0,2.181
5,34,perceptual,0.03,0.2,target,decoy,0,1.935
5,35,numeric,0.1,0.2,target,target,1,4.196
5,36,numeric,0.1,0.2,target,competitor,0,3.321
5,37,perceptual,0.1,0.2,competitor,target,1,3.138
5,38,numeric,0.1,0.05,target,decoy,0,6.544
5,39,perceptual,0.03,0.2,competitor,competitor,0,3.384
5,40,perceptual,0.1,0.05,target,target,1,3.101
5,41,numeric,0.1,0.2,target,decoy,0,3.63
5,42,numeric,0.03,0.2,target,target,1,3.739
5,43,perceptual,0.03,0.05,competitor,decoy,0,2.61
5,44,perceptual,0.1,0.05,target,target,1,3.411
5,45,numeric,0.1,0.05,competitor,target,1,6.866
5,46,perceptual,0.1,0.05,competitor,competitor,0,3.044
5,47,perceptual,0.1,0.05,competitor,competitor,0,4.736
5,48,perceptual,0.1,0.05,competitor,target,1,4.961
5,49,numeric,0.1,0.05,competitor,target,1,3.358
5,50,perceptual,0.1,0.05,competitor,competitor,0,1.924
5,51,perceptual,0.03,0.05,target,competitor,0,3.274
5,52,numeric,0.03,0.05,target,target,1,4.914
5,53,numeric,0.03,0.2,target,target,1,4.941
5,54,numeric,0.1,0.2,competitor,competitor,0,3.076
5,55,numeric,0.1,0.05,target,competitor,0,3.242
5,56,perceptual,0.03,0.05,competitor,decoy,0,3.789
5,57,numeric,0.03,0.2,competitor,target,1,4.685
5,58,numeric,0.1,0.05,competitor,target,1,3.427
5,59,perceptual,0.1,0.05,target,target,1,3.239
5,60,numeric,0.03,0.2,competitor,decoy,0,5.712
5,61,numeric,0.03,0.05,competitor,decoy,0,7.069
5,62,numeric,0.03,0.2,competitor,target,1,9.622
5,63,perceptual,0.03,0.2,competitor,target,1,3.527
5,64,numeric,0.1,0.05,target,competitor,0,4.076
5,65,perceptual,0.1,0.05,competitor,competitor,0,2.98
5,66,perceptual,0.03,0.05,competitor,target,1,2.986
5,67,numeric,0.1,0.05,target,decoy,0,4.071
5,68,numeric,0.1,0.2,target,target,1,3.258
5,69,numeric,0.1,0.2,competitor,target,1,3.787
5,70,numeric,0.03,0.05,competitor,target,1,4.052
5,71,numeric,0.03,0.05,competitor,decoy,0,6.755
5,72,numeric,0.03,0.05,competitor,decoy,0,4.101
5,73,perceptual,0.1,0.2,competitor,target,1,2.784
5,74,perceptual,0.03,0.05,competitor,target,1,2.801
5,75,numeric,0.1,0.05,competitor,target,1,4.323
5,76,numeric,0.03,0.2,target,competitor,0,3.757
5,77,perceptual,0.1,0.05,target,decoy,0,2.888
5,78,numeric,0.1,0.2,competitor,competitor,0,3.781
5,79,perceptual,0.03,0.05,target,competitor,0,2.794
5,80,perceptual,0.1,0.05,competitor,target,1,5.761
5,81,numeric,0.03,0.05,competitor,decoy,0,2.923
5,82,numeric,0.1,0.05,competitor,target,1,3.107
5,83,numeric,0.1,0.05,target,target,1,4.959
5,84,perceptual,0.1,0.2,target,competitor,0,5.562
5,85,perceptual,0.03,0.05,competitor,decoy,0,3.282
5,86,numeric,0.1,0.05,competitor,target,1,3.378
5,87,perceptual,0.1,0.2,target,decoy,0,3.382
5,88,numeric,0.03,0.05,competitor,target,1,2.97
5,89,perceptual,0.03,0.2,competitor,target,1,3.422
5,90,perceptual,0.03,0.05,target,decoy,0,3.099
5,91,perceptual,0.1,0.2,target,target,1,6.439
5,92,numeric,0.1,0.2,competitor,competitor,0,4.338
5,93,perceptual,0.03,0.05,competitor,competitor,0,3.588
5,94,numeric,0.03,0.2,target,competitor,0,4.151
5,95,numeric,0.1,0.05,target,decoy,0,4.616
5,96,numeric,0.03,0.05,target,competitor,0,5.013
5,97,perceptual,0.03,0.05,competitor,decoy,0,2.798
5,98,numeric,0.03,0.2,competitor,decoy,0,4.157
5,99,perceptual,0.03,0.05,target,competitor,0,2.55
5,100,perceptual,0.03,0.05,competitor,competitor,0,3.708
5,101,numeric,0.03,0.2,target,target,1,4.067
5,102,perceptual,0.1,0.2,target,competitor,0,4.465
5,103,numeric,0.03,0.2,competitor,target,1,4.25
5,104,numeric,0.1,0.05,target,decoy,0,5.34
5,105,numeric,0.1,0.2,competitor,target,1,4.491
5,106,perceptual,0.1,0.05,target,target,1,2.491
5,107,perceptual,0.03,0.05,target,decoy,0,4.112
5,108,perceptual,0.1,0.2,competitor,target,1,3.419
5,109,perceptual,0.1,0.05,target,target,1,2.452
5,110,perceptual,0.1,0.2,target,competitor,0,3.424
5,111,perceptual,0.03,0.05,competitor,decoy,0,2.71
5,112,numeric,0.1,0.2,competitor,decoy,0,5.05
5,113,numeric,0.03,0.2,target,competitor,0,5.547
5,114,perceptual,0.03,0.2,target,target,1,4.092
5,115,numeric,0.1,0.2,target,competitor,0,3.468
5,116,perceptual,0.1,0.05,target,target,1,1.977
5,117,perceptual,0.1,0.2,competitor,target,1,3.442
5,118,numeric,0.03,0.2,target,competitor,0,5.301
5,119,numeric,0.1,0.2,target,target,1,4.073
5,120,perceptual,0.03,0.05,competitor,target,1,5.149
5,121,numeric,0.1,0.05,competitor,competitor,0,5.618
5,122,perceptual,0.1,0.05,competitor,target,1,2.919
5,123,perceptual,0.1,0.05,target,target,1,3.183
5,124,numeric,0.03,0.05,competitor,target,1,8.269
5,125,perceptual,0.03,0.2,target,target,1,2.972
5,126,numeric,0.1,0.05,competitor,target,1,7.323
5,127,perceptual,0.1,0.2,competitor,target,1,4.5
5,128,numeric,0.03,0.05,target,target,1,4.117
5,129,perceptual,0.03,0.2,competitor,competitor,0,3.204
5,130,numeric,0.03,0.05,competitor,target,1,4.01
5,131,perceptual,0.1,0.2,target,target,1,2.89
5,132,perceptual,0.03,0.2,competitor,target,1,5.959
5,133,perceptual,0.1,0.05,competitor,competitor,0,3.291
5,134,numeric,0.1,0.05,target,competitor,0,3.491
5,135,numeric,0.1,0.2,target,target,1,5.304
5,136,numeric,0.1,0.2,competitor,target,1,3.956
5,137,perceptual,0.03,0.05,competitor,competitor,0,3.643
5,138,numeric,0.03,0.2,competitor,target,1,4.302
5,139,perceptual,0.03,0.05,target,competitor,0,4.094
5,140,numeric,0.03,0.2,competitor,target,1,3.783
5,141,perceptual,0.1,0.05,target,target,1,5.719
5,142,numeric,0.03,0.05,target,decoy,0,6.605
5,143,perceptual,0.03,0.05,target,decoy,0,4.834
5,144,perceptual,0.03,0.2,target,target,1,3.264
5,145,numeric,0.1,0.05,target,competitor,0,4.076
5,146,perceptual,0.1,0.05,target,target,1,3.607
5,147,perceptual,0.1,0.05,competitor,target,1,3.34
5,148,perceptual,0.03,0.2,competitor,competitor,0,3.25
5,149,numeric,0.1,0.05,competitor,decoy,0,7.455
5,150,perceptual,0.03,0.2,target,competitor,0,3.979
5,151,numeric,0.03,0.2,target,target,1,5.599
5,152,perceptual,0.03,0.05,target,decoy,0,3.334
5,153,perceptual,0.03,0.2,competitor,target,1,2.695
5,154,perceptual,0.03,0.2,competitor,target,1,3.699
5,155,numeric,0.03,0.2,competitor,competitor,0,4.59
5,156,perceptual,0.03,0.2,competitor,competitor,0,6.05
5,157,numeric,0.03,0.05,target,decoy,0,6.529
5,158,numeric,0.03,0.05,competitor,competitor,0,5.427
5,159,numeric,0.03,0.2,target,decoy,0,6.284
5,160,numeric,0.03,0.05,competitor,decoy,0,7.364
5,161,perceptual,0.1,0.2,target,target,1,2.538
5,162,numeric,0.1,0.2,competitor,target,1,7.38
5,163,numeric,0.03,0.2,competitor,target,1,6.196
5,164,numeric,0.1,0.05,target,target,1,5.04
5,165,numeric,0.1,0.2,target,competitor,0,3.65
5,166,numeric,0.1,0.2,competitor,decoy,0,4.807
5,167,perceptual,0.1,0.2,target,target,1,3.191
5,168,perceptual,0.1,0.2,competitor,target,1,3.434
5,169,perceptual,0.03,0.2,target,target,1,5.305
5,170,numeric,0.1,0.05,competitor,target,1,5.974
5,171,perceptual,0.03,0.2,competitor,competitor,0,2.935
5,172,numeric,0.1,0.05,competitor,target,1,7.116
5,173,perceptual,0.1,0.2,competitor,competitor,0,2.931
5,174,perceptual,0.1,0.2,target,competitor,0,3.5
5,175,perceptual,0.03,0.05,target,competitor,0,5.495
5,176,perceptual,0.03,0.05,target,target,1,5.781
5,177,numeric,0.1,0.2,competitor,decoy,0,6.012
5,178,perceptual,0.03,0.05,competitor,target,1,2.487
5,179,numeric,0.1,0.05,target,competitor,0,4.722
5,180,numeric,0.03,0.05,competitor,decoy,0,4.828
5,181,perceptual,0.03,0.05,target,decoy,0,4.85
5,182,perceptual,0.1,0.2,target,target,1,2.323
5,183,numeric,0.03,0.2,competitor,decoy,0,5.674
5,184,numeric,0.03,0.05,target,competitor,0,9.52
5,185,perceptual,0.03,0.2,target,target,1,2.904
5,186,perceptual,0.1,0.2,competitor,competitor,0,3.717
5,187,perceptual,0.1,0.05,competitor,target,1,6.593
5,188,perceptual,0.1,0.05,target,target,1,3.744
5,189,perceptual,0.1,0.05,competitor,target,1,5.373
5,190,numeric,0.03,0.05,competitor,target,1,6.798
5,191,perceptual,0.1,0.2,competitor,competitor,0,6.721
5,192,numeric,0.03,0.05,target,competitor,0,4.751
6,2,perceptual,0.1,0.2,target,decoy,0,0.246
6,3,perceptual,0.1,0.2,competitor,competitor,0,8.426
6,4,numeric,0.03,0.2,competitor,competitor,0,10.899
6,5,perceptual,0.1,0.05,competitor,competitor,0,9.362
6,6,numeric,0.1,0.05,target,target,1,7.938
6,7,perceptual,0.1,0.2,competitor,competitor,0,7.129
6,9,perceptual,0.1,0.2,target,target,1,7.629
6,10,perceptual,0.1,0.05,target,decoy,0,11.682
6,11,perceptual,0.1,0.2,target,decoy,0,8.034
6,12,numeric,0.1,0.05,target,target,1,18.031
6,13,perceptual,0.03,0.05,competitor,target,1,4.415
6,14,perceptual,0.03,0.2,competitor,target,1,7.232
6,15,perceptual,0.03,0.2,target,target,1,5.967
6,16,numeric,0.1,0.2,competitor,competitor,0,16.688
6,17,perceptual,0.03,0.2,competitor,competitor,0,6.385
6,18,perceptual,0.1,0.2,competitor,decoy,0,7.652
6,19,perceptual,0.03,0.05,target,decoy,0,5.64
6,20,perceptual,0.03,0.2,target,target,1,6.383
6,21,perceptual,0.03,0.05,target,competitor,0,9.1
6,22,perceptual,0.03,0.05,competitor,competitor,0,6.55
6,23,numeric,0.1,0.2,target,competitor,0,8.21
6,24,numeric,0.03,0.05,competitor,competitor,0,10.063
6,25,perceptual,0.03,0.05,competitor,target,1,6.101
6,26,perceptual,0.03,0.05,target,target,1,11.721
6,27,numeric,0.1,0.05,target,target,1,5.496
6,28,perceptual,0.1,0.05,competitor,competitor,0,8.152
6,29,perceptual,0.1,0.05,target,target,1,5.929
6,30,numeric,0.03,0.05,target,target,1,6.911
6,31,numeric,0.03,0.05,target,target,1,11.828
6,32,perceptual,0.1,0.05,competitor,target,1,9.029
6,33,numeric,0.03,0.2,target,target,1,9.008
6,34,perceptual,0.1,0.05,competitor,decoy,0,9.662
6,35,numeric,0.03,0.2,competitor,target,1,7.766
6,36,numeric,0.03,0.2,competitor,target,1,9.679
6,37,perceptual,0.1,0.2,target,target,1,7.636
6,38,perceptual,0.1,0.2,target,target,1,6.231
6,39,numeric,0.1,0.2,competitor,target,1,17.111
6,40,perceptual,0.1,0.05,target,target,1,8.077
6,41,perceptual,0.03,0.2,target,target,1,7.425
6,42,perceptual,0.03,0.2,competitor,target,1,7.816
6,43,numeric,0.1,0.2,competitor,target,1,5.329
6,44,perceptual,0.03,0.05,target,target,1,5.313
6,45,perceptual,0.1,0.2,competitor,target,1,5.486
6,46,perceptual,0.1,0.2,competitor,target,1,4.632
6,47,perceptual,0.1,0.05,competitor,target,1,6.724
6,48,perceptual,0.03,0.05,competitor,target,1,13.825
6,49,numeric,0.03,0.2,competitor,target,1,8.233
6,50,perceptual,0.03,0.2,target,competitor,0,7.985
6,51,numeric,0.03,0.2,competitor,target,1,8.995
6,52,numeric,0.1,0.2,target,target,1,6.195
6,53,numeric,0.1,0.2,target,target,1,6.236
6,54,numeric,0.03,0.05,competitor,target,1,10.916
6,55,perceptual,0.03,0.2,competitor,target,1,5.609
6,56,perceptual,0.03,0.2,competitor,competitor,0,9.566
6,57,numeric,0.1,0.2,target,target,1,6.544
6,58,perceptual,0.1,0.05,target,target,1,5.559
6,59,numeric,0.03,0.05,target,target,1,6.901
6,60,perceptual,0.03,0.05,target,competitor,0,6.939
6,61,numeric,0.03,0.05,target,target,1,10.234
6,62,perceptual,0.1,0.2,competitor,target,1,7.127
6,63,perceptual,0.1,0.05,target,decoy,0,9.97
6,64,perceptual,0.03,0.05,competitor,competitor,0,7.869
6,65,perceptual,0.03,0.2,competitor,competitor,0,5.909
6,66,numeric,0.1,0.05,competitor,target,1,4.587
6,67,numeric,0.03,0.2,competitor,competitor,0,5.22
6,68,numeric,0.03,0.05,competitor,target,1,8.776
6,69,numeric,0.1,0.05,competitor,competitor,0,5.744
6,70,numeric,0.03,0.2,target,target,1,5.569
6,71,perceptual,0.1,0.2,competitor,target,1,3.855
6,72,perceptual,0.1,0.05,competitor,target,1,3.872
6,73,numeric,0.03,0.05,competitor,target,1,5.986
6,74,numeric,0.1,0.2,competitor,target,1,8.051
6,75,numeric,0.1,0.2,competitor,competitor,0,6.197
6,76,numeric,0.1,0.05,competitor,target,1,6.399
6,77,numeric,0.03,0.05,target,target,1,6.901
6,78,perceptual,0.1,0.05,target,target,1,7.695
6,79,perceptual,0.1,0.05,competitor,target,1,6.245
6,80,numeric,0.1,0.2,target,target,1,4.913
6,81,numeric,0.1,0.05,target,target,1,5.617
6,82,perceptual,0.03,0.05,target,target,1,10.578
6,83,numeric,0.1,0.2,competitor,competitor,0,11.691
6,84,numeric,0.1,0.05,target,target,1,7.336
6,85,perceptual,0.1,0.05,target,target,1,7.369
6,86,numeric,0.03,0.05,competitor,competitor,0,7.83
6,87,perceptual,0.1,0.2,target,target,1,9.831
6,88,numeric,0.03,0.05,target,target,1,6.355
6,89,numeric,0.03,0.2,competitor,competitor,0,4.909
6,90,numeric,0.1,0.2,target,competitor,0,9.479
6,91,numeric,0.1,0.2,target,target,1,11.318
6,92,numeric,0.03,0.05,competitor,target,1,6.789
6,93,numeric,0.1,0.05,competitor,target,1,6.315
6,94,numeric,0.1,0.05,target,competitor,0,13.705
6,95,perceptual,0.03,0.05,competitor,target,1,7.955
6,96,perceptual,0.03,0.2,target,target,1,4.707
6,97,perceptual,0.03,0.2,target,target,1,6.593
6,98,numeric,0.03,0.05,competitor,target,1,4.205
6,99,perceptual,0.03,0.2,competitor,competitor,0,3.043
6,100,numeric,0.03,0.05,target,target,1,4.799
6,101,perceptual,0.03,0.2,competitor,target,1,4.66
6,102,numeric,0.1,0.05,competitor,target,1,8.136
6,103,numeric,0.03,0.05,competitor,decoy,0,8.346
6,104,numeric,0.1,0.05,competitor,target,1,5.685
6,105,perceptual,0.03,0.05,target,competitor,0,12.825
6,106,perceptual,0.03,0.2,competitor,target,1,4.352
6,107,numeric,0.03,0.2,competitor,target,1,6.458
6,108,numeric,0.03,0.2,target,target,1,9.881
6,109,numeric,0.1,0.2,target,target,1,8.55
6,110,perceptual,0.03,0.05,target,target,1,6.671
6,111,perceptual,0.1,0.05,competitor,target,1,4.72
6,112,perceptual,0.1,0.05,competitor,competitor,0,7.518
6,113,numeric,0.1,0.05,target,target,1,7.966
6,114,numeric,0.03,0.2,target,target,1,7.654
6,115,perceptual,0.1,0.2,competitor,target,1,7.265
6,116,perceptual,0.03,0.2,competitor,target,1,5.931
6,117,numeric,0.03,0.05,target,target,1,4.478
6,118,numeric,0.1,0.05,competitor,target,1,11.242
6,119,numeric,0.03,0.2,target,target,1,8.495
6,120,numeric,0.03,0.2,competitor,competitor,0,6.14
6,121,numeric,0.1,0.05,target,target,1,9.873
6,122,perceptual,0.03,0.2,target,target,1,5.205
6,123,numeric,0.1,0.05,competitor,target,1,5.137
6,124,perceptual,0.03,0.05,competitor,decoy,0,9.126
6,125,numeric,0.1,0.2,competitor,competitor,0,9.597
6,126,perceptual,0.03,0.05,target,competitor,0,7.313
6,127,perceptual,0.1,0.2,target,target,1,6.345
6,128,numeric,0.03,0.2,target,target,1,4.693
6,129,numeric,0.1,0.2,target,competitor,0,11.094
6,130,perceptual,0.03,0.05,competitor,target,1,5.626
6,131,perceptual,0.1,0.2,target,target,1,5.686
6,132,perceptual,0.1,0.05,competitor,target,1,5.509
6,133,numeric,0.1,0.05,target,competitor,0,6.575
6,134,perceptual,0.1,0.2,target,target,1,3.57
6,135,numeric,0.03,0.2,target,target,1,11.976
6,136,perceptual,0.1,0.05,target,target,1,4.708
6,137,perceptual,0.1,0.05,competitor,target,1,4.567
6,138,perceptual,0.1,0.05,competitor,target,1,5.71
6,139,numeric,0.1,0.2,target,target,1,6.467
6,140,numeric,0.1,0.2,competitor,target,1,7.923
6,141,perceptual,0.03,0.2,target,target,1,3.175
6,142,perceptual,0.03,0.2,target,target,1,4.265
6,143,numeric,0.1,0.2,competitor,competitor,0,6.355
6,144,perceptual,0.03,0.05,competitor,competitor,0,3.299
6,145,numeric,0.1,0.05,target,target,1,5.079
6,146,numeric,0.1,0.05,competitor,target,1,5.715
6,147,numeric,0.03,0.2,target,target,1,5.109
6,148,numeric,0.1,0.2,competitor,competitor,0,9.695
6,149,numeric,0.1,0.05,target,decoy,0,5.179
6,150,perceptual,0.03,0.05,target,competitor,0,5.778
6,151,numeric,0.03,0.05,target,target,1,16.057
6,152,perceptual,0.1,0.05,target,decoy,0,5.33
6,153,numeric,0.03,0.2,competitor,target,1,5.241
6,154,numeric,0.03,0.2,competitor,target,1,6.982
6,155,perceptual,0.03,0.2,target,competitor,0,3.095
6,156,numeric,0.03,0.2,competitor,competitor,0,6.779
6,157,numeric,0.1,0.2,competitor,target,1,5.644
6,158,numeric,0.03,0.2,target,target,1,7.279
6,159,perceptual,0.03,0.05,competitor,target,1,3.086
6,160,numeric,0.03,0.05,competitor,competitor,0,7.503
6,161,numeric,0.1,0.05,target,target,1,6.631
6,162,numeric,0.1,0.2,target,target,1,2.904
6,163,perceptual,0.1,0.05,target,target,1,2.698
6,164,perceptual,0.03,0.2,competitor,competitor,0,3.248
6,165,perceptual,0.03,0.2,target,target,1,2.776
6,166,perceptual,0.1,0.2,target,target,1,3.016
6,167,numeric,0.03,0.2,target,competitor,0,3.993
6,168,numeric,0.1,0.05,competitor,target,1,5.25
6,169,perceptual,0.1,0.2,target,target,1,2.608
6,170,perceptual,0.03,0.05,competitor,competitor,0,4.579
6,171,numeric,0.1,0.2,competitor,decoy,0,5.566
6,172,numeric,0.1,0.05,competitor,target,1,6.223
6,173,perceptual,0.03,0.05,target,target,1,5.501
6,174,numeric,0.1,0.05,competitor,target,1,9.145
6,175,perceptual,0.1,0.2,competitor,target,1,5.382
6,176,numeric,0.03,0.05,target,target,1,3.464
6,177,perceptual,0.1,0.2,competitor,target,1,2.777
6,178,perceptual,0.03,0.2,target,target,1,3.686
6,179,perceptual,0.03,0.2,competitor,target,1,3.376
6,180,numeric,0.03,0.2,target,competitor,0,6.818
6,181,numeric,0.1,0.2,target,target,1,5.807
6,182,numeric,0.03,0.05,target,competitor,0,8.117
6,183,numeric,0.03,0.2,target,target,1,5.849
6,184,perceptual,0.03,0.05,target,target,1,2.729
6,185,perceptual,0.1,0.05,target,target,1,3.336
6,186,numeric,0.03,0.05,competitor,decoy,0,2.709
6,187,perceptual,0.03,0.05,competitor,decoy,0,3.085
6,188,perceptual,0.1,0.2,competitor,target,1,4.304
6,189,numeric,0.03,0.05,competitor,target,1,7.958
6,190,perceptual,0.1,0.2,target,competitor,0,3.68
6,191,perceptual,0.1,0.2,competitor,competitor,0,2.639
6,192,perceptual,0.1,0.05,target,decoy,0,2.677
7,1,perceptual,0.03,0.05,target,decoy,0,5.349
7,2,numeric,0.1,0.2,target,target,1,5.342
7,3,numeric,0.03,0.05,target,target,1,8.585
7,4,numeric,0.1,0.05,competitor,target,1,6.642
7,5,numeric,0.03,0.2,competitor,competitor,0,7.642
7,6,numeric,0.03,0.2,target,target,1,6.527
7,7,numeric,0.03,0.05,target,target,1,9.795
7,8,numeric,0.03,0.2,target,target,1,5.972
7,9,perceptual,0.1,0.2,competitor,target,1,3.214
7,10,numeric,0.1,0.05,target,decoy,0,5.609
7,11,numeric,0.1,0.05,target,target,1,5.1
7,12,perceptual,0.03,0.2,competitor,target,1,7.41
7,13,perceptual,0.1,0.2,target,competitor,0,3.853
7,14,numeric,0.03,0.05,competitor,competitor,0,6.314
7,15,numeric,0.03,0.05,competitor,competitor,0,8.062
7,16,perceptual,0.1,0.05,competitor,competitor,0,4.633
7,17,numeric,0.03,0.2,competitor,target,1,4.668
7,18,perceptual,0.1,0.2,competitor,target,1,3.534
7,19,numeric,0.1,0.05,target,target,1,4.636
7,20,numeric,0.03,0.2,competitor,target,1,7.596
7,21,perceptual,0.1,0.05,competitor,decoy,0,3.889
7,22,numeric,0.1,0.2,competitor,target,1,5.69
7,23,perceptual,0.1,0.05,target,target,1,5.117
7,24,perceptual,0.03,0.05,competitor,target,1,3.425
7,25,perceptual,0.1,0.2,target,decoy,0,5.278
7,26,perceptual,0.03,0.05,competitor,decoy,0,6.642
7,27,numeric,0.1,0.2,competitor,target,1,3.903
7,28,perceptual,0.03,0.2,competitor,target,1,3.878
7,29,numeric,0.03,0.05,competitor,competitor,0,5.938
7,30,numeric,0.1,0.05,target,target,1,6.475
7,31,perceptual,0.03,0.05,competitor,target,1,2.569
7,32,numeric,0.03,0.05,competitor,target,1,6.352
7,33,numeric,0.1,0.2,competitor,target,1,6.495
7,34,numeric,0.1,0.2,competitor,competitor,0,5.609
7,35,perceptual,0.03,0.2,target,decoy,0,3.091
7,36,numeric,0.1,0.05,competitor,target,1,4.101
7,37,perceptual,0.1,0.2,competitor,competitor,0,3.159
7,38,numeric,0.1,0.2,competitor,target,1,7.758
7,39,perceptual,0.1,0.2,target,target,1,3.417
7,40,perceptual,0.03,0.05,target,target,1,5.806
7,41,numeric,0.1,0.05,target,target,1,6.206
7,42,numeric,0.1,0.2,target,target,1,4.792
7,43,perceptual,0.03,0.2,competitor,target,1,4.651
7,44,perceptual,0.03,0.05,target,competitor,0,5.392
7,45,perceptual,0.03,0.05,target,competitor,0,3.527
7,46,perceptual,0.1,0.05,competitor,decoy,0,3.881
7,47,perceptual,0.1,0.05,target,competitor,0,2.612
7,48,perceptual,0.1,0.2,target,decoy,0,3.181
7,49,numeric,0.03,0.05,competitor,target,1,5.304
7,50,perceptual,0.03,0.2,competitor,competitor,0,3.247
7,51,numeric,0.03,0.2,target,target,1,4.292
7,52,perceptual,0.1,0.2,competitor,competitor,0,2.787
7,53,perceptual,0.1,0.05,target,decoy,0,2.883
7,54,perceptual,0.03,0.05,target,decoy,0,2.861
7,55,numeric,0.03,0.2,competitor,target,1,4.841
7,56,numeric,0.03,0.05,competitor,competitor,0,8.176
7,57,numeric,0.03,0.05,competitor,target,1,6.139
7,58,perceptual,0.1,0.05,target,decoy,0,3.68
7,59,numeric,0.03,0.2,target,target,1,6.779
7,60,numeric,0.1,0.2,target,target,1,7.08
7,61,perceptual,0.03,0.05,target,target,1,3.513
7,62,perceptual,0.1,0.2,target,competitor,0,3.155
7,63,perceptual,0.03,0.2,target,competitor,0,3.302
7,64,perceptual,0.1,0.05,target,target,1,3.242
7,65,numeric,0.03,0.05,target,target,1,6.584
7,66,numeric,0.03,0.05,competitor,competitor,0,9.858
7,67,perceptual,0.03,0.05,competitor,competitor,0,2.926
7,68,perceptual,0.03,0.2,competitor,target,1,3.783
7,69,perceptual,0.03,0.2,competitor,decoy,0,3.225
7,70,numeric,0.1,0.2,competitor,target,1,4.136
7,71,numeric,0.1,0.2,target,target,1,3.974
7,72,numeric,0.03,0.05,target,target,1,8.881
7,73,perceptual,0.03,0.05,target,decoy,0,3.362
7,74,numeric,0.03,0.2,competitor,competitor,0,6.012
7,75,perceptual,0.03,0.2,target,competitor,0,2.621
7,76,perceptual,0.03,0.2,target,target,1,5.685
7,77,perceptual,0.03,0.05,competitor,decoy,0,4.561
7,78,perceptual,0.1,0.05,target,decoy,0,4.906
7,79,numeric,0.1,0.05,competitor,target,1,4.713
7,80,numeric,0.1,0.2,target,target,1,6.522
7,81,numeric,0.1,0.2,target,decoy,0,4.28
7,82,numeric,0.1,0.05,competitor,competitor,0,3.812
7,83,numeric,0.03,0.2,competitor,target,1,6.774
7,84,perceptual,0.1,0.2,target,decoy,0,2.316
7,85,perceptual,0.03,0.2,target,competitor,0,3.884
7,86,perceptual,0.03,0.05,target,competitor,0,2.962
7,87,perceptual,0.1,0.2,target,decoy,0,3.51
7,88,numeric,0.1,0.05,target,target,1,5.28
7,89,numeric,0.03,0.2,competitor,target,1,7.827
7,90,numeric,0.03,0.05,competitor,competitor,0,7.081
7,91,numeric,0.1,0.2,target,target,1,5.187
7,92,perceptual,0.1,0.05,competitor,target,1,3.758
7,93,numeric,0.1,0.05,competitor,target,1,4.622
7,94,perceptual,0.1,0.05,competitor,decoy,0,6.934
7,95,numeric,0.1,0.05,target,target,1,5.885
7,96,numeric,0.1,0.05,competitor,target,1,6.594
7,97,numeric,0.03,0.2,target,competitor,0,3.599
7,98,numeric,0.03,0.2,target,target,1,8.501
7,99,numeric,0.03,0.2,target,competitor,0,5.408
7,100,numeric,0.03,0.05,target,target,1,4.778
7,101,numeric,0.1,0.2,target,target,1,4.003
7,102,perceptual,0.03,0.05,target,competitor,0,3.437
7,103,perceptual,0.03,0.2,competitor,target,1,2.239
7,104,numeric,0.1,0.05,target,competitor,0,3.05
7,105,numeric,0.1,0.05,target,competitor,0,2.901
7,106,perceptual,0.03,0.2,competitor,target,1,2.095
7,107,numeric,0.03,0.2,target,target,1,4.843
7,108,perceptual,0.03,0.2,target,target,1,2.965
7,109,perceptual,0.1,0.2,competitor,competitor,0,6.379
7,110,perceptual,0.1,0.05,competitor,competitor,0,4.112
7,111,numeric,0.03,0.05,target,target,1,7.127
7,112,perceptual,0.1,0.2,target,decoy,0,2.548
7,113,perceptual,0.1,0.2,competitor,target,1,2.5
7,114,numeric,0.03,0.05,target,competitor,0,2.404
7,115,perceptual,0.1,0.2,target,decoy,0,2.407
7,116,perceptual,0.1,0.05,competitor,decoy,0,2.372
7,117,perceptual,0.03,0.2,competitor,competitor,0,4.965
7,118,perceptual,0.1,0.2,competitor,decoy,0,3.347
7,119,perceptual,0.1,0.2,competitor,competitor,0,6.875
7,120,numeric,0.03,0.2,competitor,competitor,0,3.201
7,121,numeric,0.1,0.05,competitor,target,1,2.896
7,122,numeric,0.1,0.05,target,target,1,4.878
7,123,perceptual,0.1,0.2,competitor,decoy,0,4.282
7,124,perceptual,0.1,0.2,target,target,1,3.185
7,125,numeric,0.1,0.2,competitor,competitor,0,4.046
7,126,numeric,0.03,0.05,target,target,1,5.85
7,127,perceptual,0.03,0.05,target,decoy,0,2.381
7,128,perceptual,0.1,0.05,competitor,decoy,0,2.612
7,129,numeric,0.03,0.2,competitor,competitor,0,6.161
7,130,perceptual,0.1,0.05,target,target,1,4.266
7,131,numeric,0.1,0.2,competitor,target,1,5.336
7,132,numeric,0.1,0.2,target,target,1,6.977
7,133,numeric,0.1,0.2,target,target,1,8.737
7,134,perceptual,0.1,0.2,competitor,decoy,0,2.636
7,135,perceptual,0.03,0.2,target,target,1,3.146
7,136,numeric,0.03,0.2,competitor,competitor,0,8.17
7,137,numeric,0.03,0.2,target,target,1,5.121
7,138,perceptual,0.1,0.2,competitor,target,1,2.807
7,139,numeric,0.03,0.05,competitor,competitor,0,4.447
7,140,numeric,0.1,0.2,competitor,target,1,5.379
7,141,perceptual,0.1,0.05,target,competitor,0,2.49
7,142,perceptual,0.1,0.05,target,competitor,0,2.896
7,143,perceptual,0.03,0.05,target,decoy,0,4.846
7,144,numeric,0.1,0.2,target,target,1,3.997
7,145,numeric,0.03,0.2,competitor,target,1,5.298
7,146,numeric,0.1,0.05,competitor,target,1,3.965
7,147,numeric,0.1,0.05,competitor,target,1,4.282
7,148,numeric,0.03,0.05,target,target,1,5.228
7,149,perceptual,0.03,0.05,competitor,target,1,4.652
7,150,numeric,0.03,0.2,competitor,competitor,0,6.315
7,151,perceptual,0.1,0.05,competitor,decoy,0,3.469
7,152,perceptual,0.03,0.05,competitor,target,1,4.402
7,153,numeric,0.03,0.05,target,target,1,4.774
7,154,numeric,0.03,0.05,target,target,1,5.805
7,155,numeric,0.03,0.05,target,target,1,5.451
7,156,perceptual,0.03,0.2,competitor,target,1,3.298
7,157,perceptual,0.03,0.2,competitor,competitor,0,2.294
7,158,perceptual,0.03,0.05,competitor,target,1,3.37
7,159,numeric,0.03,0.05,competitor,competitor,0,5.919
7,160,numeric,0.1,0.05,target,target,1,4.931
7,161,perceptual,0.03,0.2,target,competitor,0,5.935
7,162,perceptual,0.03,0.2,target,target,1,2.511
7,163,numeric,0.1,0.05,competitor,target,1,5.116
7,164,numeric,0.1,0.2,competitor,target,1,3.643
7,165,perceptual,0.03,0.2,target,competitor,0,2.504
7,166,perceptual,0.03,0.05,competitor,competitor,0,3.843
7,167,perceptual,0.1,0.05,competitor,competitor,0,3.268
7,168,numeric,0.1,0.05,target,target,1,6.648
7,169,perceptual,0.1,0.05,target,target,1,5.898
7,170,perceptual,0.1,0.05,competitor,target,1,2.888
7,171,numeric,0.1,0.2,target,competitor,0,4.912
7,172,perceptual,0.03,0.05,competitor,target,1,2.744
7,173,perceptual,0.03,0.2,target,competitor,0,2.277
7,174,numeric,0.1,0.05,competitor,target,1,3.951
7,175,perceptual,0.1,0.05,target,decoy,0,3.474
7,176,perceptual,0.03,0.05,competitor,decoy,0,4.159
7,177,numeric,0.1,0.05,competitor,target,1,5.197
7,178,numeric,0.03,0.2,target,competitor,0,5.036
7,179,numeric,0.03,0.2,target,target,1,6.981
7,180,perceptual,0.1,0.05,target,competitor,0,3.426
7,181,perceptual,0.03,0.05,competitor,target,1,3.299
7,182,perceptual,0.03,0.2,competitor,decoy,0,3.478
7,183,perceptual,0.03,0.05,target,target,1,2.779
7,184,perceptual,0.1,0.05,competitor,competitor,0,3.38
7,185,perceptual,0.1,0.2,target,target,1,2.442
7,186,numeric,0.03,0.05,competitor,competitor,0,4.407
7,187,numeric,0.1,0.2,competitor,competitor,0,3.885
7,188,numeric,0.03,0.2,target,target,1,3.498
7,189,perceptual,0.1,0.2,target,target,1,2.703
7,190,perceptual,0.1,0.2,competitor,target,1,2.085
7,191,perceptual,0.03,0.2,target,target,1,3.042
7,192,numeric,0.1,0.2,competitor,competitor,0,4.908
8,1,perceptual,0.03,0.2,competitor,competitor,0,18.751
8,2,perceptual,0.1,0.05,target,decoy,0,6.367
8,3,perceptual,0.1,0.05,competitor,target,1,9.231
8,4,numeric,0.1,0.2,competitor,competitor,0,18.072
8,5,numeric,0.03,0.2,target,decoy,0,9.397
8,6,perceptual,0.03,0.05,target,competitor,0,4.925
8,7,numeric,0.1,0.2,competitor,competitor,0,12.02
8,8,perceptual,0.03,0.05,competitor,decoy,0,5.283
8,9,numeric,0.1,0.05,target,target,1,11.018
8,10,numeric,0.1,0.2,competitor,competitor,0,7.475
8,11,perceptual,0.03,0.2,competitor,target,1,6.256
8,12,numeric,0.1,0.05,target,target,1,16.08
8,13,numeric,0.1,0.2,target,target,1,15.294
8,14,numeric,0.1,0.05,target,target,1,7.306
8,15,numeric,0.1,0.2,competitor,target,1,8.671
8,16,numeric,0.03,0.05,target,competitor,0,9.394
8,17,perceptual,0.1,0.2,competitor,competitor,0,8.249
8,18,perceptual,0.1,0.05,target,target,1,11.11
8,19,perceptual,0.1,0.05,competitor,competitor,0,11.149
8,20,numeric,0.03,0.05,target,competitor,0,11.886
8,21,numeric,0.1,0.2,competitor,decoy,0,12.681
8,22,perceptual,0.03,0.2,target,decoy,0,9.284
8,23,numeric,0.03,0.05,competitor,target,1,16.334
8,24,numeric,0.03,0.2,competitor,target,1,8.017
8,25,numeric,0.1,0.2,target,competitor,0,8.386
8,26,numeric,0.1,0.2,target,target,1,7.803
8,27,perceptual,0.1,0.05,target,competitor,0,4.555
8,28,numeric,0.03,0.2,competitor,target,1,10.148
8,29,numeric,0.1,0.2,target,target,1,9.525
8,30,perceptual,0.03,0.05,target,decoy,0,5.433
8,31,perceptual,0.1,0.05,target,target,1,5.685
8,32,numeric,0.03,0.2,competitor,competitor,0,13.125
8,33,numeric,0.03,0.05,target,target,1,6.512
8,34,numeric,0.03,0.2,target,competitor,0,10.041
8,35,perceptual,0.1,0.2,competitor,competitor,0,11.216
8,36,numeric,0.03,0.2,target,target,1,12.418
8,37,perceptual,0.1,0.05,target,target,1,2.269
8,38,numeric,0.03,0.2,competitor,decoy,0,3.023
8,39,perceptual,0.03,0.2,competitor,target,1,2.87
8,40,numeric,0.03,0.2,target,target,1,8.32
8,41,numeric,0.03,0.05,competitor,target,1,7.568
8,42,perceptual,0.03,0.2,competitor,decoy,0,4.06
8,43,perceptual,0.1,0.05,target,target,1,6.158
8,44,numeric,0.1,0.05,competitor,competitor,0,7.683
8,45,perceptual,0.1,0.2,target,decoy,0,5.32
8,46,perceptual,0.1,0.2,competitor,decoy,0,7.243
8,47,numeric,0.03,0.05,competitor,competitor,0,12.983
8,48,numeric,0.1,0.05,competitor,target,1,8.209
8,49,perceptual,0.1,0.05,target,decoy,0,6.92
8,50,numeric,0.03,0.05,competitor,target,1,5.568
8,51,perceptual,0.1,0.2,competitor,target,1,5.187
8,52,numeric,0.03,0.05,competitor,target,1,9.937
8,53,perceptual,0.03,0.05,target,target,1,4.905
8,54,numeric,0.1,0.05,target,target,1,12.537
8,55,numeric,0.1,0.2,target,target,1,9.936
8,56,numeric,0.03,0.2,target,target,1,9.334
8,57,perceptual,0.1,0.2,competitor,target,1,8.539
8,58,numeric,0.1,0.2,competitor,target,1,10.964
8,59,numeric,0.03,0.2,competitor,target,1,12.288
8,60,perceptual,0.1,0.2,competitor,target,1,4.21
8,61,perceptual,0.03,0.05,target,decoy,0,9.496
8,62,numeric,0.1,0.05,competitor,target,1,13.751
8,63,perceptual,0.1,0.05,competitor,target,1,3.242
8,64,numeric,0.1,0.2,competitor,target,1,10.519
8,65,numeric,0.1,0.2,target,decoy,0,9.785
8,66,numeric,0.03,0.05,target,target,1,15.29
8,67,numeric,0.03,0.05,target,competitor,0,7.488
8,68,perceptual,0.03,0.2,target,decoy,0,6.449
8,69,numeric,0.03,0.05,competitor,competitor,0,15.865
8,70,perceptual,0.1,0.2,target,target,1,9.644
8,71,numeric,0.03,0.05,competitor,competitor,0,15.377
8,72,numeric,0.03,0.2,competitor,target,1,10.054
8,73,perceptual,0.1,0.2,target,target,1,4.712
8,74,numeric,0.03,0.05,target,target,1,19.829
8,75,perceptual,0.03,0.05,competitor,target,1,4.651
8,76,perceptual,0.03,0.2,competitor,target,1,8.026
8,77,perceptual,0.1,0.05,target,target,1,3.621
8,78,perceptual,0.03,0.2,target,target,1,7.45
8,79,perceptual,0.03,0.2,competitor,decoy,0,4.269
8,80,numeric,0.1,0.2,target,target,1,9.201
8,81,perceptual,0.03,0.05,competitor,target,1,6.148
8,82,perceptual,0.1,0.2,competitor,target,1,5.712
8,83,perceptual,0.1,0.2,competitor,target,1,4.51
8,84,numeric,0.1,0.2,target,target,1,7.262
8,85,perceptual,0.1,0.2,target,decoy,0,3.208
8,86,perceptual,0.1,0.2,target,competitor,0,3.466
8,87,perceptual,0.03,0.05,competitor,target,1,2.793
8,88,numeric,0.1,0.05,target,target,1,6.493
8,89,perceptual,0.1,0.2,competitor,target,1,2.835
8,90,perceptual,0.03,0.2,target,competitor,0,4.571
8,91,perceptual,0.03,0.2,target,decoy,0,4.668
8,92,perceptual,0.1,0.05,competitor,competitor,0,5.588
8,93,perceptual,0.03,0.2,target,target,1,2.755
8,94,numeric,0.1,0.05,target,target,1,5.415
8,95,numeric,0.1,0.05,target,target,1,8.836
8,96,numeric,0.1,0.05,competitor,target,1,9.386
8,97,perceptual,0.03,0.05,target,competitor,0,3.264
8,98,numeric,0.1,0.05,target,target,1,10.951
8,99,perceptual,0.1,0.05,target,decoy,0,4.468
8,100,perceptual,0.1,0.05,target,competitor,0,3.962
8,101,perceptual,0.1,0.05,competitor,decoy,0,5.737
8,102,perceptual,0.03,0.05,target,competitor,0,2.826
8,103,numeric,0.03,0.05,target,target,1,14.183
8,104,numeric,0.03,0.2,competitor,competitor,0,5.916
8,105,perceptual,0.03,0.2,competitor,competitor,0,2.755
8,106,perceptual,0.03,0.2,competitor,decoy,0,2.565
8,107,perceptual,0.03,0.05,target,competitor,0,3.204
8,108,numeric,0.03,0.2,target,competitor,0,8.233
8,109,perceptual,0.1,0.2,target,competitor,0,3.542
8,110,numeric,0.1,0.2,target,target,1,12.55
8,111,perceptual,0.03,0.2,target,target,1,12.565
8,112,numeric,0.1,0.05,competitor,competitor,0,12.658
8,113,numeric,0.03,0.05,competitor,competitor,0,11.588
8,114,numeric,0.03,0.2,competitor,target,1,10.006
8,115,numeric,0.1,0.2,competitor,target,1,6.565
8,116,numeric,0.03,0.05,competitor,competitor,0,6.435
8,117,numeric,0.03,0.2,target,target,1,6.181
8,118,numeric,0.1,0.2,target,target,1,9.166
8,119,perceptual,0.03,0.2,target,competitor,0,3.856
8,120,numeric,0.03,0.05,competitor,target,1,15.816
8,121,numeric,0.03,0.05,competitor,target,1,3.057
8,122,perceptual,0.1,0.05,competitor,competitor,0,6.099
8,123,perceptual,0.03,0.05,target,competitor,0,2.857
8,124,perceptual,0.03,0.2,competitor,competitor,0,2.686
8,125,numeric,0.03,0.2,target,competitor,0,5.717
8,126,perceptual,0.1,0.05,competitor,target,1,2.685
8,127,numeric,0.1,0.05,competitor,target,1,8.13
8,128,numeric,0.1,0.05,target,target,1,6.103
8,129,perceptual,0.03,0.2,target,competitor,0,4.164
8,130,numeric,0.1,0.05,competitor,target,1,6.619
8,131,perceptual,0.03,0.05,target,target,1,5.486
8,132,perceptual,0.1,0.2,target,decoy,0,5.291
8,133,perceptual,0.03,0.2,target,decoy,0,6.22
8,134,perceptual,0.1,0.05,competitor,decoy,0,2.887
8,135,numeric,0.03,0.2,competitor,target,1,3.737
8,136,perceptual,0.1,0.05,competitor,competitor,0,2.808
8,137,perceptual,0.1,0.2,competitor,decoy,0,2.543
8,138,numeric,0.1,0.05,competitor,target,1,5.179
8,139,numeric,0.03,0.2,target,target,1,7.621
8,140,numeric,0.1,0.05,competitor,target,1,6.287
8,141,perceptual,0.03,0.05,target,target,1,3.386
8,142,numeric,0.1,0.05,competitor,competitor,0,7
8,143,perceptual,0.1,0.2,target,competitor,0,4.99
8,144,perceptual,0.03,0.2,target,target,1,7.352
8,145,perceptual,0.03,0.05,competitor,target,1,5.194
8,147,perceptual,0.1,0.2,competitor,competitor,0,14.271
8,148,perceptual,0.1,0.05,competitor,target,1,5.769
8,149,perceptual,0.03,0.2,target,competitor,0,3.219
8,150,perceptual,0.1,0.05,target,decoy,0,3.708
8,151,numeric,0.1,0.2,competitor,decoy,0,4.149
8,152,perceptual,0.03,0.05,target,competitor,0,3.464
8,153,perceptual,0.1,0.05,competitor,target,1,2.396
8,154,numeric,0.03,0.05,competitor,target,1,7.006
8,155,numeric,0.03,0.05,target,competitor,0,4.356
8,156,perceptual,0.1,0.05,target,competitor,0,2.947
8,157,numeric,0.03,0.05,target,competitor,0,3.286
8,158,numeric,0.03,0.2,target,competitor,0,3.745
8,159,numeric,0.1,0.05,competitor,target,1,4.13
8,160,perceptual,0.1,0.2,target,competitor,0,2.758
8,161,perceptual,0.1,0.2,target,decoy,0,5.402
8,162,perceptual,0.03,0.05,competitor,target,1,3.214
8,163,perceptual,0.03,0.2,competitor,target,1,4.931
8,164,perceptual,0.1,0.05,competitor,target,1,4.173
8,165,numeric,0.03,0.2,target,target,1,7.023
8,166,numeric,0.1,0.2,competitor,target,1,8.993
8,167,perceptual,0.03,0.05,competitor,target,1,4
8,168,perceptual,0.03,0.2,competitor,target,1,3.009
8,169,numeric,0.03,0.05,target,target,1,5.317
8,170,numeric,0.1,0.05,target,target,1,6.243
8,171,numeric,0.1,0.2,competitor,target,1,5.339
8,172,numeric,0.03,0.2,competitor,target,1,8.736
8,173,perceptual,0.03,0.05,competitor,competitor,0,2.865
8,174,numeric,0.03,0.05,target,target,1,6.713
8,175,numeric,0.1,0.05,competitor,competitor,0,8.658
8,176,perceptual,0.1,0.2,competitor,decoy,0,3.359
8,177,numeric,0.1,0.05,target,decoy,0,7.701
8,178,perceptual,0.03,0.05,competitor,competitor,0,2.238
8,179,numeric,0.1,0.05,target,target,1,9.365
8,180,numeric,0.03,0.05,target,target,1,6.199
8,181,perceptual,0.1,0.2,target,target,1,2.731
8,182,numeric,0.1,0.2,target,target,1,5.206
8,183,numeric,0.1,0.2,target,target,1,8.935
8,184,perceptual,0.03,0.05,competitor,target,1,3.736
8,185,perceptual,0.03,0.2,competitor,target,1,4.534
8,186,numeric,0.03,0.2,target,target,1,4.178
8,187,perceptual,0.03,0.05,target,competitor,0,4.917
8,188,perceptual,0.03,0.05,competitor,decoy,0,5.181
8,189,perceptual,0.1,0.2,target,target,1,4.005
8,190,numeric,0.1,0.2,competitor,target,1,8.136
8,191,numeric,0.03,0.2,competitor,competitor,0,8.123
8,192,numeric,0.03,0.2,competitor,target,1,7.481
9,1,perceptual,0.1,0.05,competitor,competitor,0,8.192
9,2,numeric,0.03,0.2,target,target,1,7.961
9,3,perceptual,0.1,0.05,target,decoy,0,4.555
9,4,perceptual,0.03,0.05,target,target,1,6.876
9,5,perceptual,0.1,0.05,target,target,1,4.967
9,6,perceptual,0.03,0.05,competitor,decoy,0,4.981
9,7,numeric,0.1,0.2,competitor,competitor,0,9.484
9,8,perceptual,0.03,0.05,competitor,target,1,6.649
9,9,perceptual,0.1,0.2,target,target,1,3.687
9,10,perceptual,0.1,0.2,target,target,1,5.258
9,11,perceptual,0.1,0.05,target,decoy,0,5.081
9,12,perceptual,0.1,0.05,competitor,decoy,0,4.074
9,13,perceptual,0.1,0.2,target,competitor,0,4.509
9,14,numeric,0.03,0.05,target,target,1,8.826
9,15,perceptual,0.03,0.05,target,decoy,0,6.653
9,16,numeric,0.1,0.2,target,target,1,6.523
9,17,perceptual,0.1,0.05,target,decoy,0,4.135
9,18,numeric,0.03,0.05,competitor,competitor,0,10.007
9,19,perceptual,0.03,0.05,competitor,target,1,7.846
9,20,perceptual,0.1,0.05,target,target,1,7.36
9,21,perceptual,0.1,0.05,target,competitor,0,5.031
9,22,numeric,0.1,0.2,competitor,target,1,8.544
9,23,perceptual,0.1,0.2,target,target,1,4.52
9,24,perceptual,0.1,0.2,target,competitor,0,5.189
9,25,numeric,0.03,0.05,competitor,competitor,0,17.614
9,26,perceptual,0.03,0.05,competitor,target,1,7.33
9,27,perceptual,0.03,0.05,target,target,1,3.945
9,28,numeric,0.1,0.2,competitor,target,1,10.477
9,29,perceptual,0.1,0.05,target,target,1,4.862
9,30,numeric,0.1,0.2,competitor,target,1,7.451
9,31,numeric,0.03,0.05,competitor,target,1,7.762
9,32,numeric,0.03,0.2,target,competitor,0,10.778
9,33,numeric,0.1,0.05,competitor,target,1,7.46
9,34,perceptual,0.1,0.2,competitor,competitor,0,6.502
9,35,numeric,0.03,0.05,target,target,1,7.526
9,36,numeric,0.1,0.05,target,target,1,13.18
9,37,perceptual,0.03,0.2,competitor,competitor,0,8.888
9,38,perceptual,0.1,0.2,competitor,competitor,0,5.996
9,39,numeric,0.03,0.2,competitor,target,1,12.153
9,40,perceptual,0.03,0.05,target,decoy,0,3.689
9,41,perceptual,0.1,0.05,competitor,decoy,0,6.961
9,42,numeric,0.1,0.2,target,target,1,6.062
9,43,perceptual,0.03,0.05,competitor,competitor,0,4.309
9,44,numeric,0.1,0.05,competitor,target,1,8.154
9,45,numeric,0.1,0.05,target,target,1,9.817
9,46,numeric,0.03,0.05,target,competitor,0,14.11
9,47,perceptual,0.03,0.05,competitor,target,1,4.362
9,48,numeric,0.03,0.2,competitor,competitor,0,9.931
9,49,perceptual,0.1,0.2,target,competitor,0,6.757
9,50,perceptual,0.03,0.2,competitor,target,1,4.935
9,51,numeric,0.1,0.05,competitor,target,1,7.912
9,52,numeric,0.03,0.2,competitor,competitor,0,14.655
9,53,numeric,0.03,0.2,target,target,1,6.374
9,54,perceptual,0.03,0.2,competitor,competitor,0,4.312
9,55,numeric,0.03,0.2,competitor,target,1,11.392
9,56,numeric,0.03,0.05,competitor,competitor,0,7.001
9,57,numeric,0.1,0.05,target,target,1,17.241
9,58,perceptual,0.1,0.05,target,competitor,0,5.96
9,59,perceptual,0.1,0.2,competitor,target,1,3.586
9,60,numeric,0.1,0.2,target,target,1,17.518
9,61,perceptual,0.03,0.05,competitor,target,1,5.04
9,62,numeric,0.03,0.2,target,target,1,12.144
9,63,perceptual,0.03,0.05,target,competitor,0,6.103
9,64,perceptual,0.03,0.2,competitor,target,1,4.373
9,65,perceptual,0.03,0.05,target,decoy,0,4.587
9,66,perceptual,0.1,0.05,target,decoy,0,3.751
9,67,numeric,0.03,0.05,competitor,target,1,4.639
9,68,perceptual,0.1,0.2,target,competitor,0,3.725
9,69,numeric,0.03,0.05,competitor,target,1,13.446
9,70,numeric,0.1,0.2,target,target,1,7.416
9,71,numeric,0.1,0.05,competitor,competitor,0,11.24
9,72,perceptual,0.03,0.2,target,competitor,0,4.512
9,73,numeric,0.03,0.2,competitor,target,1,6.856
9,74,perceptual,0.1,0.2,competitor,target,1,7.22
9,75,perceptual,0.1,0.2,target,target,1,4.634
9,76,perceptual,0.03,0.2,target,target,1,3.286
9,77,perceptual,0.1,0.2,competitor,competitor,0,6.495
9,78,numeric,0.03,0.2,target,competitor,0,5.353
9,79,perceptual,0.03,0.2,target,target,1,16.503
9,80,numeric,0.03,0.05,target,target,1,10.699
9,81,perceptual,0.1,0.2,target,competitor,0,4.114
9,82,perceptual,0.1,0.2,target,competitor,0,6.592
9,83,numeric,0.1,0.05,competitor,competitor,0,9.291
9,84,perceptual,0.03,0.2,target,decoy,0,6.538
9,85,perceptual,0.1,0.05,competitor,decoy,0,6.015
9,86,numeric,0.03,0.2,competitor,target,1,10.175
9,87,numeric,0.03,0.2,target,target,1,8.181
9,88,perceptual,0.1,0.2,competitor,target,1,5.461
9,89,numeric,0.1,0.05,target,target,1,6.606
9,90,numeric,0.1,0.2,competitor,target,1,11.908
9,91,numeric,0.03,0.05,competitor,competitor,0,8.703
9,92,perceptual,0.03,0.05,target,competitor,0,4.542
9,93,numeric,0.03,0.2,target,target,1,6.27
9,94,numeric,0.1,0.2,target,target,1,14.2
9,95,numeric,0.1,0.05,competitor,target,1,6.757
9,96,numeric,0.1,0.05,target,target,1,6.357
9,97,perceptual,0.03,0.05,competitor,competitor,0,6.727
9,98,numeric,0.03,0.05,target,target,1,7.225
9,99,numeric,0.03,0.2,competitor,competitor,0,5.664
9,100,numeric,0.1,0.05,target,target,1,14.498
9,101,numeric,0.03,0.05,target,target,1,7.369
9,102,perceptual,0.03,0.2,target,target,1,4.019
9,103,perceptual,0.03,0.2,competitor,competitor,0,5.04
9,104,numeric,0.1,0.05,target,target,1,6.426
9,105,perceptual,0.03,0.2,target,competitor,0,3.889
9,106,numeric,0.03,0.05,competitor,competitor,0,9.921
9,107,numeric,0.1,0.2,target,target,1,10.93
9,108,perceptual,0.1,0.05,competitor,decoy,0,5.238
9,109,perceptual,0.03,0.05,target,decoy,0,5.791
9,110,perceptual,0.1,0.2,competitor,decoy,0,5.524
9,111,numeric,0.03,0.2,target,target,1,7.869
9,112,numeric,0.03,0.2,competitor,target,1,6.524
9,113,perceptual,0.1,0.05,competitor,target,1,9.53
9,114,perceptual,0.1,0.2,competitor,decoy,0,6.169
9,115,numeric,0.03,0.05,target,target,1,6.44
9,116,perceptual,0.03,0.05,competitor,target,1,6.574
9,117,numeric,0.03,0.2,competitor,competitor,0,11.061
9,118,perceptual,0.03,0.2,target,competitor,0,3.488
9,119,numeric,0.1,0.2,target,target,1,10.502
9,120,numeric,0.1,0.05,competitor,target,1,8.048
9,121,numeric,0.1,0.2,competitor,competitor,0,14.122
9,122,numeric,0.1,0.05,competitor,target,1,6.53
9,123,numeric,0.1,0.2,competitor,competitor,0,10.139
9,124,perceptual,0.1,0.2,target,competitor,0,4.534
9,125,perceptual,0.1,0.2,competitor,competitor,0,3.968
9,126,numeric,0.03,0.2,target,competitor,0,6.16
9,127,numeric,0.1,0.2,competitor,target,1,7.9
9,128,numeric,0.03,0.05,competitor,target,1,7.175
9,129,numeric,0.03,0.2,target,target,1,5.594
9,130,perceptual,0.03,0.2,target,decoy,0,4.36
9,131,numeric,0.03,0.05,competitor,competitor,0,6.33
9,132,numeric,0.03,0.2,target,target,1,10.689
9,133,numeric,0.03,0.05,target,target,1,9.749
9,134,numeric,0.1,0.05,competitor,competitor,0,10.317
9,135,perceptual,0.03,0.05,competitor,target,1,3.562
9,136,perceptual,0.03,0.05,competitor,competitor,0,4.433
9,137,numeric,0.1,0.05,target,target,1,10.26
9,138,numeric,0.1,0.05,target,target,1,10.307
9,139,numeric,0.03,0.2,competitor,competitor,0,6.599
9,140,perceptual,0.03,0.2,target,competitor,0,3.315
9,141,perceptual,0.1,0.05,competitor,decoy,0,4.708
9,142,numeric,0.1,0.2,target,target,1,9.445
9,143,perceptual,0.03,0.2,competitor,target,1,4.39
9,144,numeric,0.1,0.2,competitor,competitor,0,8.509
9,145,perceptual,0.1,0.05,competitor,competitor,0,6.331
9,146,perceptual,0.1,0.05,competitor,decoy,0,5.971
9,147,perceptual,0.03,0.05,target,competitor,0,4.734
9,148,numeric,0.1,0.2,target,competitor,0,9.053
9,149,perceptual,0.1,0.2,target,decoy,0,4.421
9,150,perceptual,0.1,0.05,competitor,target,1,4.548
9,151,numeric,0.03,0.05,competitor,target,1,7.36
9,152,perceptual,0.1,0.05,competitor,decoy,0,5.256
9,153,perceptual,0.03,0.05,target,target,1,5.353
9,154,numeric,0.03,0.05,target,target,1,8.619
9,155,perceptual,0.03,0.2,competitor,target,1,4.078
9,156,numeric,0.1,0.2,target,target,1,13.341
9,157,numeric,0.1,0.2,target,target,1,7.465
9,158,numeric,0.03,0.05,target,target,1,8.549
9,159,numeric,0.1,0.05,target,target,1,9.288
9,160,perceptual,0.1,0.2,competitor,target,1,5.943
9,161,perceptual,0.03,0.2,competitor,competitor,0,4.357
9,162,perceptual,0.03,0.2,competitor,competitor,0,2.805
9,163,perceptual,0.03,0.2,target,competitor,0,4.751
9,164,perceptual,0.1,0.05,target,target,1,3.953
9,165,perceptual,0.03,0.2,competitor,competitor,0,6.019
9,166,numeric,0.03,0.2,target,competitor,0,15.167
9,167,numeric,0.1,0.2,competitor,target,1,9.355
9,168,perceptual,0.03,0.05,target,decoy,0,4.347
9,169,perceptual,0.03,0.2,competitor,competitor,0,3.95
9,170,perceptual,0.03,0.05,target,competitor,0,3.174
9,171,numeric,0.1,0.05,competitor,competitor,0,6.48
9,172,numeric,0.1,0.05,target,target,1,6.985
9,173,numeric,0.1,0.2,target,target,1,6.931
9,174,perceptual,0.03,0.2,target,target,1,3.942
9,175,perceptual,0.03,0.05,competitor,target,1,3.037
9,176,perceptual,0.03,0.2,target,target,1,3.69
9,177,perceptual,0.1,0.05,competitor,target,1,3.527
9,178,numeric,0.1,0.05,target,target,1,9.845
9,179,numeric,0.03,0.2,competitor,competitor,0,8.875
9,180,perceptual,0.1,0.05,target,decoy,0,4.097
9,181,numeric,0.03,0.2,competitor,competitor,0,7.305
9,182,numeric,0.1,0.05,competitor,target,1,6.69
9,183,numeric,0.03,0.05,target,competitor,0,6.865
9,184,perceptual,0.1,0.2,competitor,target,1,5.147
9,185,perceptual,0.03,0.2,competitor,competitor,0,5.446
9,186,perceptual,0.1,0.05,target,target,1,4.407
9,187,numeric,0.1,0.2,competitor,target,1,8.307
9,188,perceptual,0.1,0.2,competitor,competitor,0,3.371
9,189,numeric,0.03,0.05,target,target,1,5.757
9,190,numeric,0.1,0.2,competitor,competitor,0,8.531
9,191,numeric,0.03,0.05,competitor,target,1,11.791
9,192,numeric,0.1,0.05,competitor,target,1,11.284
10,1,perceptual,0.1,0.2,competitor,competitor,0,9.36
10,2,numeric,0.1,0.05,competitor,target,1,10.283
10,3,perceptual,0.03,0.2,target,target,1,6.116
10,4,perceptual,0.1,0.2,competitor,target,1,7.99
10,5,perceptual,0.1,0.2,competitor,target,1,11.01
10,6,numeric,0.1,0.2,competitor,target,1,9.466
10,7,perceptual,0.03,0.2,target,target,1,8.629
10,8,perceptual,0.1,0.2,target,target,1,7.035
10,9,perceptual,0.1,0.2,target,competitor,0,5.521
10,10,numeric,0.1,0.2,competitor,target,1,9.229
10,11,perceptual,0.1,0.05,target,decoy,0,5.732
10,12,numeric,0.03,0.05,target,target,1,13.451
10,13,perceptual,0.03,0.2,target,competitor,0,6.75
10,14,numeric,0.03,0.2,competitor,target,1,10.68
10,15,perceptual,0.03,0.2,competitor,target,1,6.536
10,16,perceptual,0.1,0.05,target,target,1,7.417
10,17,perceptual,0.1,0.2,target,target,1,8.235
10,18,perceptual,0.1,0.2,competitor,target,1,3.434
10,19,numeric,0.03,0.2,target,target,1,13.86
10,20,numeric,0.1,0.05,competitor,target,1,8.647
10,21,perceptual,0.03,0.05,competitor,target,1,5.475
10,22,perceptual,0.03,0.05,target,decoy,0,6.439
10,23,perceptual,0.1,0.05,target,target,1,5.995
10,24,numeric,0.03,0.05,target,target,1,7.51
10,25,perceptual,0.03,0.2,competitor,competitor,0,6.918
10,26,numeric,0.03,0.05,target,target,1,10.539
10,27,perceptual,0.1,0.2,competitor,target,1,4.711
10,28,numeric,0.1,0.05,target,target,1,10.78
10,29,perceptual,0.03,0.05,competitor,target,1,5.104
10,30,perceptual,0.03,0.05,target,target,1,4.776
10,31,perceptual,0.1,0.05,target,decoy,0,6.536
10,32,perceptual,0.1,0.2,target,target,1,5.751
10,33,perceptual,0.1,0.2,target,target,1,5.187
10,34,numeric,0.1,0.2,competitor,target,1,11.166
10,35,numeric,0.03,0.05,target,target,1,14.942
10,36,perceptual,0.03,0.2,competitor,target,1,6.093
10,37,numeric,0.1,0.2,target,target,1,12.918
10,38,numeric,0.03,0.2,competitor,competitor,0,11.158
10,39,perceptual,0.1,0.05,competitor,competitor,0,6.568
10,40,perceptual,0.03,0.2,competitor,target,1,6.077
10,41,perceptual,0.1,0.2,target,target,1,9.276
10,42,perceptual,0.1,0.05,competitor,competitor,0,6.619
10,43,perceptual,0.03,0.2,target,target,1,4.197
10,44,numeric,0.1,0.05,target,target,1,13.682
10,45,numeric,0.03,0.05,competitor,target,1,12.849
10,46,numeric,0.1,0.05,target,target,1,17.865
10,47,perceptual,0.03,0.05,competitor,competitor,0,4.751
10,48,numeric,0.03,0.2,target,target,1,14.631
10,49,perceptual,0.03,0.05,competitor,target,1,3.894
10,50,perceptual,0.1,0.05,competitor,target,1,6.198
10,51,numeric,0.1,0.05,competitor,target,1,7.523
10,52,perceptual,0.1,0.05,competitor,target,1,6.803
10,53,numeric,0.03,0.05,competitor,target,1,9.261
10,54,numeric,0.03,0.2,competitor,competitor,0,12.565
10,55,numeric,0.1,0.2,target,target,1,9.143
10,56,numeric,0.03,0.05,target,target,1,13.75
10,57,perceptual,0.03,0.05,target,target,1,8.999
10,58,perceptual,0.1,0.2,competitor,target,1,7.075
10,59,perceptual,0.03,0.05,competitor,target,1,5.634
10,60,perceptual,0.03,0.2,competitor,target,1,4.355
10,61,numeric,0.03,0.05,competitor,competitor,0,14.794
10,62,numeric,0.03,0.2,competitor,target,1,11.163
10,63,numeric,0.03,0.2,competitor,competitor,0,16.164
10,64,perceptual,0.03,0.05,target,target,1,6.829
10,65,numeric,0.03,0.2,target,target,1,11.265
10,66,numeric,0.03,0.05,competitor,competitor,0,13.768
10,67,perceptual,0.1,0.2,target,competitor,0,6.279
10,68,numeric,0.03,0.2,competitor,target,1,14.066
10,69,perceptual,0.1,0.2,competitor,target,1,10.391
10,70,perceptual,0.1,0.2,target,target,1,5.885
10,71,perceptual,0.03,0.2,target,target,1,7.263
10,72,numeric,0.1,0.05,competitor,target,1,13.806
10,73,numeric,0.03,0.05,target,target,1,14.064
10,74,numeric,0.03,0.2,competitor,target,1,17.874
10,75,numeric,0.03,0.05,competitor,target,1,10.038
10,76,numeric,0.03,0.05,target,competitor,0,15.644
10,77,numeric,0.1,0.05,competitor,target,1,11.317
10,78,numeric,0.1,0.2,target,target,1,11.635
10,79,perceptual,0.1,0.05,competitor,target,1,4.968
10,80,numeric,0.1,0.05,competitor,target,1,8.958
10,81,numeric,0.1,0.2,target,competitor,0,9.625
10,82,perceptual,0.1,0.2,competitor,target,1,3.848
10,83,perceptual,0.1,0.2,competitor,target,1,5.246
10,84,perceptual,0.03,0.05,target,target,1,5.123
10,85,perceptual,0.03,0.05,competitor,target,1,5.95
10,86,perceptual,0.1,0.05,target,decoy,0,4.537
10,87,numeric,0.1,0.2,competitor,target,1,18.637
10,88,numeric,0.03,0.05,target,competitor,0,10.571
10,89,perceptual,0.1,0.05,competitor,target,1,5.401
10,90,numeric,0.03,0.2,competitor,decoy,0,11.23
10,91,numeric,0.1,0.05,target,target,1,9.048
10,92,numeric,0.1,0.2,target,target,1,7.961
10,94,perceptual,0.03,0.2,competitor,competitor,0,5.767
10,95,numeric,0.1,0.2,competitor,target,1,5.367
10,96,numeric,0.1,0.05,target,target,1,7.505
10,97,perceptual,0.1,0.2,competitor,target,1,3.792
10,98,perceptual,0.1,0.05,target,decoy,0,4.156
10,99,perceptual,0.03,0.05,competitor,target,1,5.909
10,100,numeric,0.03,0.2,target,target,1,8.055
10,101,perceptual,0.03,0.2,target,competitor,0,3.391
10,102,numeric,0.1,0.2,target,target,1,8.505
10,103,numeric,0.03,0.2,competitor,target,1,6.598
10,104,numeric,0.1,0.2,competitor,target,1,7.234
10,105,numeric,0.1,0.05,target,target,1,8.448
10,106,perceptual,0.03,0.05,target,decoy,0,4.783
10,107,numeric,0.03,0.2,target,target,1,10.304
10,108,perceptual,0.1,0.05,competitor,target,1,5.833
10,109,numeric,0.1,0.05,competitor,competitor,0,9.926
10,110,perceptual,0.03,0.2,target,target,1,6.399
10,111,perceptual,0.03,0.05,target,competitor,0,5.582
10,112,perceptual,0.03,0.05,competitor,decoy,0,5.439
10,113,perceptual,0.1,0.05,target,target,1,3.663
10,114,numeric,0.1,0.05,competitor,target,1,8.73
10,115,numeric,0.1,0.05,target,target,1,8.796
10,116,perceptual,0.03,0.05,competitor,target,1,4.679
10,117,numeric,0.1,0.2,target,target,1,6.953
10,118,numeric,0.03,0.05,target,target,1,10.77
10,119,perceptual,0.1,0.05,competitor,target,1,6.841
10,120,numeric,0.03,0.05,competitor,target,1,7.947
10,121,perceptual,0.1,0.05,target,decoy,0,4.063
10,122,perceptual,0.1,0.05,competitor,target,1,4.582
10,123,numeric,0.1,0.05,target,target,1,7.931
10,124,perceptual,0.03,0.2,target,target,1,4.349
10,125,perceptual,0.1,0.2,target,target,1,3.925
10,126,perceptual,0.1,0.2,target,target,1,3.981
10,127,numeric,0.1,0.05,competitor,competitor,0,8.343
10,128,perceptual,0.1,0.2,competitor,target,1,7.214
10,129,perceptual,0.1,0.05,target,decoy,0,3.387
10,130,numeric,0.1,0.05,competitor,target,1,6.589
10,131,numeric,0.03,0.2,target,target,1,7.123
10,132,numeric,0.03,0.2,target,target,1,9.952
10,133,perceptual,0.03,0.05,target,target,1,5.334
10,134,numeric,0.03,0.2,target,target,1,8.892
10,135,perceptual,0.03,0.2,competitor,competitor,0,5.051
10,136,numeric,0.1,0.05,target,decoy,0,10.012
10,137,numeric,0.1,0.2,target,target,1,10.565
10,138,perceptual,0.03,0.2,competitor,target,1,6.55
10,139,numeric,0.03,0.05,competitor,competitor,0,9.517
10,140,numeric,0.03,0.05,competitor,target,1,9.327
10,141,numeric,0.1,0.2,competitor,target,1,7.057
10,142,numeric,0.1,0.2,competitor,target,1,6.033
10,143,perceptual,0.03,0.2,competitor,competitor,0,6.466
10,144,perceptual,0.03,0.2,competitor,target,1,3.922
10,145,perceptual,0.1,0.2,competitor,target,1,2.791
10,146,numeric,0.1,0.2,target,target,1,5.491
10,147,numeric,0.1,0.05,target,target,1,6.678
10,148,perceptual,0.03,0.05,competitor,target,1,4.115
10,149,perceptual,0.03,0.2,target,target,1,4.857
10,150,numeric,0.03,0.2,competitor,competitor,0,10.942
10,151,numeric,0.03,0.05,target,target,1,6.359
10,152,perceptual,0.1,0.05,competitor,target,1,5.318
10,153,numeric,0.1,0.05,competitor,target,1,6.633
10,154,perceptual,0.1,0.05,competitor,decoy,0,4.383
10,155,numeric,0.1,0.05,target,target,1,5.716
10,156,numeric,0.1,0.2,competitor,target,1,5.034
10,157,perceptual,0.1,0.05,competitor,target,1,4.277
10,158,perceptual,0.03,0.2,target,target,1,10.244
10,159,numeric,0.1,0.2,target,target,1,7.913
10,160,numeric,0.03,0.05,competitor,competitor,0,6.395
10,161,numeric,0.1,0.2,competitor,target,1,9.588
10,162,numeric,0.1,0.2,target,target,1,5.56
10,163,perceptual,0.03,0.2,competitor,decoy,0,3.015
10,164,numeric,0.03,0.05,competitor,target,1,8.396
10,165,perceptual,0.03,0.05,target,decoy,0,4.77
10,166,perceptual,0.1,0.05,target,competitor,0,7.602
10,167,numeric,0.03,0.2,competitor,target,1,8.237
10,168,numeric,0.1,0.05,target,target,1,8.065
10,169,numeric,0.1,0.05,competitor,target,1,7.258
10,170,perceptual,0.03,0.2,competitor,target,1,4.393
10,171,perceptual,0.03,0.05,target,target,1,3.95
10,172,perceptual,0.1,0.05,target,decoy,0,5.674
10,173,perceptual,0.03,0.2,target,target,1,4.175
10,174,numeric,0.03,0.2,target,target,1,8.555
10,175,perceptual,0.03,0.05,competitor,decoy,0,4.613
10,176,numeric,0.03,0.05,competitor,competitor,0,9.154
10,177,perceptual,0.03,0.05,target,target,1,6.094
10,178,numeric,0.1,0.2,target,competitor,0,7.7
10,179,numeric,0.1,0.2,competitor,target,1,5.292
10,180,perceptual,0.1,0.2,target,target,1,5.072
10,181,numeric,0.03,0.2,target,competitor,0,8.339
10,182,numeric,0.1,0.2,competitor,target,1,7.784
10,183,numeric,0.03,0.05,target,target,1,8.376
10,184,numeric,0.03,0.2,target,target,1,7.618
10,185,numeric,0.03,0.05,target,target,1,6.967
10,186,perceptual,0.1,0.2,target,decoy,0,6.308
10,187,perceptual,0.03,0.05,competitor,competitor,0,4.375
10,188,perceptual,0.1,0.05,target,decoy,0,4.677
10,189,numeric,0.03,0.2,competitor,target,1,9.615
10,190,perceptual,0.03,0.05,target,decoy,0,3.601
10,191,numeric,0.03,0.2,target,target,1,7.537
10,192,perceptual,0.03,0.2,target,target,1,3.52
11,1,perceptual,0.03,0.05,competitor,target,1,8.749
11,2,numeric,0.1,0.2,target,target,1,8.484
11,3,numeric,0.03,0.05,competitor,competitor,0,6.033
11,4,numeric,0.03,0.05,competitor,target,1,5.743
11,5,numeric,0.1,0.05,competitor,competitor,0,6.316
11,6,numeric,0.03,0.2,competitor,decoy,0,4.903
11,7,numeric,0.1,0.2,target,target,1,9.339
11,8,perceptual,0.1,0.2,target,decoy,0,3.768
11,9,perceptual,0.03,0.2,target,target,1,3.112
11,10,numeric,0.1,0.05,competitor,target,1,3.738
11,11,numeric,0.03,0.05,target,target,1,2.636
11,12,numeric,0.03,0.2,competitor,competitor,0,3.355
11,13,numeric,0.1,0.05,competitor,competitor,0,4.63
11,14,perceptual,0.03,0.05,target,competitor,0,4.985
11,15,numeric,0.1,0.2,competitor,target,1,3.863
11,16,numeric,0.03,0.2,target,target,1,2.131
11,17,numeric,0.03,0.05,competitor,competitor,0,3.002
11,18,perceptual,0.03,0.2,competitor,competitor,0,3.076
11,19,perceptual,0.1,0.2,target,competitor,0,3.607
11,20,numeric,0.1,0.05,target,competitor,0,6.863
11,21,perceptual,0.03,0.05,competitor,target,1,3.301
11,22,perceptual,0.1,0.05,target,target,1,3.364
11,23,numeric,0.1,0.05,competitor,target,1,6.848
11,24,perceptual,0.03,0.05,target,decoy,0,5.157
11,25,numeric,0.1,0.05,competitor,decoy,0,5.5
11,26,numeric,0.1,0.2,competitor,competitor,0,1.853
11,27,numeric,0.1,0.2,target,competitor,0,1.293
11,28,perceptual,0.1,0.2,competitor,target,1,1.276
11,29,numeric,0.1,0.2,competitor,competitor,0,1.277
11,30,perceptual,0.03,0.2,competitor,competitor,0,2.287
11,31,perceptual,0.03,0.2,competitor,decoy,0,2.202
11,32,perceptual,0.03,0.2,target,target,1,2.25
11,33,numeric,0.1,0.2,competitor,target,1,3.49
11,34,numeric,0.1,0.05,target,decoy,0,2.321
11,35,perceptual,0.1,0.2,target,decoy,0,2.137
11,36,perceptual,0.1,0.2,competitor,target,1,1.896
11,37,perceptual,0.03,0.05,target,decoy,0,2.356
11,38,perceptual,0.03,0.05,competitor,competitor,0,3.133
11,39,numeric,0.1,0.05,competitor,target,1,6.078
11,40,perceptual,0.1,0.05,target,decoy,0,4.428
11,41,perceptual,0.1,0.05,target,target,1,4.358
11,42,perceptual,0.1,0.05,competitor,target,1,3.018
11,43,perceptual,0.1,0.2,competitor,target,1,3.586
11,44,perceptual,0.03,0.05,competitor,competitor,0,3.635
11,45,perceptual,0.1,0.05,target,target,1,4.437
11,46,numeric,0.03,0.2,competitor,target,1,7.449
11,47,numeric,0.1,0.2,target,target,1,6.745
11,48,perceptual,0.03,0.2,competitor,target,1,3.228
11,49,numeric,0.03,0.05,competitor,competitor,0,6.042
11,50,perceptual,0.1,0.2,competitor,target,1,3.757
11,51,numeric,0.03,0.05,competitor,target,1,3.858
11,52,perceptual,0.03,0.2,competitor,competitor,0,4.137
11,53,numeric,0.03,0.05,target,target,1,4.181
11,54,perceptual,0.03,0.2,competitor,target,1,2.602
11,55,numeric,0.03,0.2,target,decoy,0,3.149
11,56,numeric,0.1,0.05,target,decoy,0,3.326
11,57,perceptual,0.1,0.05,competitor,target,1,3.149
11,58,numeric,0.1,0.2,target,target,1,2.869
11,59,perceptual,0.1,0.05,competitor,competitor,0,2.138
11,60,perceptual,0.1,0.05,target,competitor,0,3.1
11,61,numeric,0.03,0.2,target,competitor,0,3.757
11,62,numeric,0.1,0.05,target,target,1,3.062
11,63,numeric,0.03,0.05,target,competitor,0,3.001
11,64,numeric,0.03,0.2,target,competitor,0,2.866
11,65,perceptual,0.1,0.2,target,competitor,0,3.195
11,66,perceptual,0.03,0.05,competitor,decoy,0,3.467
11,67,numeric,0.03,0.05,competitor,competitor,0,3.05
11,68,perceptual,0.1,0.2,competitor,target,1,2.696
11,69,perceptual,0.03,0.05,competitor,target,1,3.104
11,70,numeric,0.1,0.2,competitor,target,1,2.723
11,71,numeric,0.03,0.2,competitor,competitor,0,2.845
11,72,numeric,0.03,0.05,target,competitor,0,4.827
11,73,numeric,0.03,0.05,competitor,target,1,5.269
11,74,perceptual,0.1,0.05,competitor,target,1,4.943
11,75,perceptual,0.1,0.2,target,target,1,4.449
11,76,perceptual,0.1,0.05,target,target,1,5.127
11,77,perceptual,0.1,0.05,target,target,1,6.631
11,78,numeric,0.1,0.2,target,competitor,0,4.934
11,79,perceptual,0.03,0.2,competitor,target,1,3.875
11,80,numeric,0.1,0.05,target,decoy,0,14.882
11,81,perceptual,0.03,0.2,target,target,1,4.25
11,82,perceptual,0.1,0.2,target,target,1,3.493
11,83,numeric,0.03,0.2,target,target,1,16.68
11,84,numeric,0.1,0.2,target,competitor,0,9.113
11,85,perceptual,0.03,0.05,competitor,decoy,0,5.108
11,86,numeric,0.03,0.05,target,competitor,0,9.085
11,87,perceptual,0.1,0.2,target,target,1,6.209
11,88,numeric,0.1,0.2,target,target,1,11.559
11,89,numeric,0.03,0.05,target,competitor,0,17.19
11,90,numeric,0.03,0.2,competitor,target,1,7.635
11,91,numeric,0.03,0.2,target,competitor,0,8.092
11,92,numeric,0.03,0.2,competitor,competitor,0,4.84
11,93,perceptual,0.03,0.05,target,target,1,5.073
11,94,perceptual,0.1,0.05,competitor,competitor,0,6.699
11,95,perceptual,0.03,0.2,competitor,competitor,0,6.416
11,96,perceptual,0.1,0.2,competitor,target,1,5.859
11,97,perceptual,0.1,0.05,competitor,target,1,8.997
11,98,perceptual,0.03,0.2,target,competitor,0,10.468
11,99,numeric,0.1,0.05,target,competitor,0,12.025
11,100,numeric,0.03,0.2,target,target,1,6.536
11,101,numeric,0.1,0.2,target,target,1,4.232
11,102,numeric,0.1,0.05,competitor,target,1,10.927
11,103,numeric,0.03,0.2,target,target,1,4.429
11,104,numeric,0.03,0.2,competitor,target,1,3.669
11,105,numeric,0.03,0.2,competitor,competitor,0,8.622
11,106,perceptual,0.03,0.2,target,target,1,4.45
11,107,numeric,0.03,0.2,competitor,competitor,0,5.959
11,109,numeric,0.1,0.05,competitor,target,1,9.643
11,110,numeric,0.1,0.2,competitor,target,1,6.281
11,111,numeric,0.03,0.2,target,target,1,7.875
11,112,numeric,0.03,0.05,target,competitor,0,7.481
11,113,perceptual,0.1,0.2,competitor,target,1,3.463
11,114,perceptual,0.03,0.05,competitor,target,1,4.183
11,115,numeric,0.1,0.2,target,target,1,8.483
11,116,numeric,0.03,0.05,target,competitor,0,5.236
11,117,numeric,0.1,0.05,competitor,competitor,0,8.409
11,118,perceptual,0.03,0.2,target,target,1,8.037
11,119,perceptual,0.1,0.2,competitor,competitor,0,5.293
11,120,perceptual,0.03,0.05,target,competitor,0,9.902
11,121,numeric,0.1,0.2,competitor,competitor,0,9.893
11,122,perceptual,0.1,0.05,competitor,target,1,3.669
