participant,trial_counter,condition,target_to_competitor,decoy_reduction,decoy_on,chosen_item,correct,rt
1,1,perceptual,0.03,0.2,competitor,target,1,17.728
1,2,perceptual,0.1,0.2,target,target,1,3.961
1,3,numeric,0.03,0.2,target,target,1,5.274
1,4,numeric,0.1,0.05,target,target,1,8.485
1,5,perceptual,0.1,0.05,target,decoy,0,4.29
1,6,perceptual,0.03,0.2,target,target,1,4.299
1,7,perceptual,0.03,0.05,competitor,target,1,5.362
1,8,numeric,0.03,0.05,target,competitor,0,12.849
1,9,numeric,0.1,0.2,target,competitor,0,6.655
1,10,perceptual,0.03,0.05,target,target,1,6.202
1,11,perceptual,0.1,0.05,target,decoy,0,7.08
1,12,perceptual,0.03,0.05,target,target,1,6.301
1,13,numeric,0.03,0.05,target,competitor,0,9.566
1,14,perceptual,0.03,0.2,competitor,target,1,12.461
1,15,numeric,0.1,0.05,competitor,target,1,9.969
1,16,numeric,0.1,0.2,competitor,competitor,0,9.597
1,17,perceptual,0.03,0.05,target,competitor,0,7.187
1,18,numeric,0.1,0.05,competitor,target,1,8.749
1,19,perceptual,0.1,0.2,target,target,1,7.39
1,20,numeric,0.03,0.05,target,decoy,0,4.537
1,21,numeric,0.03,0.2,target,target,1,6.561
1,22,numeric,0.03,0.05,target,target,1,10.946
1,23,perceptual,0.1,0.2,competitor,target,1,4.183
1,24,perceptual,0.1,0.05,competitor,target,1,5.076
1,25,perceptual,0.1,0.2,target,target,1,6.639
1,26,perceptual,0.03,0.2,competitor,competitor,0,9.976
1,27,perceptual,0.03,0.05,competitor,competitor,0,5.95
1,28,numeric,0.03,0.05,competitor,target,1,9.478
1,29,numeric,0.1,0.05,target,decoy,0,8.875
1,30,perceptual,0.1,0.05,competitor,target,1,10.877
1,31,numeric,0.03,0.05,target,target,1,10.277
1,32,perceptual,0.1,0.2,target,target,1,8.718
1,33,perceptual,0.1,0.2,competitor,target,1,6.572
1,34,numeric,0.03,0.2,competitor,competitor,0,7.599
1,35,numeric,0.03,0.05,competitor,competitor,0,17.759
1,36,perceptual,0.03,0.05,competitor,competitor,0,0.019
1,37,numeric,0.03,0.2,target,competitor,0,11.49
1,38,perceptual,0.03,0.2,target,target,1,8.618
1,39,numeric,0.1,0.2,target,target,1,9.109
1,40,numeric,0.03,0.2,target,target,1,13.356
1,41,numeric,0.03,0.05,target,competitor,0,10.326
1,42,perceptual,0.03,0.2,target,target,1,10.005
1,43,numeric,0.1,0.2,target,target,1,6.395
1,44,numeric,0.1,0.05,competitor,target,1,12.203
1,45,numeric,0.03,0.2,competitor,target,1,11.093
1,46,numeric,0.03,0.05,competitor,competitor,0,17.961
1,48,numeric,0.1,0.05,target,competitor,0,10.369
1,49,numeric,0.1,0.2,target,target,1,7.779
1,50,perceptual,0.03,0.05,target,target,1,7.768
1,51,perceptual,0.1,0.05,competitor,target,1,3.968
1,52,numeric,0.1,0.2,competitor,target,1,5.609
1,53,perceptual,0.03,0.05,competitor,target,1,5.483
1,54,numeric,0.1,0.2,competitor,target,1,5.96
1,55,numeric,0.03,0.2,competitor,target,1,8.315
1,56,numeric,0.03,0.2,competitor,competitor,0,8.19
1,57,perceptual,0.1,0.2,competitor,target,1,4.337
1,58,perceptual,0.03,0.2,target,competitor,0,9.161
1,59,perceptual,0.1,0.05,competitor,target,1,7.277
1,60,perceptual,0.03,0.05,competitor,target,1,9.647
1,61,perceptual,0.1,0.2,target,target,1,6.516
1,62,perceptual,0.1,0.05,target,target,1,10.413
1,63,numeric,0.03,0.05,target,decoy,0,8.433
1,64,perceptual,0.1,0.2,target,competitor,0,12.211
1,65,perceptual,0.1,0.05,target,decoy,0,5.298
1,66,numeric,0.03,0.05,competitor,target,1,7.316
1,67,perceptual,0.1,0.2,competitor,target,1,6.271
1,68,perceptual,0.03,0.05,target,target,1,8.982
1,69,perceptual,0.03,0.05,competitor,target,1,4.681
1,70,numeric,0.1,0.2,target,target,1,9.38
1,71,perceptual,0.03,0.05,competitor,target,1,6.962
1,72,numeric,0.1,0.05,target,target,1,11.168
1,73,numeric,0.03,0.05,competitor,target,1,11.505
1,74,perceptual,0.1,0.05,competitor,decoy,0,11.416
1,75,numeric,0.1,0.2,competitor,target,1,9.236
1,76,perceptual,0.1,0.05,target,target,1,5.727
1,77,perceptual,0.1,0.2,target,competitor,0,9.75
1,78,perceptual,0.1,0.05,target,target,1,6.751
1,79,numeric,0.03,0.2,competitor,target,1,13.153
1,80,numeric,0.03,0.05,competitor,target,1,11.797
1,81,perceptual,0.1,0.05,target,target,1,7.821
1,82,numeric,0.1,0.2,target,target,1,7.246
1,83,perceptual,0.03,0.05,competitor,competitor,0,8.211
1,84,numeric,0.1,0.2,competitor,target,1,8.486
1,85,perceptual,0.1,0.05,competitor,target,1,7.942
1,86,numeric,0.1,0.2,target,target,1,9.771
1,87,numeric,0.1,0.05,target,target,1,7.468
1,88,numeric,0.1,0.05,target,target,1,10.067
1,89,numeric,0.03,0.2,competitor,target,1,8.362
1,90,perceptual,0.1,0.05,competitor,target,1,5.111
1,91,numeric,0.03,0.05,competitor,competitor,0,13.126
1,92,numeric,0.1,0.05,competitor,competitor,0,10.134
1,93,perceptual,0.1,0.2,competitor,target,1,11.645
1,94,perceptual,0.1,0.05,competitor,target,1,13.214
1,95,numeric,0.03,0.05,competitor,competitor,0,9.365
1,96,perceptual,0.1,0.2,competitor,competitor,0,11.001
1,97,numeric,0.1,0.05,target,target,1,9.102
1,98,numeric,0.03,0.2,target,target,1,14.277
1,99,perceptual,0.03,0.2,competitor,competitor,0,5.476
1,100,perceptual,0.03,0.05,competitor,competitor,0,8.863
1,101,numeric,0.1,0.05,target,decoy,0,12.648
1,102,perceptual,0.03,0.05,target,target,1,4.997
1,103,perceptual,0.03,0.2,competitor,target,1,6.028
1,104,perceptual,0.1,0.2,target,target,1,4.366
1,105,perceptual,0.03,0.2,target,target,1,13.411
1,106,numeric,0.1,0.2,competitor,target,1,13.298
1,107,numeric,0.1,0.05,competitor,target,1,9.534
1,108,perceptual,0.03,0.2,target,target,1,3.919
1,109,perceptual,0.03,0.2,competitor,target,1,3.412
1,110,numeric,0.1,0.2,target,competitor,0,5.546
1,111,numeric,0.1,0.2,competitor,target,1,7.553
1,112,numeric,0.03,0.05,competitor,target,1,15.959
1,113,numeric,0.03,0.05,competitor,target,1,6.268
1,114,numeric,0.03,0.05,competitor,target,1,7.748
1,115,perceptual,0.1,0.05,target,target,1,5.287
1,116,perceptual,0.1,0.2,competitor,target,1,5.9
1,117,numeric,0.1,0.05,target,target,1,5.942
1,118,numeric,0.03,0.05,target,target,1,6.084
1,119,perceptual,0.1,0.05,competitor,target,1,8.147
1,120,perceptual,0.03,0.2,target,competitor,0,7.8
1,121,perceptual,0.03,0.05,target,target,1,4.427
1,122,numeric,0.1,0.2,competitor,target,1,6.468
1,123,numeric,0.1,0.2,competitor,target,1,5.315
1,124,numeric,0.03,0.05,target,competitor,0,9.13
1,125,perceptual,0.1,0.05,target,target,1,10.196
1,126,perceptual,0.03,0.2,competitor,competitor,0,8.624
1,127,perceptual,0.1,0.05,target,competitor,0,9.118
1,128,numeric,0.1,0.05,competitor,target,1,7.948
1,129,numeric,0.03,0.2,target,target,1,5.79
1,130,perceptual,0.1,0.2,competitor,target,1,6.518
1,131,numeric,0.1,0.05,competitor,target,1,7.372
1,132,perceptual,0.03,0.2,competitor,target,1,4.055
1,133,perceptual,0.03,0.2,competitor,target,1,5.136
1,134,numeric,0.03,0.2,target,competitor,0,15.051
1,135,numeric,0.03,0.05,target,target,1,13.064
1,136,numeric,0.03,0.2,competitor,competitor,0,8.348
1,137,perceptual,0.03,0.05,target,target,1,9.743
1,138,perceptual,0.03,0.2,target,target,1,7.451
1,139,numeric,0.1,0.05,target,target,1,11.387
1,140,perceptual,0.1,0.2,competitor,target,1,8.113
1,141,numeric,0.1,0.05,target,target,1,11.158
1,142,numeric,0.1,0.2,competitor,target,1,9.596
1,143,numeric,0.1,0.05,competitor,target,1,11.343
1,144,perceptual,0.1,0.05,target,target,1,6.27
1,145,numeric,0.1,0.2,target,target,1,13.357
1,146,numeric,0.03,0.2,target,target,1,15.335
1,147,numeric,0.1,0.2,competitor,target,1,11.178
1,148,perceptual,0.03,0.2,competitor,competitor,0,5.663
1,149,perceptual,0.1,0.2,target,target,1,4.193
1,150,numeric,0.03,0.2,target,target,1,10.155
1,151,numeric,0.1,0.05,target,target,1,5.224
1,152,numeric,0.03,0.2,competitor,target,1,8.466
1,154,numeric,0.03,0.2,competitor,competitor,0,5.974
1,155,perceptual,0.03,0.05,competitor,target,1,5.94
1,156,perceptual,0.03,0.2,target,competitor,0,6.673
1,157,perceptual,0.1,0.05,target,decoy,0,4.436
1,158,numeric,0.03,0.2,competitor,target,1,5.1
1,159,numeric,0.03,0.2,target,target,1,12.684
1,160,numeric,0.03,0.2,target,competitor,0,10.92
1,161,perceptual,0.1,0.2,target,target,1,3.23
1,162,numeric,0.03,0.05,competitor,target,1,8.37
1,163,perceptual,0.1,0.2,competitor,target,1,3.793
1,164,perceptual,0.1,0.05,competitor,target,1,3.854
1,165,numeric,0.03,0.05,target,target,1,6.598
1,166,numeric,0.1,0.2,target,target,1,11.809
1,167,numeric,0.1,0.2,competitor,target,1,12.537
1,168,perceptual,0.1,0.2,target,target,1,6.906
1,169,numeric,0.1,0.05,competitor,target,1,10.009
1,170,perceptual,0.1,0.2,target,target,1,8.429
1,171,perceptual,0.03,0.05,competitor,target,1,9.439
1,172,perceptual,0.1,0.2,competitor,target,1,6.532
1,173,perceptual,0.03,0.2,target,target,1,3.433
1,174,perceptual,0.03,0.2,competitor,target,1,4.423
1,175,perceptual,0.1,0.2,competitor,target,1,7.133
1,176,perceptual,0.03,0.2,target,target,1,6.942
1,177,perceptual,0.03,0.2,target,competitor,0,3.081
1,178,perceptual,0.1,0.05,competitor,target,1,5.521
1,179,perceptual,0.03,0.05,competitor,target,1,8.889
1,180,perceptual,0.03,0.05,target,decoy,0,2.763
1,181,numeric,0.03,0.05,target,target,1,7.683
1,182,perceptual,0.03,0.05,target,decoy,0,9.508
1,183,numeric,0.1,0.2,target,target,1,11.363
1,184,perceptual,0.03,0.05,target,decoy,0,8.548
1,185,perceptual,0.03,0.05,target,target,1,10.198
1,186,numeric,0.03,0.2,target,target,1,7.512
1,187,numeric,0.03,0.2,competitor,target,1,10.12
1,188,numeric,0.1,0.05,competitor,target,1,9.999
1,189,numeric,0.1,0.05,competitor,target,1,10.238
1,190,perceptual,0.1,0.05,competitor,target,1,5.236
1,191,numeric,0.1,0.2,target,target,1,5.898
1,192,perceptual,0.03,0.2,competitor,target,1,3.49
2,1,perceptual,0.03,0.05,target,target,1,8.223
2,2,perceptual,0.1,0.05,target,target,1,4.552
2,3,numeric,0.1,0.2,target,target,1,5.882
2,4,perceptual,0.1,0.2,competitor,target,1,5.027
2,5,numeric,0.03,0.05,target,target,1,6.473
2,6,numeric,0.1,0.2,target,target,1,7.816
2,7,perceptual,0.1,0.2,target,target,1,5.036
2,8,perceptual,0.03,0.2,target,target,1,7.865
2,9,numeric,0.03,0.2,target,target,1,6.283
2,10,numeric,0.1,0.2,competitor,target,1,7.5
2,11,numeric,0.1,0.2,competitor,target,1,5.149
2,12,numeric,0.03,0.2,target,competitor,0,10.17
2,13,numeric,0.03,0.05,target,target,1,7.757
2,14,numeric,0.1,0.05,competitor,target,1,7.516
2,15,numeric,0.1,0.05,target,target,1,9.553
2,16,perceptual,0.1,0.05,competitor,target,1,5.733
2,17,perceptual,0.1,0.05,target,target,1,4.24
2,18,perceptual,0.1,0.2,competitor,target,1,4.764
2,19,perceptual,0.03,0.05,target,target,1,4.973
2,20,perceptual,0.03,0.2,target,target,1,3.915
2,21,numeric,0.1,0.05,competitor,target,1,6.566
2,22,numeric,0.1,0.2,target,target,1,7.373
2,23,perceptual,0.03,0.05,competitor,target,1,7.713
2,24,numeric,0.03,0.05,competitor,target,1,8.084
2,25,perceptual,0.1,0.2,competitor,target,1,6.1
2,26,perceptual,0.03,0.05,competitor,target,1,10.371
2,27,numeric,0.1,0.05,competitor,competitor,0,7.013
2,28,numeric,0.1,0.05,target,competitor,0,10.15
2,29,numeric,0.03,0.05,target,target,1,8.254
2,30,perceptual,0.03,0.05,target,target,1,6.566
2,31,perceptual,0.1,0.2,competitor,competitor,0,5.932
2,32,perceptual,0.03,0.05,competitor,target,1,5.723
2,33,perceptual,0.03,0.2,target,target,1,5.489
2,34,numeric,0.03,0.2,target,target,1,8.917
2,35,numeric,0.03,0.2,competitor,competitor,0,10.589
2,36,perceptual,0.03,0.2,competitor,competitor,0,6.982
2,37,numeric,0.1,0.05,competitor,target,1,5.832
2,38,perceptual,0.03,0.05,competitor,target,1,8.509
2,39,perceptual,0.03,0.05,target,decoy,0,8.241
2,40,perceptual,0.03,0.05,competitor,competitor,0,7.897
2,41,numeric,0.03,0.05,target,target,1,8.055
2,42,perceptual,0.03,0.2,competitor,target,1,9.633
2,43,perceptual,0.03,0.2,target,competitor,0,7.127
2,44,perceptual,0.1,0.2,target,target,1,8.515
2,45,perceptual,0.1,0.05,competitor,target,1,5.916
2,46,perceptual,0.1,0.05,target,target,1,5.834
2,47,perceptual,0.1,0.2,target,competitor,0,9.051
2,48,numeric,0.03,0.2,target,target,1,6.548
2,49,perceptual,0.03,0.2,target,target,1,3.572
2,50,perceptual,0.1,0.05,competitor,decoy,0,3.531
2,51,perceptual,0.03,0.05,target,decoy,0,9.068
2,52,perceptual,0.03,0.05,target,target,1,11.55
2,53,perceptual,0.1,0.2,target,decoy,0,6.11
2,54,perceptual,0.03,0.05,target,competitor,0,8.567
2,55,numeric,0.1,0.2,competitor,competitor,0,7.046
2,56,perceptual,0.03,0.2,competitor,target,1,9.782
2,57,perceptual,0.1,0.05,competitor,target,1,5.183
2,58,numeric,0.1,0.05,target,target,1,7.073
2,59,numeric,0.1,0.2,competitor,competitor,0,8.868
2,60,perceptual,0.1,0.2,target,target,1,4.947
2,61,perceptual,0.03,0.2,target,competitor,0,4.425
2,62,numeric,0.1,0.2,target,target,1,11.048
2,63,perceptual,0.1,0.05,target,target,1,6.157
2,64,numeric,0.1,0.2,target,target,1,4.571
2,65,numeric,0.03,0.05,competitor,target,1,4.587
2,66,perceptual,0.03,0.2,competitor,target,1,5.406
2,67,perceptual,0.1,0.2,competitor,target,1,5.048
2,68,numeric,0.1,0.2,target,target,1,6.552
2,69,perceptual,0.1,0.2,target,target,1,4.144
2,70,numeric,0.1,0.05,competitor,target,1,6.28
2,71,numeric,0.1,0.05,target,target,1,7.332
2,72,numeric,0.03,0.05,competitor,target,1,5.632
2,73,numeric,0.03,0.2,competitor,competitor,0,8.97
2,74,numeric,0.1,0.2,competitor,competitor,0,8.585
2,75,numeric,0.03,0.2,target,target,1,11.853
2,76,numeric,0.03,0.05,target,competitor,0,8.433
2,77,numeric,0.03,0.05,target,target,1,10.098
2,78,perceptual,0.03,0.05,target,target,1,10.765
2,79,perceptual,0.1,0.2,target,target,1,6.741
2,80,perceptual,0.03,0.2,competitor,competitor,0,6.387
2,81,perceptual,0.03,0.05,competitor,decoy,0,9.009
2,82,perceptual,0.03,0.2,target,competitor,0,8.267
2,83,numeric,0.03,0.2,competitor,competitor,0,4.9
2,84,perceptual,0.1,0.2,competitor,target,1,3.706
2,85,numeric,0.03,0.2,competitor,target,1,5.897
2,86,perceptual,0.1,0.2,target,target,1,6.022
2,87,perceptual,0.1,0.2,competitor,target,1,9.89
2,88,perceptual,0.1,0.2,target,target,1,7.382
2,89,numeric,0.1,0.05,competitor,target,1,4.832
2,90,numeric,0.03,0.2,target,competitor,0,8.878
2,91,perceptual,0.03,0.05,target,target,1,10.046
2,92,perceptual,0.1,0.05,target,target,1,8.615
2,93,numeric,0.1,0.05,competitor,target,1,5.151
2,94,perceptual,0.1,0.05,target,decoy,0,7.982
2,95,numeric,0.03,0.05,competitor,competitor,0,11.715
2,96,perceptual,0.1,0.2,target,target,1,7.632
2,97,perceptual,0.1,0.2,competitor,target,1,4.839
2,98,perceptual,0.1,0.05,competitor,target,1,5.337
2,99,perceptual,0.1,0.05,competitor,target,1,7.866
2,100,perceptual,0.1,0.05,target,decoy,0,9.836
2,101,perceptual,0.03,0.05,competitor,target,1,15.931
2,102,perceptual,0.1,0.05,competitor,target,1,4.384
2,103,perceptual,0.1,0.05,target,target,1,11.724
2,104,numeric,0.03,0.05,competitor,target,1,4.92
2,105,perceptual,0.03,0.2,target,target,1,4.564
2,106,numeric,0.1,0.05,competitor,target,1,4.348
2,107,perceptual,0.03,0.05,competitor,target,1,4.43
2,108,numeric,0.1,0.05,target,target,1,5.502
2,109,numeric,0.03,0.2,target,target,1,5.019
2,110,numeric,0.03,0.2,target,target,1,7.433
2,111,perceptual,0.1,0.05,competitor,target,1,4.099
2,112,perceptual,0.1,0.2,target,target,1,3.435
2,113,numeric,0.1,0.2,target,target,1,7.389
2,114,perceptual,0.03,0.2,competitor,target,1,6.052
2,115,numeric,0.1,0.05,target,target,1,5.707
2,116,numeric,0.1,0.2,target,target,1,3.949
2,117,perceptual,0.1,0.2,competitor,target,1,4.399
2,118,numeric,0.1,0.05,competitor,target,1,6.777
2,119,perceptual,0.03,0.2,target,competitor,0,2.748
2,120,numeric,0.03,0.05,target,competitor,0,7.984
2,121,perceptual,0.1,0.2,competitor,target,1,4.117
2,122,perceptual,0.1,0.05,target,target,1,9.683
2,123,numeric,0.03,0.2,competitor,target,1,16.697
2,124,numeric,0.03,0.2,competitor,target,1,13.995
2,125,numeric,0.03,0.05,competitor,target,1,13.321
2,126,numeric,0.1,0.2,competitor,target,1,7.038
2,127,perceptual,0.03,0.2,competitor,competitor,0,10.202
2,128,numeric,0.03,0.05,competitor,target,1,7.15
2,129,perceptual,0.03,0.2,competitor,target,1,4.589
2,130,numeric,0.1,0.05,competitor,target,1,5.8
2,131,numeric,0.1,0.2,target,competitor,0,7.891
2,132,numeric,0.1,0.2,target,target,1,8.719
2,133,numeric,0.03,0.2,competitor,competitor,0,9.55
2,134,numeric,0.1,0.05,target,target,1,8.514
2,135,numeric,0.03,0.05,target,target,1,14.571
2,136,numeric,0.1,0.2,competitor,target,1,10.38
2,137,numeric,0.03,0.2,target,target,1,6.209
2,138,numeric,0.1,0.2,competitor,target,1,6.218
2,139,perceptual,0.1,0.05,competitor,target,1,5.334
2,140,perceptual,0.03,0.05,target,competitor,0,5.92
2,141,numeric,0.1,0.2,target,target,1,10.67
2,142,numeric,0.03,0.05,competitor,target,1,12.132
2,143,numeric,0.03,0.2,target,competitor,0,6.716
2,144,numeric,0.03,0.05,target,target,1,16.32
2,145,perceptual,0.1,0.05,target,target,1,7.376
2,146,numeric,0.1,0.05,target,target,1,5.673
2,147,numeric,0.03,0.2,competitor,target,1,6.507
2,148,numeric,0.03,0.05,target,target,1,10.235
2,149,perceptual,0.1,0.2,target,target,1,7.184
2,150,numeric,0.03,0.2,target,target,1,14.174
2,151,perceptual,0.1,0.05,target,target,1,4.354
2,152,numeric,0.1,0.2,competitor,target,1,9.316
2,153,numeric,0.03,0.05,target,target,1,15.221
2,154,perceptual,0.03,0.2,target,competitor,0,11.732
2,155,numeric,0.1,0.05,target,target,1,5.015
2,156,perceptual,0.03,0.2,target,target,1,10.783
2,157,perceptual,0.03,0.05,target,target,1,8.805
2,158,perceptual,0.03,0.05,target,target,1,6.633
2,159,numeric,0.03,0.05,competitor,target,1,12.865
2,160,perceptual,0.03,0.05,competitor,competitor,0,11.957
2,161,perceptual,0.1,0.05,target,decoy,0,7.928
2,162,numeric,0.03,0.05,competitor,target,1,6.365
2,163,perceptual,0.03,0.2,target,competitor,0,7.016
2,164,numeric,0.1,0.05,target,target,1,8.088
2,165,perceptual,0.1,0.2,competitor,competitor,0,6.998
2,166,numeric,0.03,0.05,target,target,1,6.904
2,167,numeric,0.03,0.05,competitor,competitor,0,8.337
2,168,numeric,0.03,0.2,competitor,target,1,10.551
2,169,numeric,0.03,0.2,competitor,competitor,0,9.415
2,170,perceptual,0.1,0.05,competitor,target,1,5.95
2,171,perceptual,0.1,0.2,competitor,target,1,6.772
2,172,numeric,0.1,0.2,competitor,target,1,10.79
2,173,numeric,0.03,0.05,competitor,competitor,0,9.994
2,174,numeric,0.1,0.05,target,target,1,11.417
2,175,perceptual,0.03,0.2,competitor,competitor,0,6.249
2,176,perceptual,0.03,0.05,competitor,target,1,7.215
2,177,perceptual,0.03,0.2,competitor,target,1,8.429
2,178,numeric,0.1,0.05,competitor,target,1,6.563
2,179,numeric,0.1,0.05,competitor,target,1,6.479
2,180,perceptual,0.1,0.05,competitor,target,1,6.289
2,181,perceptual,0.03,0.2,competitor,competitor,0,6.288
2,182,numeric,0.03,0.2,target,target,1,15.24
2,183,perceptual,0.03,0.2,competitor,target,1,8.155
2,184,numeric,0.1,0.2,competitor,target,1,14.065
2,185,perceptual,0.03,0.05,competitor,competitor,0,6.585
2,186,numeric,0.1,0.2,competitor,target,1,9.049
2,187,perceptual,0.03,0.05,competitor,competitor,0,7.513
2,188,numeric,0.1,0.2,target,target,1,8.176
2,189,numeric,0.1,0.05,target,target,1,8.17
2,190,perceptual,0.1,0.05,competitor,target,1,6.873
2,191,numeric,0.03,0.2,competitor,target,1,7.789
2,192,numeric,0.03,0.2,competitor,target,1,17.549
3,2,numeric,0.03,0.05,competitor,target,1,12.841
3,3,numeric,0.03,0.2,target,competitor,0,8.083
3,4,perceptual,0.1,0.2,competitor,target,1,6.05
3,5,numeric,0.03,0.2,competitor,competitor,0,15.889
3,6,numeric,0.1,0.05,competitor,competitor,0,7.916
3,7,perceptual,0.1,0.05,target,target,1,7.436
3,8,perceptual,0.03,0.05,target,target,1,5.324
3,9,perceptual,0.1,0.05,target,target,1,5.961
3,10,numeric,0.03,0.05,competitor,target,1,9.028
3,11,numeric,0.03,0.05,competitor,competitor,0,7.228
3,12,numeric,0.1,0.05,target,target,1,5.393
3,13,perceptual,0.1,0.2,competitor,decoy,0,6.308
3,14,numeric,0.03,0.05,target,target,1,8.668
3,15,numeric,0.03,0.05,competitor,target,1,9.046
3,16,numeric,0.1,0.05,competitor,target,1,9.732
3,17,perceptual,0.03,0.2,competitor,competitor,0,8.564
3,18,numeric,0.1,0.05,competitor,target,1,7.239
3,19,numeric,0.1,0.2,competitor,competitor,0,8.412
3,20,perceptual,0.03,0.05,target,decoy,0,6.012
3,21,perceptual,0.1,0.05,competitor,decoy,0,3.91
3,22,perceptual,0.1,0.05,competitor,target,1,3.161
3,23,numeric,0.1,0.05,target,target,1,5.802
3,24,perceptual,0.1,0.2,target,decoy,0,6.904
3,25,numeric,0.03,0.2,competitor,target,1,7.637
3,26,perceptual,0.1,0.2,target,decoy,0,8.278
3,27,numeric,0.03,0.05,target,target,1,7.063
3,28,perceptual,0.1,0.2,target,competitor,0,4.698
3,29,perceptual,0.03,0.2,competitor,competitor,0,7.272
3,30,perceptual,0.1,0.05,target,competitor,0,6.017
3,31,numeric,0.03,0.2,target,target,1,10.713
3,32,perceptual,0.1,0.2,competitor,competitor,0,6.11
3,33,perceptual,0.03,0.05,competitor,target,1,4.474
3,34,perceptual,0.03,0.05,competitor,decoy,0,5.58
3,35,numeric,0.1,0.05,competitor,competitor,0,4.662
3,36,numeric,0.03,0.2,competitor,competitor,0,8.631
3,37,perceptual,0.03,0.2,target,decoy,0,7.969
3,38,numeric,0.03,0.2,target,decoy,0,7.262
3,39,numeric,0.03,0.2,competitor,competitor,0,6.75
3,40,perceptual,0.03,0.2,competitor,target,1,3.237
3,41,perceptual,0.03,0.05,target,competitor,0,5.054
3,42,numeric,0.1,0.2,target,target,1,5.385
3,43,numeric,0.03,0.05,target,target,1,9.546
3,44,numeric,0.1,0.05,target,target,1,5.938
3,45,numeric,0.1,0.05,target,target,1,13.432
3,46,numeric,0.1,0.05,target,target,1,8.405
3,47,perceptual,0.03,0.05,competitor,decoy,0,5.346
3,48,perceptual,0.03,0.05,competitor,target,1,4.001
3,49,numeric,0.1,0.05,target,target,1,10.804
3,50,perceptual,0.1,0.2,competitor,target,1,7.96
3,51,perceptual,0.1,0.2,competitor,decoy,0,4.706
3,52,numeric,0.1,0.2,target,target,1,7.677
3,53,perceptual,0.03,0.2,competitor,decoy,0,3.615
3,54,perceptual,0.1,0.2,target,target,1,5.78
3,55,numeric,0.1,0.05,target,target,1,6.533
3,56,perceptual,0.1,0.05,competitor,competitor,0,5.196
3,57,numeric,0.03,0.05,competitor,target,1,5.216
3,58,numeric,0.1,0.2,target,target,1,5.956
3,59,numeric,0.1,0.2,target,target,1,8.103
3,60,perceptual,0.03,0.2,competitor,decoy,0,6.13
3,61,perceptual,0.03,0.2,target,competitor,0,5.66
3,62,perceptual,0.03,0.2,target,decoy,0,5.726
3,63,perceptual,0.03,0.05,competitor,decoy,0,5.44
3,64,numeric,0.03,0.2,target,target,1,8.085
3,65,numeric,0.1,0.2,target,target,1,10.107
3,66,perceptual,0.03,0.05,target,competitor,0,6.037
3,67,perceptual,0.03,0.2,target,competitor,0,3.113
3,68,perceptual,0.03,0.2,target,competitor,0,4.36
3,69,perceptual,0.03,0.2,competitor,decoy,0,4.57
3,70,perceptual,0.03,0.2,target,competitor,0,5.467
3,71,numeric,0.03,0.2,competitor,competitor,0,10.397
3,72,perceptual,0.1,0.05,competitor,decoy,0,4.684
3,73,perceptual,0.03,0.05,competitor,target,1,6.006
3,74,numeric,0.03,0.05,competitor,competitor,0,8.429
3,75,perceptual,0.03,0.05,target,competitor,0,4.606
3,76,perceptual,0.03,0.2,competitor,competitor,0,6.372
3,77,perceptual,0.03,0.2,target,target,1,6.531
3,78,numeric,0.03,0.05,competitor,target,1,6.827
3,79,numeric,0.03,0.05,competitor,competitor,0,6.954
3,80,numeric,0.1,0.2,target,target,1,6.53
3,81,numeric,0.1,0.05,competitor,competitor,0,15.143
3,82,perceptual,0.03,0.05,competitor,decoy,0,6.061
3,83,perceptual,0.03,0.2,competitor,competitor,0,5.831
3,84,perceptual,0.03,0.05,target,target,1,7.703
3,85,numeric,0.1,0.05,competitor,target,1,6.301
3,86,numeric,0.1,0.2,competitor,target,1,5.604
3,87,numeric,0.03,0.2,target,target,1,11.537
3,88,numeric,0.1,0.05,competitor,competitor,0,15.849
3,89,numeric,0.1,0.05,target,target,1,7.465
3,90,perceptual,0.03,0.05,target,decoy,0,5.355
3,91,perceptual,0.03,0.05,target,competitor,0,4.5
3,92,numeric,0.03,0.2,target,target,1,7.77
3,93,numeric,0.03,0.2,target,target,1,5.828
3,94,numeric,0.03,0.05,target,target,1,7.232
3,95,numeric,0.1,0.2,competitor,competitor,0,9.795
3,96,numeric,0.03,0.2,competitor,target,1,7.471
3,97,numeric,0.03,0.2,target,target,1,5.258
3,98,perceptual,0.1,0.2,target,decoy,0,3.9
3,99,perceptual,0.03,0.2,competitor,decoy,0,3.849
3,100,perceptual,0.1,0.05,competitor,competitor,0,6.68
3,101,numeric,0.1,0.2,competitor,target,1,6.756
3,102,perceptual,0.1,0.05,competitor,decoy,0,5.945
3,103,numeric,0.1,0.2,competitor,target,1,11.801
3,104,numeric,0.03,0.05,target,competitor,0,9.737
3,105,numeric,0.1,0.2,target,target,1,6.941
3,106,perceptual,0.1,0.2,competitor,competitor,0,4.305
3,107,numeric,0.03,0.2,target,target,1,6.468
3,108,numeric,0.03,0.2,target,competitor,0,9.754
3,109,perceptual,0.03,0.05,competitor,competitor,0,5.304
3,110,perceptual,0.1,0.05,target,decoy,0,3.657
3,111,perceptual,0.03,0.05,target,target,1,7.569
3,112,perceptual,0.03,0.2,competitor,competitor,0,5.568
3,113,numeric,0.03,0.05,target,target,1,6.291
3,114,numeric,0.1,0.2,target,target,1,6.422
3,115,perceptual,0.1,0.05,target,competitor,0,4.818
3,116,numeric,0.03,0.05,target,target,1,9.395
3,117,numeric,0.1,0.2,target,competitor,0,11.623
3,118,perceptual,0.03,0.2,target,competitor,0,4.429
3,119,perceptual,0.03,0.2,target,competitor,0,3.669
3,120,perceptual,0.1,0.2,competitor,decoy,0,3.366
3,121,numeric,0.1,0.2,target,target,1,9.201
3,122,numeric,0.03,0.05,target,target,1,6.421
3,123,perceptual,0.03,0.05,competitor,competitor,0,5.436
3,124,numeric,0.03,0.05,target,target,1,6.396
3,125,perceptual,0.1,0.2,target,competitor,0,5.324
3,126,numeric,0.03,0.05,competitor,competitor,0,6.793
3,127,perceptual,0.1,0.05,competitor,decoy,0,7.081
3,128,perceptual,0.1,0.05,target,decoy,0,4.37
3,129,numeric,0.03,0.2,competitor,competitor,0,6.626
3,130,perceptual,0.1,0.2,target,decoy,0,5.519
3,131,perceptual,0.1,0.05,target,competitor,0,6.434
3,132,perceptual,0.03,0.05,competitor,decoy,0,5.747
3,133,numeric,0.03,0.05,competitor,competitor,0,7.162
3,134,numeric,0.1,0.2,target,target,1,8.524
3,135,perceptual,0.03,0.05,competitor,target,1,4.588
3,136,perceptual,0.1,0.05,target,competitor,0,3.862
3,137,numeric,0.1,0.05,target,target,1,7.281
3,138,numeric,0.1,0.2,competitor,target,1,8.181
3,139,perceptual,0.1,0.05,competitor,competitor,0,5.632
3,140,perceptual,0.03,0.2,target,target,1,6.279
3,141,numeric,0.1,0.05,competitor,target,1,5.771
3,142,numeric,0.03,0.05,target,target,1,9.871
3,143,numeric,0.03,0.05,competitor,target,1,10.166
3,144,numeric,0.03,0.2,competitor,decoy,0,8.729
3,145,perceptual,0.03,0.2,competitor,target,1,3.741
3,146,numeric,0.1,0.2,target,target,1,7.431
3,147,perceptual,0.1,0.2,target,decoy,0,4.601
3,148,numeric,0.1,0.2,competitor,decoy,0,10.999
3,149,perceptual,0.1,0.05,target,competitor,0,5.963
3,150,numeric,0.1,0.2,competitor,competitor,0,6.237
3,151,numeric,0.1,0.2,competitor,target,1,7.154
3,152,perceptual,0.03,0.05,competitor,target,1,6.791
3,153,numeric,0.03,0.2,competitor,competitor,0,5.969
3,154,perceptual,0.1,0.05,target,target,1,6.002
3,155,numeric,0.1,0.05,target,target,1,6.782
3,156,numeric,0.1,0.05,target,target,1,11.288
3,157,perceptual,0.03,0.05,target,decoy,0,7.647
3,158,numeric,0.03,0.05,target,target,1,8.427
3,159,perceptual,0.03,0.2,target,competitor,0,4.291
3,160,numeric,0.1,0.05,competitor,competitor,0,6.019
3,161,numeric,0.1,0.05,competitor,target,1,15.11
3,162,perceptual,0.1,0.2,competitor,competitor,0,4.146
3,163,numeric,0.03,0.05,target,competitor,0,7.132
3,164,perceptual,0.1,0.2,target,target,1,4.071
3,165,perceptual,0.03,0.2,competitor,decoy,0,3.115
3,166,perceptual,0.1,0.05,competitor,target,1,5.871
3,167,numeric,0.03,0.2,target,target,1,11.034
3,168,perceptual,0.1,0.2,target,decoy,0,3.734
3,169,numeric,0.1,0.05,target,competitor,0,9.269
3,170,numeric,0.03,0.2,target,target,1,8.763
3,171,perceptual,0.1,0.2,target,decoy,0,3.596
3,172,numeric,0.03,0.05,competitor,competitor,0,9.864
3,173,perceptual,0.1,0.05,target,competitor,0,4.597
3,174,perceptual,0.03,0.2,target,target,1,4.927
3,175,numeric,0.1,0.2,competitor,target,1,8.309
3,176,numeric,0.1,0.05,competitor,decoy,0,10.846
3,177,perceptual,0.1,0.05,target,target,1,6.852
3,178,perceptual,0.03,0.05,target,decoy,0,4.553
3,179,perceptual,0.1,0.2,competitor,decoy,0,4.685
3,180,perceptual,0.1,0.05,competitor,decoy,0,3.881
3,181,numeric,0.03,0.2,competitor,competitor,0,3.736
3,182,perceptual,0.1,0.05,competitor,competitor,0,3.302
3,183,perceptual,0.1,0.2,target,target,1,7.313
3,184,perceptual,0.03,0.05,target,competitor,0,5.683
3,185,numeric,0.1,0.05,competitor,target,1,6.014
3,186,perceptual,0.1,0.2,competitor,target,1,5.683
3,187,numeric,0.03,0.2,competitor,target,1,7.898
3,188,perceptual,0.1,0.05,competitor,decoy,0,4.28
3,189,numeric,0.1,0.2,competitor,target,1,6.005
3,190,numeric,0.03,0.2,competitor,competitor,0,8.528
3,191,perceptual,0.1,0.2,competitor,target,1,3.848
3,192,numeric,0.1,0.2,competitor,target,1,6.245
5,1,perceptual,0.03,0.05,competitor,target,1,8.749
5,2,numeric,0.1,0.2,target,target,1,8.484
5,3,numeric,0.03,0.05,competitor,competitor,0,6.033
5,4,numeric,0.03,0.05,competitor,target,1,5.743
5,5,numeric,0.1,0.05,competitor,competitor,0,6.316
5,6,numeric,0.03,0.2,competitor,decoy,0,4.903
5,7,numeric,0.1,0.2,target,target,1,9.339
5,8,perceptual,0.1,0.2,target,decoy,0,3.768
5,9,perceptual,0.03,0.2,target,target,1,3.112
5,10,numeric,0.1,0.05,competitor,target,1,3.738
5,11,numeric,0.03,0.05,target,target,1,2.636
5,12,numeric,0.03,0.2,competitor,competitor,0,3.355
5,13,numeric,0.1,0.05,competitor,competitor,0,4.63
5,14,perceptual,0.03,0.05,target,competitor,0,4.985
5,15,numeric,0.1,0.2,competitor,target,1,3.863
5,16,numeric,0.03,0.2,target,target,1,2.131
5,17,numeric,0.03,0.05,competitor,competitor,0,3.002
5,18,perceptual,0.03,0.2,competitor,competitor,0,3.076
5,19,perceptual,0.1,0.2,target,competitor,0,3.607
5,20,numeric,0.1,0.05,target,competitor,0,6.863
5,21,perceptual,0.03,0.05,competitor,target,1,3.301
5,22,perceptual,0.1,0.05,target,target,1,3.364
5,23,numeric,0.1,0.05,competitor,target,1,6.848
5,24,perceptual,0.03,0.05,target,decoy,0,5.157
5,25,numeric,0.1,0.05,competitor,decoy,0,5.5
5,26,numeric,0.1,0.2,competitor,competitor,0,1.853
5,27,numeric,0.1,0.2,target,competitor,0,1.293
5,28,perceptual,0.1,0.2,competitor,target,1,1.276
5,29,numeric,0.1,0.2,competitor,competitor,0,1.277
5,30,perceptual,0.03,0.2,competitor,competitor,0,2.287
5,31,perceptual,0.03,0.2,competitor,decoy,0,2.202
5,32,perceptual,0.03,0.2,target,target,1,2.25
5,33,numeric,0.1,0.2,competitor,target,1,3.49
5,34,numeric,0.1,0.05,target,decoy,0,2.321
5,35,perceptual,0.1,0.2,target,decoy,0,2.137
5,36,perceptual,0.1,0.2,competitor,target,1,1.896
5,37,perceptual,0.03,0.05,target,decoy,0,2.356
5,38,perceptual,0.03,0.05,competitor,competitor,0,3.133
5,39,numeric,0.1,0.05,competitor,target,1,6.078
5,40,perceptual,0.1,0.05,target,decoy,0,4.428
5,41,perceptual,0.1,0.05,target,target,1,4.358
5,42,perceptual,0.1,0.05,competitor,target,1,3.018
5,43,perceptual,0.1,0.2,competitor,target,1,3.586
5,44,perceptual,0.03,0.05,competitor,competitor,0,3.635
5,45,perceptual,0.1,0.05,target,target,1,4.437
5,46,numeric,0.03,0.2,competitor,target,1,7.449
5,47,numeric,0.1,0.2,target,target,1,6.745
5,48,perceptual,0.03,0.2,competitor,target,1,3.228
5,49,numeric,0.03,0.05,competitor,competitor,0,6.042
5,50,perceptual,0.1,0.2,competitor,target,1,3.757
5,51,numeric,0.03,0.05,competitor,target,1,3.858
5,52,perceptual,0.03,0.2,competitor,competitor,0,4.137
5,53,numeric,0.03,0.05,target,target,1,4.181
5,54,perceptual,0.03,0.2,competitor,target,1,2.602
5,55,numeric,0.03,0.2,target,decoy,0,3.149
5,56,numeric,0.1,0.05,target,decoy,0,3.326
5,57,perceptual,0.1,0.05,competitor,target,1,3.149
5,58,numeric,0.1,0.2,target,target,1,2.869
5,59,perceptual,0.1,0.05,competitor,competitor,0,2.138
5,60,perceptual,0.1,0.05,target,competitor,0,3.1
5,61,numeric,0.03,0.2,target,competitor,0,3.757
5,62,numeric,0.1,0.05,target,target,1,3.062
5,63,numeric,0.03,0.05,target,competitor,0,3.001
5,64,numeric,0.03,0.2,target,competitor,0,2.866
5,65,perceptual,0.1,0.2,target,competitor,0,3.195
5,66,perceptual,0.03,0.05,competitor,decoy,0,3.467
5,67,numeric,0.03,0.05,competitor,competitor,0,3.05
5,68,perceptual,0.1,0.2,competitor,target,1,2.696
5,69,perceptual,0.03,0.05,competitor,target,1,3.104
5,70,numeric,0.1,0.2,competitor,target,1,2.723
5,71,numeric,0.03,0.2,competitor,competitor,0,2.845
5,72,numeric,0.03,0.05,target,competitor,0,4.827
5,73,numeric,0.03,0.05,competitor,target,1,5.269
5,74,perceptual,0.1,0.05,competitor,target,1,4.943
5,75,perceptual,0.1,0.2,target,target,1,4.449
5,76,perceptual,0.1,0.05,target,target,1,5.127
5,77,perceptual,0.1,0.05,target,target,1,6.631
5,78,numeric,0.1,0.2,target,competitor,0,4.934
5,79,perceptual,0.03,0.2,competitor,target,1,3.875
5,80,numeric,0.1,0.05,target,decoy,0,14.882
5,81,perceptual,0.03,0.2,target,target,1,4.25
5,82,perceptual,0.1,0.2,target,target,1,3.493
5,83,numeric,0.03,0.2,target,target,1,16.68
5,84,numeric,0.1,0.2,target,competitor,0,9.113
5,85,perceptual,0.03,0.05,competitor,decoy,0,5.108
5,86,numeric,0.03,0.05,target,competitor,0,9.085
5,87,perceptual,0.1,0.2,target,target,1,6.209
5,88,numeric,0.1,0.2,target,target,1,11.559
5,89,numeric,0.03,0.05,target,competitor,0,17.19
5,90,numeric,0.03,0.2,competitor,target,1,7.635
5,91,numeric,0.03,0.2,target,competitor,0,8.092
5,92,numeric,0.03,0.2,competitor,competitor,0,4.84
5,93,perceptual,0.03,0.05,target,target,1,5.073
5,94,perceptual,0.1,0.05,competitor,competitor,0,6.699
5,95,perceptual,0.03,0.2,competitor,competitor,0,6.416
5,96,perceptual,0.1,0.2,competitor,target,1,5.859
5,97,perceptual,0.1,0.05,competitor,target,1,8.997
5,98,perceptual,0.03,0.2,target,competitor,0,10.468
5,99,numeric,0.1,0.05,target,competitor,0,12.025
5,100,numeric,0.03,0.2,target,target,1,6.536
5,101,numeric,0.1,0.2,target,target,1,4.232
5,102,numeric,0.1,0.05,competitor,target,1,10.927
5,103,numeric,0.03,0.2,target,target,1,4.429
5,104,numeric,0.03,0.2,competitor,target,1,3.669
5,105,numeric,0.03,0.2,competitor,competitor,0,8.622
5,106,perceptual,0.03,0.2,target,target,1,4.45
5,107,numeric,0.03,0.2,competitor,competitor,0,5.959
5,109,numeric,0.1,0.05,competitor,target,1,9.643
5,110,numeric,0.1,0.2,competitor,target,1,6.281
5,111,numeric,0.03,0.2,target,target,1,7.875
5,112,numeric,0.03,0.05,target,competitor,0,7.481
5,113,perceptual,0.1,0.2,competitor,target,1,3.463
5,114,perceptual,0.03,0.05,competitor,target,1,4.183
5,115,numeric,0.1,0.2,target,target,1,8.483
5,116,numeric,0.03,0.05,target,competitor,0,5.236
5,117,numeric,0.1,0.05,competitor,competitor,0,8.409
5,118,perceptual,0.03,0.2,target,target,1,8.037
5,119,perceptual,0.1,0.2,competitor,competitor,0,5.293
5,120,perceptual,0.03,0.05,target,competitor,0,9.902
5,121,numeric,0.1,0.2,competitor,competitor,0,9.893
5,122,perceptual,0.1,0.05,competitor,target,1,3.669
5,123,perceptual,0.1,0.2,target,target,1,5.449
5,124,numeric,0.03,0.05,target,target,1,5.405
5,125,numeric,0.1,0.2,competitor,competitor,0,4.419
5,126,numeric,0.03,0.2,target,competitor,0,4.304
5,127,numeric,0.1,0.2,competitor,target,1,4.953
5,128,perceptual,0.03,0.05,competitor,target,1,4.355
5,129,perceptual,0.03,0.2,competitor,target,1,3.55
5,130,numeric,0.1,0.05,target,competitor,0,3.969
5,131,numeric,0.03,0.05,target,target,1,4.399
5,132,perceptual,0.03,0.05,target,decoy,0,3.337
5,133,perceptual,0.1,0.05,competitor,competitor,0,4.443
5,134,numeric,0.03,0.2,competitor,competitor,0,6.324
5,135,perceptual,0.1,0.05,target,target,1,4.693
5,136,perceptual,0.03,0.2,target,decoy,0,4.057
5,137,perceptual,0.03,0.05,target,decoy,0,7.94
5,138,numeric,0.1,0.05,target,target,1,4.787
5,139,perceptual,0.03,0.2,competitor,competitor,0,3.64
5,140,numeric,0.1,0.2,competitor,competitor,0,6.925
5,141,numeric,0.03,0.05,competitor,competitor,0,9.176
5,142,perceptual,0.03,0.05,target,decoy,0,4.469
5,143,perceptual,0.1,0.05,target,target,1,4.224
5,144,perceptual,0.1,0.2,competitor,target,1,4.489
5,145,numeric,0.1,0.05,target,target,1,6.075
5,146,numeric,0.1,0.05,target,target,1,9.741
5,147,perceptual,0.1,0.2,competitor,target,1,4.119
5,148,perceptual,0.1,0.2,target,competitor,0,6.019
5,149,perceptual,0.1,0.05,target,target,1,4.79
5,150,numeric,0.03,0.2,competitor,competitor,0,4.796
5,151,perceptual,0.03,0.05,competitor,competitor,0,3.741
5,152,perceptual,0.03,0.05,target,decoy,0,3.861
5,153,numeric,0.1,0.05,competitor,target,1,4.968
5,154,numeric,0.03,0.2,competitor,competitor,0,4.731
5,155,perceptual,0.1,0.05,competitor,decoy,0,4.091
5,156,perceptual,0.1,0.2,target,target,1,4.345
5,157,numeric,0.03,0.05,competitor,competitor,0,5.199
5,158,perceptual,0.03,0.05,target,target,1,4.912
5,159,perceptual,0.03,0.2,target,target,1,4.449
5,160,perceptual,0.1,0.05,competitor,target,1,4.068
5,161,numeric,0.03,0.05,competitor,target,1,4.932
5,162,numeric,0.1,0.2,competitor,competitor,0,4.683
5,163,perceptual,0.03,0.05,target,competitor,0,4.318
5,164,perceptual,0.1,0.05,competitor,competitor,0,4.984
5,165,numeric,0.03,0.05,target,target,1,6.001
5,166,numeric,0.1,0.05,target,competitor,0,3.549
5,167,perceptual,0.03,0.2,target,competitor,0,3.19
5,168,perceptual,0.03,0.05,competitor,competitor,0,5.179
5,169,numeric,0.03,0.05,competitor,target,1,6.959
5,170,perceptual,0.1,0.2,competitor,competitor,0,4.435
5,171,perceptual,0.03,0.2,target,target,1,3.166
5,172,perceptual,0.1,0.05,competitor,target,1,5.199
5,173,perceptual,0.03,0.2,competitor,target,1,6.859
5,174,numeric,0.03,0.2,target,target,1,4.607
5,175,numeric,0.1,0.05,competitor,target,1,5.216
5,176,perceptual,0.03,0.2,competitor,target,1,3.609
5,177,perceptual,0.1,0.2,target,target,1,5.883
5,178,perceptual,0.1,0.05,target,competitor,0,2.56
5,179,perceptual,0.03,0.05,competitor,target,1,4.579
5,180,perceptual,0.1,0.05,target,decoy,0,10.821
5,181,numeric,0.03,0.05,competitor,competitor,0,5.859
5,182,numeric,0.1,0.2,target,target,1,8.185
5,183,perceptual,0.1,0.2,target,target,1,8.876
5,184,numeric,0.03,0.2,target,competitor,0,14.047
5,185,numeric,0.1,0.05,competitor,target,1,17.793
5,186,perceptual,0.03,0.05,target,competitor,0,4.397
5,187,perceptual,0.03,0.2,target,target,1,4.848
5,188,numeric,0.1,0.2,competitor,competitor,0,5.543
5,189,numeric,0.1,0.05,target,competitor,0,5.743
5,190,perceptual,0.1,0.2,competitor,target,1,4.711
5,191,perceptual,0.03,0.2,target,target,1,4.245
5,192,numeric,0.1,0.2,target,competitor,0,13.454
6,1,perceptual,0.03,0.2,target,target,1,8.206
6,2,perceptual,0.1,0.05,competitor,competitor,0,6.714
6,3,numeric,0.03,0.05,competitor,target,1,7.523
6,4,perceptual,0.1,0.2,competitor,competitor,0,5.33
6,5,numeric,0.1,0.2,competitor,competitor,0,4.886
6,6,perceptual,0.1,0.2,target,competitor,0,2.837
6,7,perceptual,0.03,0.05,target,target,1,1.498
6,8,perceptual,0.1,0.2,competitor,target,1,1.33
6,9,numeric,0.1,0.2,target,target,1,1.3
6,10,perceptual,0.03,0.2,competitor,target,1,1.263
6,11,numeric,0.1,0.2,competitor,target,1,1.3
6,12,perceptual,0.03,0.2,target,decoy,0,2.522
6,13,perceptual,0.03,0.05,target,target,1,1.402
6,14,perceptual,0.03,0.2,competitor,competitor,0,1.941
6,15,numeric,0.1,0.05,target,target,1,4.248
6,16,perceptual,0.1,0.2,target,target,1,1.821
6,17,perceptual,0.1,0.2,target,competitor,0,1.718
6,18,perceptual,0.03,0.2,competitor,decoy,0,1.565
6,19,perceptual,0.1,0.2,target,competitor,0,1.247
6,20,perceptual,0.03,0.2,competitor,competitor,0,1.133
6,21,numeric,0.03,0.2,target,decoy,0,0.99
6,22,perceptual,0.1,0.2,target,target,1,1.346
6,23,perceptual,0.1,0.05,competitor,decoy,0,1.434
6,24,perceptual,0.03,0.05,competitor,target,1,1.301
6,25,perceptual,0.1,0.2,competitor,decoy,0,1.321
6,26,perceptual,0.03,0.05,target,decoy,0,1.267
6,27,numeric,0.1,0.05,target,target,1,1.287
6,28,perceptual,0.03,0.2,target,competitor,0,1.044
6,29,perceptual,0.1,0.2,competitor,target,1,1.1
6,30,numeric,0.03,0.2,competitor,target,1,1.214
6,31,perceptual,0.1,0.05,target,competitor,0,1.11
6,32,perceptual,0.03,0.2,target,decoy,0,1.195
6,33,numeric,0.03,0.2,competitor,competitor,0,5.345
6,34,perceptual,0.03,0.05,competitor,competitor,0,1.25
6,35,perceptual,0.03,0.2,target,competitor,0,1.279
6,36,perceptual,0.03,0.2,competitor,decoy,0,1.121
6,37,numeric,0.1,0.05,competitor,decoy,0,1.216
6,38,numeric,0.1,0.2,competitor,target,1,1.197
6,39,numeric,0.1,0.2,target,competitor,0,1.246
6,40,perceptual,0.1,0.2,target,decoy,0,1.444
6,41,perceptual,0.03,0.05,target,decoy,0,1.273
6,42,numeric,0.03,0.05,competitor,decoy,0,1.278
6,43,perceptual,0.03,0.05,competitor,target,1,1.272
6,44,perceptual,0.1,0.05,target,target,1,1.284
6,45,numeric,0.1,0.05,competitor,target,1,1.345
6,46,perceptual,0.03,0.05,competitor,target,1,1.269
6,47,perceptual,0.1,0.2,target,decoy,0,1.322
6,48,numeric,0.03,0.05,competitor,competitor,0,1.29
6,49,perceptual,0.1,0.05,target,decoy,0,1.302
6,50,perceptual,0.1,0.05,competitor,decoy,0,1.24
6,51,numeric,0.1,0.05,target,competitor,0,1.281
6,52,numeric,0.1,0.2,target,decoy,0,1.278
6,53,numeric,0.1,0.05,competitor,target,1,1.496
6,54,perceptual,0.1,0.05,target,decoy,0,1.31
6,55,perceptual,0.03,0.05,competitor,competitor,0,1.31
6,56,numeric,0.1,0.05,target,target,1,1.272
6,57,perceptual,0.03,0.05,target,decoy,0,1.474
6,58,perceptual,0.03,0.2,competitor,competitor,0,1.474
6,59,perceptual,0.1,0.05,target,competitor,0,1.398
6,60,numeric,0.03,0.05,target,competitor,0,3.445
6,61,perceptual,0.03,0.05,target,decoy,0,1.927
6,62,perceptual,0.03,0.05,target,decoy,0,2.11
6,63,numeric,0.03,0.05,target,target,1,3.32
6,64,perceptual,0.03,0.2,target,competitor,0,1.814
6,65,numeric,0.1,0.05,competitor,competitor,0,4.222
6,66,numeric,0.03,0.05,target,target,1,8.818
6,67,numeric,0.03,0.05,target,target,1,5.027
6,68,numeric,0.03,0.05,competitor,competitor,0,2.156
6,69,perceptual,0.1,0.2,competitor,decoy,0,1.883
6,70,perceptual,0.1,0.2,target,competitor,0,1.899
6,71,numeric,0.1,0.05,competitor,decoy,0,1.54
6,72,perceptual,0.03,0.05,competitor,target,1,1.616
6,73,perceptual,0.03,0.05,target,target,1,4.928
6,74,perceptual,0.03,0.2,competitor,competitor,0,3.599
6,75,perceptual,0.03,0.2,competitor,competitor,0,3.493
6,76,numeric,0.1,0.2,competitor,target,1,4.178
6,77,numeric,0.1,0.05,competitor,target,1,6.243
6,78,numeric,0.03,0.2,target,competitor,0,3.674
6,79,perceptual,0.1,0.2,target,competitor,0,2.651
6,80,numeric,0.1,0.2,target,target,1,5.598
6,81,perceptual,0.1,0.05,competitor,competitor,0,3.328
6,82,numeric,0.1,0.2,competitor,target,1,8.135
6,83,perceptual,0.03,0.05,target,decoy,0,4.647
6,84,perceptual,0.1,0.05,competitor,competitor,0,1.38
6,85,numeric,0.1,0.05,target,competitor,0,1.67
6,86,numeric,0.03,0.2,target,target,1,2.908
6,87,numeric,0.03,0.05,competitor,competitor,0,3.96
6,88,perceptual,0.1,0.05,competitor,competitor,0,2.039
6,89,numeric,0.1,0.2,target,target,1,6.128
6,90,perceptual,0.03,0.2,target,competitor,0,2.817
6,91,numeric,0.03,0.2,target,competitor,0,4.67
6,92,numeric,0.03,0.05,target,target,1,4.925
6,93,perceptual,0.03,0.2,target,target,1,2.055
6,94,perceptual,0.03,0.2,target,decoy,0,2.219
6,95,perceptual,0.1,0.2,competitor,competitor,0,2.361
6,96,numeric,0.03,0.2,competitor,competitor,0,5.791
6,97,perceptual,0.03,0.05,target,target,1,2.033
6,98,numeric,0.03,0.2,competitor,decoy,0,3.2
6,99,numeric,0.03,0.2,target,competitor,0,4.011
6,100,numeric,0.03,0.05,competitor,target,1,2.967
6,101,numeric,0.1,0.05,competitor,target,1,3.977
6,102,numeric,0.03,0.2,target,decoy,0,3.862
6,103,numeric,0.1,0.2,target,competitor,0,4.648
6,104,numeric,0.03,0.05,target,decoy,0,5.71
6,105,numeric,0.03,0.2,target,decoy,0,4.244
6,106,numeric,0.1,0.05,target,decoy,0,1.633
6,107,perceptual,0.03,0.05,competitor,decoy,0,1.811
6,108,numeric,0.03,0.2,target,target,1,1.946
6,109,numeric,0.1,0.2,target,target,1,1.679
6,110,numeric,0.03,0.05,target,decoy,0,1.817
6,111,numeric,0.03,0.05,competitor,target,1,1.793
6,112,numeric,0.1,0.05,target,target,1,1.961
6,113,perceptual,0.03,0.05,competitor,target,1,1.645
6,114,perceptual,0.1,0.05,competitor,decoy,0,1.671
6,115,numeric,0.03,0.05,competitor,competitor,0,4.878
6,116,perceptual,0.1,0.2,competitor,target,1,2.801
6,117,numeric,0.1,0.2,competitor,target,1,1.856
6,118,perceptual,0.1,0.2,competitor,target,1,1.464
6,119,perceptual,0.03,0.2,competitor,competitor,0,1.309
6,120,perceptual,0.03,0.2,target,competitor,0,1.338
6,121,numeric,0.03,0.05,target,competitor,0,1.523
6,122,perceptual,0.03,0.2,target,decoy,0,1.295
6,123,numeric,0.1,0.2,target,decoy,0,1.259
6,124,numeric,0.1,0.05,competitor,competitor,0,1.622
6,125,numeric,0.03,0.2,competitor,decoy,0,1.334
6,126,numeric,0.03,0.05,target,decoy,0,1.348
6,127,perceptual,0.03,0.05,competitor,decoy,0,1.295
6,128,perceptual,0.1,0.05,competitor,competitor,0,1.383
6,129,numeric,0.1,0.05,target,competitor,0,1.702
6,130,perceptual,0.1,0.05,target,decoy,0,1.311
6,131,perceptual,0.1,0.05,target,competitor,0,1.435
6,132,perceptual,0.1,0.05,target,decoy,0,1.308
6,133,numeric,0.1,0.05,competitor,decoy,0,1.294
6,134,perceptual,0.1,0.2,competitor,competitor,0,1.154
6,135,perceptual,0.1,0.2,target,target,1,1.326
6,136,numeric,0.03,0.2,competitor,competitor,0,1.245
6,137,numeric,0.03,0.2,competitor,competitor,0,1.311
6,138,perceptual,0.1,0.05,competitor,target,1,1.33
6,139,perceptual,0.1,0.05,competitor,decoy,0,1.259
6,140,numeric,0.03,0.05,target,competitor,0,1.352
6,141,numeric,0.03,0.05,competitor,decoy,0,1.443
6,142,numeric,0.03,0.05,competitor,decoy,0,1.319
6,143,perceptual,0.03,0.05,competitor,competitor,0,1.724
6,144,numeric,0.03,0.05,target,target,1,1.374
6,145,numeric,0.03,0.2,target,decoy,0,1.65
6,146,perceptual,0.03,0.05,target,target,1,1.726
6,147,perceptual,0.1,0.05,target,decoy,0,0
6,148,numeric,0.1,0.05,target,decoy,0,1.502
6,149,perceptual,0.03,0.05,competitor,decoy,0,2.223
6,150,perceptual,0.1,0.05,competitor,target,1,1.58
6,151,numeric,0.1,0.05,competitor,target,1,1.45
6,152,numeric,0.1,0.2,competitor,competitor,0,0.003
6,153,numeric,0.03,0.2,target,decoy,0,0.202
6,154,numeric,0.03,0.2,competitor,target,1,1.807
6,155,perceptual,0.03,0.05,competitor,decoy,0,1.363
6,156,perceptual,0.03,0.2,competitor,target,1,1.582
6,157,numeric,0.03,0.05,competitor,target,1,1.378
6,158,numeric,0.03,0.2,competitor,target,1,1.34
6,159,numeric,0.03,0.2,competitor,decoy,0,1.361
6,160,numeric,0.03,0.05,target,decoy,0,1.847
6,161,perceptual,0.1,0.05,target,competitor,0,1.689
6,162,numeric,0.03,0.2,target,competitor,0,1.681
6,163,numeric,0.1,0.05,competitor,target,1,5.279
6,164,numeric,0.1,0.2,target,target,1,6.675
6,165,numeric,0.1,0.2,target,competitor,0,2.859
6,166,numeric,0.03,0.2,target,target,1,4.921
6,167,perceptual,0.03,0.05,target,decoy,0,2.154
6,168,perceptual,0.1,0.2,competitor,target,1,1.645
6,169,numeric,0.1,0.05,competitor,target,1,5.105
6,170,numeric,0.1,0.2,target,competitor,0,3.983
6,171,numeric,0.1,0.2,competitor,target,1,4.534
6,172,numeric,0.1,0.2,competitor,target,1,7.01
6,173,numeric,0.03,0.05,competitor,target,1,3.325
6,174,perceptual,0.1,0.2,competitor,target,1,3.968
6,175,perceptual,0.1,0.2,competitor,decoy,0,2.218
6,176,numeric,0.1,0.2,competitor,competitor,0,5.743
6,177,perceptual,0.1,0.2,target,competitor,0,2.416
6,178,numeric,0.03,0.2,competitor,target,1,3.629
6,179,numeric,0.1,0.2,competitor,competitor,0,3.99
6,180,numeric,0.1,0.2,competitor,decoy,0,2.947
6,181,numeric,0.1,0.05,target,target,1,2.184
6,182,perceptual,0.1,0.05,target,competitor,0,1.983
6,183,perceptual,0.1,0.2,target,competitor,0,2.415
6,184,perceptual,0.03,0.2,competitor,decoy,0,1.633
6,185,perceptual,0.1,0.05,competitor,target,1,1.802
6,186,numeric,0.1,0.05,target,target,1,1.701
6,187,perceptual,0.1,0.05,target,decoy,0,1.706
6,188,numeric,0.03,0.2,competitor,target,1,3.69
6,189,numeric,0.1,0.05,target,target,1,4.978
6,190,perceptual,0.03,0.2,competitor,competitor,0,2.135
6,191,perceptual,0.03,0.2,target,competitor,0,1.673
6,192,numeric,0.1,0.2,target,target,1,6.17
7,1,numeric,0.03,0.05,target,competitor,0,12.137
7,2,numeric,0.03,0.05,target,competitor,0,6.2
7,3,perceptual,0.03,0.05,target,target,1,7.223
7,4,perceptual,0.1,0.05,competitor,target,1,6.204
7,5,perceptual,0.1,0.05,competitor,competitor,0,3.139
7,6,perceptual,0.03,0.05,competitor,target,1,5.551
7,7,numeric,0.03,0.2,competitor,target,1,9.738
7,8,perceptual,0.1,0.05,competitor,target,1,8.384
7,9,perceptual,0.1,0.2,target,target,1,7.132
7,10,numeric,0.1,0.2,target,decoy,0,9.09
7,11,numeric,0.03,0.2,target,target,1,5.208
7,12,perceptual,0.03,0.05,competitor,competitor,0,5.849
7,13,numeric,0.03,0.05,competitor,competitor,0,6.216
7,14,numeric,0.03,0.05,competitor,competitor,0,8.135
7,15,numeric,0.03,0.05,competitor,competitor,0,6.166
7,16,numeric,0.03,0.2,target,competitor,0,11.788
7,17,numeric,0.1,0.2,competitor,competitor,0,7.45
7,18,perceptual,0.03,0.05,competitor,target,1,8.334
7,19,numeric,0.03,0.05,competitor,target,1,7.116
7,20,perceptual,0.1,0.2,target,competitor,0,9.016
7,21,perceptual,0.03,0.05,target,decoy,0,8.535
7,22,perceptual,0.1,0.2,target,target,1,7.695
7,23,numeric,0.03,0.05,target,target,1,7.094
7,24,numeric,0.03,0.2,competitor,competitor,0,6.863
7,25,numeric,0.03,0.05,target,target,1,10.235
7,26,numeric,0.03,0.2,target,target,1,5.882
7,27,numeric,0.1,0.05,competitor,competitor,0,6.335
7,28,perceptual,0.1,0.2,competitor,target,1,5.118
7,29,numeric,0.03,0.05,target,target,1,7.266
7,30,numeric,0.1,0.05,target,target,1,5.484
7,31,perceptual,0.1,0.05,competitor,target,1,4.734
7,32,numeric,0.03,0.2,target,target,1,7.249
7,33,perceptual,0.03,0.2,competitor,target,1,8.557
7,34,perceptual,0.1,0.05,target,target,1,4.775
7,35,perceptual,0.1,0.05,target,decoy,0,10.499
7,36,numeric,0.1,0.05,competitor,competitor,0,7.156
7,37,perceptual,0.03,0.05,competitor,competitor,0,5.801
7,38,numeric,0.03,0.05,competitor,competitor,0,8.599
7,39,numeric,0.1,0.2,target,target,1,6.472
7,40,perceptual,0.03,0.05,competitor,decoy,0,4.091
7,41,perceptual,0.1,0.2,competitor,competitor,0,4.071
7,42,numeric,0.03,0.05,competitor,competitor,0,12.017
7,43,perceptual,0.03,0.2,competitor,competitor,0,5.837
7,44,numeric,0.1,0.05,competitor,target,1,7.449
7,45,perceptual,0.1,0.2,target,competitor,0,3.8
7,46,numeric,0.03,0.05,competitor,decoy,0,11.918
7,47,perceptual,0.1,0.2,competitor,target,1,3.588
7,48,numeric,0.1,0.2,target,target,1,6.933
7,49,numeric,0.03,0.2,competitor,target,1,6.452
7,50,perceptual,0.1,0.05,competitor,competitor,0,6.605
7,51,perceptual,0.1,0.05,target,competitor,0,4.554
7,52,numeric,0.1,0.05,competitor,target,1,7.059
7,53,perceptual,0.03,0.2,competitor,target,1,5.62
7,54,perceptual,0.03,0.2,target,competitor,0,4.652
7,55,perceptual,0.1,0.2,competitor,target,1,4.5
7,56,perceptual,0.1,0.05,competitor,competitor,0,6.303
7,57,perceptual,0.1,0.2,competitor,target,1,4.523
7,58,perceptual,0.03,0.05,competitor,decoy,0,5.305
7,59,numeric,0.03,0.05,target,target,1,8.556
7,60,numeric,0.1,0.05,target,target,1,8.781
7,61,numeric,0.03,0.2,competitor,competitor,0,8.979
7,62,perceptual,0.03,0.2,competitor,target,1,4.786
7,63,numeric,0.1,0.2,target,target,1,8.417
7,64,perceptual,0.1,0.05,target,target,1,2.95
7,65,perceptual,0.03,0.05,target,decoy,0,11.085
7,66,perceptual,0.1,0.05,competitor,target,1,5.784
7,67,perceptual,0.1,0.05,competitor,competitor,0,7.974
7,68,numeric,0.03,0.2,target,target,1,10.833
7,69,numeric,0.03,0.2,competitor,competitor,0,6.767
7,70,perceptual,0.03,0.2,competitor,competitor,0,5.519
7,71,numeric,0.1,0.05,target,target,1,4.337
7,72,perceptual,0.1,0.2,target,competitor,0,6.133
7,73,perceptual,0.1,0.05,target,decoy,0,5.166
7,74,numeric,0.1,0.2,target,target,1,5.4
7,75,perceptual,0.03,0.05,competitor,competitor,0,3.633
7,76,perceptual,0.1,0.2,competitor,target,1,2.988
7,77,perceptual,0.1,0.2,target,target,1,3.289
7,78,perceptual,0.03,0.05,target,target,1,6.572
7,79,perceptual,0.03,0.2,target,target,1,3.8
7,80,numeric,0.1,0.2,competitor,target,1,8.272
7,81,numeric,0.1,0.2,competitor,target,1,6.718
7,82,perceptual,0.1,0.2,target,target,1,7.183
7,83,perceptual,0.1,0.05,target,target,1,4.666
7,84,numeric,0.1,0.2,target,target,1,5.922
7,85,numeric,0.1,0.2,competitor,competitor,0,5.649
7,86,numeric,0.1,0.2,target,competitor,0,9.269
7,87,numeric,0.03,0.2,competitor,competitor,0,6.883
7,88,perceptual,0.03,0.2,target,target,1,3.921
7,89,perceptual,0.03,0.05,target,competitor,0,5.069
7,90,perceptual,0.03,0.2,target,competitor,0,4.733
7,91,numeric,0.03,0.2,target,target,1,6.22
7,92,perceptual,0.1,0.05,target,target,1,4.573
7,93,numeric,0.1,0.05,target,target,1,8.449
7,94,perceptual,0.1,0.05,competitor,competitor,0,4.823
7,95,numeric,0.1,0.05,target,target,1,9.819
7,96,perceptual,0.03,0.2,competitor,competitor,0,4.917
7,97,perceptual,0.03,0.2,competitor,target,1,4.521
7,98,numeric,0.1,0.05,target,target,1,7.148
7,99,perceptual,0.1,0.05,target,target,1,3.913
7,100,numeric,0.1,0.05,target,target,1,10.205
7,101,numeric,0.1,0.05,target,target,1,4.981
7,102,numeric,0.03,0.05,competitor,competitor,0,4.903
7,103,perceptual,0.1,0.05,target,competitor,0,3.818
7,104,perceptual,0.03,0.2,target,competitor,0,2.953
7,105,numeric,0.1,0.05,competitor,competitor,0,7.99
7,106,numeric,0.03,0.2,target,competitor,0,8.834
7,107,perceptual,0.03,0.05,target,competitor,0,5.42
7,108,perceptual,0.03,0.2,target,target,1,5.665
7,109,perceptual,0.03,0.2,competitor,competitor,0,3.349
7,110,numeric,0.03,0.2,target,decoy,0,3.412
7,111,perceptual,0.1,0.2,target,competitor,0,4.47
7,112,numeric,0.03,0.2,target,target,1,9.3
7,113,numeric,0.03,0.2,competitor,target,1,7.333
7,114,perceptual,0.1,0.2,competitor,target,1,3.072
7,115,numeric,0.03,0.05,target,target,1,4.866
7,116,numeric,0.03,0.05,target,target,1,8.18
7,117,perceptual,0.03,0.05,competitor,decoy,0,7.57
7,118,numeric,0.03,0.2,competitor,competitor,0,6.566
7,119,numeric,0.1,0.05,competitor,target,1,12.419
7,120,numeric,0.03,0.05,target,decoy,0,6.482
7,121,numeric,0.1,0.05,competitor,target,1,7.55
7,122,perceptual,0.1,0.2,competitor,target,1,3.449
7,123,numeric,0.03,0.2,competitor,target,1,5.817
7,124,numeric,0.03,0.05,competitor,target,1,4.849
7,125,numeric,0.1,0.05,competitor,decoy,0,6.342
7,126,numeric,0.1,0.05,competitor,competitor,0,6.705
7,127,perceptual,0.1,0.2,competitor,target,1,3.028
7,128,perceptual,0.1,0.2,competitor,target,1,2.663
7,129,perceptual,0.03,0.2,competitor,target,1,3.985
7,130,perceptual,0.1,0.2,target,target,1,3.052
7,131,perceptual,0.1,0.2,target,target,1,3.301
7,132,numeric,0.1,0.2,target,target,1,7.133
7,133,numeric,0.1,0.05,competitor,competitor,0,4.949
7,134,numeric,0.1,0.05,competitor,target,1,5.534
7,135,perceptual,0.03,0.05,target,competitor,0,1.216
7,136,perceptual,0.03,0.2,competitor,target,1,3.199
7,137,perceptual,0.03,0.05,competitor,target,1,3.55
7,138,numeric,0.1,0.05,competitor,target,1,6.45
7,139,perceptual,0.03,0.05,target,decoy,0,4.862
7,140,perceptual,0.03,0.05,competitor,decoy,0,3.513
7,141,numeric,0.1,0.2,competitor,target,1,8.1
7,142,numeric,0.1,0.05,target,target,1,9.849
7,143,numeric,0.1,0.2,target,target,1,4.085
7,144,numeric,0.1,0.2,competitor,target,1,6.7
7,145,numeric,0.1,0.2,competitor,competitor,0,5.752
7,146,numeric,0.03,0.05,competitor,competitor,0,10.552
7,147,perceptual,0.1,0.2,competitor,target,1,2.84
7,148,perceptual,0.1,0.2,target,target,1,3.618
7,149,perceptual,0.1,0.2,target,target,1,3.586
7,150,numeric,0.03,0.2,competitor,competitor,0,6.767
7,151,perceptual,0.03,0.2,competitor,target,1,3.341
7,152,perceptual,0.1,0.05,target,target,1,7.214
7,153,perceptual,0.03,0.05,target,target,1,3.98
7,154,perceptual,0.03,0.05,target,competitor,0,3.847
7,155,numeric,0.03,0.05,target,target,1,7.733
7,156,perceptual,0.03,0.05,target,competitor,0,5.437
7,157,perceptual,0.03,0.2,target,target,1,3.568
7,158,perceptual,0.1,0.05,competitor,decoy,0,6.634
7,159,perceptual,0.03,0.2,target,target,1,3.581
7,160,perceptual,0.1,0.2,competitor,target,1,2.737
7,161,numeric,0.03,0.05,competitor,competitor,0,5.211
7,162,numeric,0.1,0.2,competitor,competitor,0,6.795
7,163,numeric,0.1,0.2,competitor,competitor,0,7.896
7,164,perceptual,0.1,0.05,target,target,1,2.434
7,165,numeric,0.1,0.2,competitor,target,1,4.054
7,166,numeric,0.1,0.2,competitor,competitor,0,6.318
7,167,perceptual,0.03,0.05,target,target,1,5.451
7,168,perceptual,0.03,0.2,target,target,1,3.272
7,169,numeric,0.03,0.2,competitor,target,1,5.636
7,170,numeric,0.03,0.05,target,target,1,10.208
7,171,perceptual,0.03,0.2,target,target,1,3.732
7,172,perceptual,0.03,0.2,target,target,1,4.314
7,173,numeric,0.03,0.05,target,target,1,7.529
7,174,numeric,0.03,0.05,competitor,target,1,4.371
7,175,numeric,0.1,0.2,target,target,1,6.301
7,176,numeric,0.1,0.2,competitor,competitor,0,7.669
7,177,perceptual,0.1,0.05,target,target,1,5.477
7,178,numeric,0.03,0.2,target,target,1,5.168
7,179,numeric,0.1,0.2,target,target,1,4.33
7,180,numeric,0.1,0.05,target,target,1,7.139
7,181,perceptual,0.03,0.2,competitor,target,1,3.668
7,182,numeric,0.1,0.2,target,target,1,10.666
7,183,perceptual,0.03,0.05,competitor,decoy,0,3.651
7,184,numeric,0.03,0.2,target,competitor,0,11.42
7,185,perceptual,0.1,0.05,competitor,target,1,3.368
7,186,numeric,0.1,0.05,target,target,1,5.348
7,187,perceptual,0.03,0.05,competitor,competitor,0,5.62
7,188,perceptual,0.1,0.05,competitor,decoy,0,2.72
7,189,numeric,0.03,0.2,competitor,competitor,0,3.903
7,190,numeric,0.03,0.2,target,target,1,7.317
7,191,numeric,0.1,0.05,target,target,1,11.901
7,192,perceptual,0.03,0.2,target,target,1,3.42
8,1,numeric,0.1,0.05,competitor,target,1,6.772
8,2,perceptual,0.03,0.2,competitor,target,1,5.324
8,3,numeric,0.03,0.05,target,target,1,8.249
8,4,numeric,0.03,0.05,target,competitor,0,9.264
8,5,numeric,0.03,0.05,competitor,competitor,0,9.867
8,6,perceptual,0.03,0.2,competitor,competitor,0,5.314
8,7,perceptual,0.03,0.05,target,decoy,0,5.234
8,8,perceptual,0.03,0.2,competitor,target,1,4.923
8,9,numeric,0.03,0.05,target,target,1,8.568
8,10,perceptual,0.1,0.05,competitor,target,1,4.749
8,11,numeric,0.03,0.05,target,target,1,8.012
8,12,numeric,0.1,0.2,target,target,1,10.795
8,13,perceptual,0.03,0.05,competitor,target,1,2.866
8,14,perceptual,0.1,0.2,competitor,competitor,0,4.186
8,15,perceptual,0.1,0.05,competitor,target,1,3.745
8,16,perceptual,0.1,0.05,target,competitor,0,2.474
8,17,numeric,0.03,0.2,competitor,competitor,0,7.788
8,18,numeric,0.1,0.2,target,target,1,5.429
8,19,numeric,0.03,0.05,target,target,1,6.33
8,20,perceptual,0.1,0.05,competitor,target,1,5.864
8,21,numeric,0.1,0.05,target,competitor,0,9.912
8,22,numeric,0.03,0.2,target,target,1,7.551
8,23,numeric,0.1,0.05,competitor,target,1,8.113
8,24,numeric,0.1,0.05,target,decoy,0,3.442
8,25,perceptual,0.1,0.2,competitor,target,1,2.16
8,26,numeric,0.03,0.05,competitor,target,1,4.546
8,27,perceptual,0.03,0.2,target,target,1,3.147
8,28,perceptual,0.03,0.05,competitor,target,1,6.003
8,29,numeric,0.03,0.2,competitor,target,1,7.74
8,30,numeric,0.03,0.2,target,target,1,7.052
8,31,numeric,0.1,0.2,competitor,target,1,8.604
8,32,numeric,0.1,0.05,competitor,target,1,4.123
8,33,perceptual,0.03,0.05,competitor,target,1,3.649
8,34,perceptual,0.03,0.2,target,competitor,0,3.446
8,35,numeric,0.03,0.2,competitor,target,1,5.898
8,36,perceptual,0.1,0.05,target,target,1,5.532
8,37,numeric,0.1,0.05,target,target,1,7.674
8,38,perceptual,0.1,0.2,competitor,target,1,4.761
8,39,numeric,0.1,0.05,competitor,target,1,8.451
8,40,numeric,0.1,0.2,competitor,competitor,0,6.867
8,41,numeric,0.03,0.2,competitor,competitor,0,5.274
8,42,numeric,0.1,0.05,target,competitor,0,4.833
8,43,numeric,0.1,0.2,competitor,competitor,0,3.928
8,44,numeric,0.03,0.2,competitor,competitor,0,4.577
8,45,numeric,0.1,0.2,target,target,1,7.92
8,46,perceptual,0.1,0.05,competitor,competitor,0,5.283
8,47,numeric,0.1,0.2,target,target,1,5.452
8,48,perceptual,0.1,0.2,competitor,target,1,4.731
8,49,perceptual,0.1,0.05,competitor,target,1,4.829
8,50,perceptual,0.1,0.05,target,target,1,4.6
8,51,perceptual,0.1,0.2,target,competitor,0,3.737
8,52,perceptual,0.03,0.2,competitor,competitor,0,4.915
8,53,perceptual,0.1,0.05,competitor,decoy,0,5.85
8,54,numeric,0.03,0.2,target,target,1,6.719
8,55,perceptual,0.1,0.05,target,target,1,6.636
8,56,perceptual,0.1,0.05,target,decoy,0,2.996
8,57,numeric,0.1,0.2,competitor,target,1,5.502
8,58,perceptual,0.03,0.05,target,decoy,0,5.652
8,59,perceptual,0.03,0.2,competitor,competitor,0,3.849
8,60,perceptual,0.03,0.2,target,competitor,0,4.489
8,61,perceptual,0.03,0.2,target,target,1,2.908
8,62,numeric,0.03,0.05,competitor,target,1,8.85
8,63,numeric,0.03,0.2,target,target,1,11.656
8,64,perceptual,0.03,0.2,target,competitor,0,4.289
8,65,numeric,0.1,0.2,competitor,competitor,0,7.064
8,66,perceptual,0.03,0.05,target,target,1,6.76
8,67,perceptual,0.1,0.2,target,target,1,2.942
8,68,numeric,0.1,0.05,target,target,1,6.678
8,69,numeric,0.03,0.2,competitor,competitor,0,10.003
8,70,perceptual,0.03,0.05,target,competitor,0,5.532
8,71,perceptual,0.03,0.2,competitor,decoy,0,6.824
8,72,numeric,0.1,0.05,target,decoy,0,11.049
8,73,numeric,0.1,0.05,competitor,target,1,9.03
8,74,numeric,0.1,0.2,target,target,1,4.587
8,75,perceptual,0.1,0.2,competitor,target,1,6.502
8,76,numeric,0.1,0.05,target,target,1,6.808
8,77,numeric,0.03,0.05,competitor,decoy,0,10.022
8,78,numeric,0.1,0.2,competitor,competitor,0,6.146
8,79,numeric,0.03,0.2,target,target,1,9.645
8,80,perceptual,0.1,0.05,competitor,competitor,0,6.449
8,81,perceptual,0.1,0.05,target,target,1,5.351
8,82,numeric,0.03,0.05,competitor,target,1,7.945
8,83,perceptual,0.1,0.05,competitor,competitor,0,4.003
8,84,perceptual,0.03,0.2,target,target,1,3.055
8,85,perceptual,0.1,0.05,target,decoy,0,5.217
8,86,numeric,0.03,0.05,target,target,1,5.302
8,87,numeric,0.03,0.05,competitor,target,1,6.758
8,88,perceptual,0.1,0.2,target,target,1,7.436
8,89,perceptual,0.03,0.2,target,competitor,0,5.398
8,90,perceptual,0.1,0.2,competitor,target,1,5.924
8,91,perceptual,0.03,0.2,competitor,target,1,3.377
8,92,perceptual,0.03,0.2,target,competitor,0,5.975
8,93,perceptual,0.03,0.05,competitor,target,1,6.294
8,94,perceptual,0.1,0.2,target,target,1,6.99
8,95,numeric,0.1,0.05,target,target,1,9.661
8,96,numeric,0.03,0.05,competitor,competitor,0,10.462
8,97,perceptual,0.03,0.2,competitor,target,1,5.698
8,98,perceptual,0.03,0.2,target,target,1,4.538
8,99,numeric,0.1,0.2,target,competitor,0,4.97
8,100,numeric,0.1,0.05,target,target,1,8.657
8,101,numeric,0.03,0.05,target,target,1,9.629
8,102,numeric,0.1,0.2,target,target,1,10.11
8,103,perceptual,0.03,0.2,competitor,target,1,5.387
8,104,perceptual,0.1,0.2,competitor,decoy,0,8.555
8,105,numeric,0.03,0.05,competitor,competitor,0,10.301
8,106,perceptual,0.03,0.05,target,decoy,0,5.797
8,107,numeric,0.03,0.05,competitor,decoy,0,5.813
8,108,perceptual,0.1,0.2,target,competitor,0,5.559
8,109,numeric,0.1,0.2,competitor,competitor,0,6.261
8,110,numeric,0.1,0.05,target,target,1,7.69
8,111,numeric,0.03,0.05,target,target,1,4.023
8,112,perceptual,0.1,0.2,competitor,competitor,0,3.896
8,113,perceptual,0.03,0.05,target,target,1,7.14
8,114,numeric,0.03,0.05,competitor,target,1,5.744
8,115,perceptual,0.1,0.05,target,competitor,0,4.326
8,116,numeric,0.03,0.2,target,target,1,7.078
8,117,numeric,0.03,0.2,competitor,competitor,0,7.308
8,118,numeric,0.1,0.2,competitor,competitor,0,3.268
8,119,perceptual,0.1,0.05,target,competitor,0,4.588
8,120,perceptual,0.03,0.2,competitor,target,1,3.281
8,121,perceptual,0.03,0.05,competitor,target,1,6.426
8,122,numeric,0.1,0.2,competitor,competitor,0,3.876
8,123,perceptual,0.03,0.05,competitor,target,1,3.527
8,124,numeric,0.03,0.2,target,decoy,0,3.581
8,125,numeric,0.1,0.05,target,target,1,9.078
8,126,numeric,0.03,0.2,competitor,target,1,7.484
8,127,perceptual,0.1,0.05,target,target,1,3.485
8,128,perceptual,0.03,0.2,target,competitor,0,3.564
8,129,perceptual,0.03,0.05,competitor,competitor,0,3.705
8,130,perceptual,0.03,0.05,target,decoy,0,3.686
8,131,numeric,0.1,0.2,competitor,target,1,5.363
8,132,numeric,0.1,0.05,target,target,1,3.747
8,133,perceptual,0.1,0.2,competitor,target,1,3.313
8,134,numeric,0.1,0.05,competitor,competitor,0,6.446
8,135,numeric,0.1,0.05,competitor,target,1,3.655
8,136,perceptual,0.03,0.05,competitor,decoy,0,5.198
8,137,perceptual,0.03,0.05,competitor,target,1,2.747
8,138,numeric,0.1,0.2,target,decoy,0,3.897
8,139,numeric,0.03,0.2,target,target,1,4.29
8,140,numeric,0.03,0.05,competitor,target,1,11.246
8,141,numeric,0.1,0.05,competitor,target,1,4.28
8,142,perceptual,0.03,0.05,competitor,target,1,3.496
8,143,numeric,0.03,0.2,target,competitor,0,4.638
8,144,perceptual,0.1,0.05,competitor,target,1,3.144
8,145,numeric,0.1,0.05,competitor,target,1,3.848
8,148,perceptual,0.03,0.2,competitor,competitor,0,0.413
8,149,perceptual,0.1,0.2,competitor,target,1,4.023
8,150,perceptual,0.1,0.05,competitor,decoy,0,4.1
8,151,perceptual,0.03,0.05,competitor,target,1,8.078
8,152,numeric,0.1,0.2,competitor,target,1,2.594
8,153,perceptual,0.03,0.2,competitor,target,1,2.791
8,154,numeric,0.03,0.2,competitor,target,1,4.382
8,155,numeric,0.03,0.05,competitor,competitor,0,2.79
8,156,perceptual,0.03,0.05,target,target,1,3.35
8,157,numeric,0.03,0.05,target,target,1,18.202
8,158,numeric,0.03,0.05,target,target,1,5.632
8,159,perceptual,0.1,0.2,target,target,1,4.188
8,160,numeric,0.1,0.05,competitor,competitor,0,4.67
8,161,numeric,0.03,0.2,target,target,1,4.215
8,162,numeric,0.1,0.2,target,target,1,4.483
8,163,numeric,0.03,0.2,competitor,decoy,0,3.562
8,164,numeric,0.1,0.2,target,target,1,3.777
8,165,perceptual,0.03,0.2,target,competitor,0,2.935
8,166,numeric,0.03,0.05,target,decoy,0,6.628
8,167,perceptual,0.1,0.2,target,competitor,0,5.149
8,168,perceptual,0.1,0.2,target,competitor,0,4.063
8,169,perceptual,0.03,0.05,competitor,competitor,0,4.301
8,170,perceptual,0.1,0.05,competitor,target,1,3.366
8,171,numeric,0.1,0.05,competitor,competitor,0,4.38
8,172,perceptual,0.03,0.05,target,target,1,4.281
8,173,numeric,0.03,0.05,target,target,1,8.226
8,174,numeric,0.03,0.2,competitor,competitor,0,7.049
8,175,perceptual,0.1,0.05,target,target,1,4.035
8,176,numeric,0.03,0.2,competitor,target,1,7.469
8,177,perceptual,0.03,0.05,target,decoy,0,3.166
8,178,numeric,0.03,0.2,target,target,1,5.916
8,179,perceptual,0.1,0.2,competitor,competitor,0,4.065
8,180,perceptual,0.1,0.2,competitor,target,1,5.455
8,181,numeric,0.1,0.05,competitor,target,1,10.652
8,182,perceptual,0.1,0.2,target,decoy,0,3.687
8,183,perceptual,0.1,0.2,target,competitor,0,4.239
8,184,perceptual,0.1,0.05,competitor,competitor,0,4.33
8,185,numeric,0.1,0.2,competitor,target,1,5.965
8,186,perceptual,0.1,0.05,target,decoy,0,4.604
8,187,perceptual,0.1,0.2,target,decoy,0,2.778
8,188,numeric,0.1,0.2,target,target,1,5.249
8,189,perceptual,0.1,0.2,target,competitor,0,3.579
8,190,perceptual,0.03,0.2,target,decoy,0,2.233
8,191,numeric,0.03,0.2,target,target,1,3.536
8,192,perceptual,0.03,0.05,target,competitor,0,4.902
9,1,perceptual,0.03,0.2,competitor,competitor,0,18.751
9,2,perceptual,0.1,0.05,target,decoy,0,6.367
9,3,perceptual,0.1,0.05,competitor,target,1,9.231
9,4,numeric,0.1,0.2,competitor,competitor,0,18.072
9,5,numeric,0.03,0.2,target,decoy,0,9.397
9,6,perceptual,0.03,0.05,target,competitor,0,4.925
9,7,numeric,0.1,0.2,competitor,competitor,0,12.02
9,8,perceptual,0.03,0.05,competitor,decoy,0,5.283
9,9,numeric,0.1,0.05,target,target,1,11.018
9,10,numeric,0.1,0.2,competitor,competitor,0,7.475
9,11,perceptual,0.03,0.2,competitor,target,1,6.256
9,12,numeric,0.1,0.05,target,target,1,16.08
9,13,numeric,0.1,0.2,target,target,1,15.294
9,14,numeric,0.1,0.05,target,target,1,7.306
9,15,numeric,0.1,0.2,competitor,target,1,8.671
9,16,numeric,0.03,0.05,target,competitor,0,9.394
9,17,perceptual,0.1,0.2,competitor,competitor,0,8.249
9,18,perceptual,0.1,0.05,target,target,1,11.11
9,19,perceptual,0.1,0.05,competitor,competitor,0,11.149
9,20,numeric,0.03,0.05,target,competitor,0,11.886
9,21,numeric,0.1,0.2,competitor,decoy,0,12.681
9,22,perceptual,0.03,0.2,target,decoy,0,9.284
9,23,numeric,0.03,0.05,competitor,target,1,16.334
9,24,numeric,0.03,0.2,competitor,target,1,8.017
9,25,numeric,0.1,0.2,target,competitor,0,8.386
9,26,numeric,0.1,0.2,target,target,1,7.803
9,27,perceptual,0.1,0.05,target,competitor,0,4.555
9,28,numeric,0.03,0.2,competitor,target,1,10.148
9,29,numeric,0.1,0.2,target,target,1,9.525
9,30,perceptual,0.03,0.05,target,decoy,0,5.433
9,31,perceptual,0.1,0.05,target,target,1,5.685
9,32,numeric,0.03,0.2,competitor,competitor,0,13.125
9,33,numeric,0.03,0.05,target,target,1,6.512
9,34,numeric,0.03,0.2,target,competitor,0,10.041
9,35,perceptual,0.1,0.2,competitor,competitor,0,11.216
9,36,numeric,0.03,0.2,target,target,1,12.418
9,37,perceptual,0.1,0.05,target,target,1,2.269
9,38,numeric,0.03,0.2,competitor,decoy,0,3.023
9,39,perceptual,0.03,0.2,competitor,target,1,2.87
9,40,numeric,0.03,0.2,target,target,1,8.32
9,41,numeric,0.03,0.05,competitor,target,1,7.568
9,42,perceptual,0.03,0.2,competitor,decoy,0,4.06
9,43,perceptual,0.1,0.05,target,target,1,6.158
9,44,numeric,0.1,0.05,competitor,competitor,0,7.683
9,45,perceptual,0.1,0.2,target,decoy,0,5.32
9,46,perceptual,0.1,0.2,competitor,decoy,0,7.243
9,47,numeric,0.03,0.05,competitor,competitor,0,12.983
9,48,numeric,0.1,0.05,competitor,target,1,8.209
9,49,perceptual,0.1,0.05,target,decoy,0,6.92
9,50,numeric,0.03,0.05,competitor,target,1,5.568
9,51,perceptual,0.1,0.2,competitor,target,1,5.187
9,52,numeric,0.03,0.05,competitor,target,1,9.937
9,53,perceptual,0.03,0.05,target,target,1,4.905
9,54,numeric,0.1,0.05,target,target,1,12.537
9,55,numeric,0.1,0.2,target,target,1,9.936
9,56,numeric,0.03,0.2,target,target,1,9.334
9,57,perceptual,0.1,0.2,competitor,target,1,8.539
9,58,numeric,0.1,0.2,competitor,target,1,10.964
9,59,numeric,0.03,0.2,competitor,target,1,12.288
9,60,perceptual,0.1,0.2,competitor,target,1,4.21
9,61,perceptual,0.03,0.05,target,decoy,0,9.496
9,62,numeric,0.1,0.05,competitor,target,1,13.751
9,63,perceptual,0.1,0.05,competitor,target,1,3.242
9,64,numeric,0.1,0.2,competitor,target,1,10.519
9,65,numeric,0.1,0.2,target,decoy,0,9.785
9,66,numeric,0.03,0.05,target,target,1,15.29
9,67,numeric,0.03,0.05,target,competitor,0,7.488
9,68,perceptual,0.03,0.2,target,decoy,0,6.449
9,69,numeric,0.03,0.05,competitor,competitor,0,15.865
9,70,perceptual,0.1,0.2,target,target,1,9.644
9,71,numeric,0.03,0.05,competitor,competitor,0,15.377
9,72,numeric,0.03,0.2,competitor,target,1,10.054
9,73,perceptual,0.1,0.2,target,target,1,4.712
9,74,numeric,0.03,0.05,target,target,1,19.829
9,75,perceptual,0.03,0.05,competitor,target,1,4.651
9,76,perceptual,0.03,0.2,competitor,target,1,8.026
9,77,perceptual,0.1,0.05,target,target,1,3.621
9,78,perceptual,0.03,0.2,target,target,1,7.45
9,79,perceptual,0.03,0.2,competitor,decoy,0,4.269
9,80,numeric,0.1,0.2,target,target,1,9.201
9,81,perceptual,0.03,0.05,competitor,target,1,6.148
9,82,perceptual,0.1,0.2,competitor,target,1,5.712
9,83,perceptual,0.1,0.2,competitor,target,1,4.51
9,84,numeric,0.1,0.2,target,target,1,7.262
9,85,perceptual,0.1,0.2,target,decoy,0,3.208
9,86,perceptual,0.1,0.2,target,competitor,0,3.466
9,87,perceptual,0.03,0.05,competitor,target,1,2.793
9,88,numeric,0.1,0.05,target,target,1,6.493
9,89,perceptual,0.1,0.2,competitor,target,1,2.835
9,90,perceptual,0.03,0.2,target,competitor,0,4.571
9,91,perceptual,0.03,0.2,target,decoy,0,4.668
9,92,perceptual,0.1,0.05,competitor,competitor,0,5.588
9,93,perceptual,0.03,0.2,target,target,1,2.755
9,94,numeric,0.1,0.05,target,target,1,5.415
9,95,numeric,0.1,0.05,target,target,1,8.836
9,96,numeric,0.1,0.05,competitor,target,1,9.386
9,97,perceptual,0.03,0.05,target,competitor,0,3.264
9,98,numeric,0.1,0.05,target,target,1,10.951
9,99,perceptual,0.1,0.05,target,decoy,0,4.468
9,100,perceptual,0.1,0.05,target,competitor,0,3.962
9,101,perceptual,0.1,0.05,competitor,decoy,0,5.737
9,102,perceptual,0.03,0.05,target,competitor,0,2.826
9,103,numeric,0.03,0.05,target,target,1,14.183
9,104,numeric,0.03,0.2,competitor,competitor,0,5.916
9,105,perceptual,0.03,0.2,competitor,competitor,0,2.755
9,106,perceptual,0.03,0.2,competitor,decoy,0,2.565
9,107,perceptual,0.03,0.05,target,competitor,0,3.204
9,108,numeric,0.03,0.2,target,competitor,0,8.233
9,109,perceptual,0.1,0.2,target,competitor,0,3.542
9,110,numeric,0.1,0.2,target,target,1,12.55
9,111,perceptual,0.03,0.2,target,target,1,12.565
9,112,numeric,0.1,0.05,competitor,competitor,0,12.658
9,113,numeric,0.03,0.05,competitor,competitor,0,11.588
9,114,numeric,0.03,0.2,competitor,target,1,10.006
9,115,numeric,0.1,0.2,competitor,target,1,6.565
9,116,numeric,0.03,0.05,competitor,competitor,0,6.435
9,117,numeric,0.03,0.2,target,target,1,6.181
9,118,numeric,0.1,0.2,target,target,1,9.166
9,119,perceptual,0.03,0.2,target,competitor,0,3.856
9,120,numeric,0.03,0.05,competitor,target,1,15.816
9,121,numeric,0.03,0.05,competitor,target,1,3.057
9,122,perceptual,0.1,0.05,competitor,competitor,0,6.099
9,123,perceptual,0.03,0.05,target,competitor,0,2.857
9,124,perceptual,0.03,0.2,competitor,competitor,0,2.686
9,125,numeric,0.03,0.2,target,competitor,0,5.717
9,126,perceptual,0.1,0.05,competitor,target,1,2.685
9,127,numeric,0.1,0.05,competitor,target,1,8.13
9,128,numeric,0.1,0.05,target,target,1,6.103
9,129,perceptual,0.03,0.2,target,competitor,0,4.164
9,130,numeric,0.1,0.05,competitor,target,1,6.619
9,131,perceptual,0.03,0.05,target,target,1,5.486
9,132,perceptual,0.1,0.2,target,decoy,0,5.291
9,133,perceptual,0.03,0.2,target,decoy,0,6.22
9,134,perceptual,0.1,0.05,competitor,decoy,0,2.887
9,135,numeric,0.03,0.2,competitor,target,1,3.737
9,136,perceptual,0.1,0.05,competitor,competitor,0,2.808
9,137,perceptual,0.1,0.2,competitor,decoy,0,2.543
9,138,numeric,0.1,0.05,competitor,target,1,5.179
9,139,numeric,0.03,0.2,target,target,1,7.621
9,140,numeric,0.1,0.05,competitor,target,1,6.287
9,141,perceptual,0.03,0.05,target,target,1,3.386
9,142,numeric,0.1,0.05,competitor,competitor,0,7
9,143,perceptual,0.1,0.2,target,competitor,0,4.99
9,144,perceptual,0.03,0.2,target,target,1,7.352
9,145,perceptual,0.03,0.05,competitor,target,1,5.194
9,147,perceptual,0.1,0.2,competitor,competitor,0,14.271
9,148,perceptual,0.1,0.05,competitor,target,1,5.769
9,149,perceptual,0.03,0.2,target,competitor,0,3.219
9,150,perceptual,0.1,0.05,target,decoy,0,3.708
9,151,numeric,0.1,0.2,competitor,decoy,0,4.149
9,152,perceptual,0.03,0.05,target,competitor,0,3.464
9,153,perceptual,0.1,0.05,competitor,target,1,2.396
9,154,numeric,0.03,0.05,competitor,target,1,7.006
9,155,numeric,0.03,0.05,target,competitor,0,4.356
9,156,perceptual,0.1,0.05,target,competitor,0,2.947
9,157,numeric,0.03,0.05,target,competitor,0,3.286
9,158,numeric,0.03,0.2,target,competitor,0,3.745
9,159,numeric,0.1,0.05,competitor,target,1,4.13
9,160,perceptual,0.1,0.2,target,competitor,0,2.758
9,161,perceptual,0.1,0.2,target,decoy,0,5.402
9,162,perceptual,0.03,0.05,competitor,target,1,3.214
9,163,perceptual,0.03,0.2,competitor,target,1,4.931
9,164,perceptual,0.1,0.05,competitor,target,1,4.173
9,165,numeric,0.03,0.2,target,target,1,7.023
9,166,numeric,0.1,0.2,competitor,target,1,8.993
9,167,perceptual,0.03,0.05,competitor,target,1,4
9,168,perceptual,0.03,0.2,competitor,target,1,3.009
9,169,numeric,0.03,0.05,target,target,1,5.317
9,170,numeric,0.1,0.05,target,target,1,6.243
9,171,numeric,0.1,0.2,competitor,target,1,5.339
9,172,numeric,0.03,0.2,competitor,target,1,8.736
9,173,perceptual,0.03,0.05,competitor,competitor,0,2.865
9,174,numeric,0.03,0.05,target,target,1,6.713
9,175,numeric,0.1,0.05,competitor,competitor,0,8.658
9,176,perceptual,0.1,0.2,competitor,decoy,0,3.359
9,177,numeric,0.1,0.05,target,decoy,0,7.701
9,178,perceptual,0.03,0.05,competitor,competitor,0,2.238
9,179,numeric,0.1,0.05,target,target,1,9.365
9,180,numeric,0.03,0.05,target,target,1,6.199
9,181,perceptual,0.1,0.2,target,target,1,2.731
9,182,numeric,0.1,0.2,target,target,1,5.206
9,183,numeric,0.1,0.2,target,target,1,8.935
9,184,perceptual,0.03,0.05,competitor,target,1,3.736
9,185,perceptual,0.03,0.2,competitor,target,1,4.534
9,186,numeric,0.03,0.2,target,target,1,4.178
9,187,perceptual,0.03,0.05,target,competitor,0,4.917
9,188,perceptual,0.03,0.05,competitor,decoy,0,5.181
9,189,perceptual,0.1,0.2,target,target,1,4.005
9,190,numeric,0.1,0.2,competitor,target,1,8.136
9,191,numeric,0.03,0.2,competitor,competitor,0,8.123
9,192,numeric,0.03,0.2,competitor,target,1,7.481
10,1,perceptual,0.1,0.05,competitor,target,1,6.122
10,2,perceptual,0.1,0.05,competitor,target,1,6.457
10,3,perceptual,0.03,0.05,target,decoy,0,9.319
10,4,numeric,0.1,0.2,target,target,1,8.163
10,5,perceptual,0.03,0.2,target,target,1,8.829
10,6,perceptual,0.03,0.2,competitor,competitor,0,5.74
10,7,numeric,0.1,0.05,competitor,target,1,5.129
10,8,numeric,0.03,0.05,target,decoy,0,5.691
10,9,perceptual,0.1,0.2,target,target,1,5.718
10,10,perceptual,0.03,0.05,target,target,1,5.843
10,11,perceptual,0.03,0.2,target,competitor,0,4.012
10,12,perceptual,0.1,0.2,target,target,1,4.711
10,13,perceptual,0.1,0.2,target,target,1,6.169
10,14,perceptual,0.1,0.2,competitor,target,1,3.987
10,15,numeric,0.1,0.05,competitor,target,1,4.8
10,16,numeric,0.1,0.2,target,target,1,7.046
10,17,perceptual,0.03,0.2,competitor,target,1,6.062
10,18,numeric,0.1,0.05,competitor,target,1,4.501
10,19,perceptual,0.1,0.2,target,target,1,3.789
10,20,perceptual,0.03,0.05,competitor,target,1,4.861
10,21,numeric,0.03,0.2,competitor,competitor,0,18.293
10,22,numeric,0.03,0.2,target,target,1,4.026
10,23,perceptual,0.1,0.05,competitor,target,1,3.409
10,24,numeric,0.03,0.05,competitor,target,1,6.623
10,25,numeric,0.03,0.2,competitor,competitor,0,9.827
10,26,perceptual,0.1,0.05,target,target,1,6.552
10,27,perceptual,0.1,0.05,competitor,target,1,4.924
10,28,perceptual,0.03,0.2,target,competitor,0,5.264
10,29,perceptual,0.03,0.05,target,competitor,0,5.733
10,30,perceptual,0.03,0.2,competitor,target,1,5.937
10,31,perceptual,0.03,0.05,competitor,target,1,3.364
10,32,perceptual,0.1,0.2,target,target,1,4.54
10,33,numeric,0.03,0.2,competitor,target,1,11.256
10,34,numeric,0.1,0.2,competitor,competitor,0,7.498
10,35,numeric,0.03,0.05,target,target,1,11.188
10,36,numeric,0.03,0.05,target,target,1,2.954
10,37,perceptual,0.1,0.05,target,decoy,0,4.28
10,38,numeric,0.1,0.05,competitor,competitor,0,2.96
10,39,perceptual,0.03,0.05,target,competitor,0,2.952
10,40,numeric,0.03,0.05,competitor,decoy,0,2.457
10,41,perceptual,0.03,0.05,competitor,target,1,2.724
10,42,perceptual,0.03,0.2,target,target,1,3.053
10,43,numeric,0.03,0.2,competitor,competitor,0,12.453
10,44,numeric,0.03,0.2,competitor,competitor,0,6.776
10,45,perceptual,0.1,0.2,competitor,competitor,0,3.167
10,46,numeric,0.03,0.2,target,target,1,6.685
10,47,perceptual,0.03,0.2,competitor,target,1,4.449
10,48,numeric,0.03,0.05,competitor,target,1,13.663
10,49,numeric,0.1,0.05,target,target,1,10.18
10,50,perceptual,0.1,0.2,competitor,competitor,0,7.428
10,51,numeric,0.1,0.2,target,target,1,7.098
10,52,numeric,0.1,0.2,target,target,1,9.213
10,53,numeric,0.03,0.2,target,target,1,6.955
10,54,perceptual,0.1,0.05,competitor,target,1,6.347
10,55,perceptual,0.03,0.05,target,target,1,5.469
10,56,numeric,0.03,0.05,target,target,1,8.285
10,57,perceptual,0.03,0.05,target,target,1,3.477
10,58,numeric,0.03,0.2,target,target,1,7.648
10,59,perceptual,0.03,0.05,target,target,1,7.274
10,60,perceptual,0.1,0.2,competitor,target,1,3.263
10,61,numeric,0.03,0.2,competitor,target,1,4.277
10,62,perceptual,0.1,0.05,target,decoy,0,3.963
10,63,numeric,0.1,0.05,target,target,1,8.112
10,64,numeric,0.03,0.05,target,target,1,8.535
10,65,perceptual,0.03,0.2,competitor,target,1,6.287
10,66,numeric,0.03,0.05,target,target,1,5.842
10,67,numeric,0.03,0.2,target,target,1,8.939
10,68,numeric,0.1,0.2,target,target,1,3.417
10,69,perceptual,0.03,0.05,competitor,competitor,0,2.647
10,70,perceptual,0.1,0.2,target,target,1,2.943
10,71,numeric,0.1,0.05,competitor,target,1,3.679
10,72,perceptual,0.03,0.05,competitor,target,1,4.002
10,73,numeric,0.03,0.05,competitor,decoy,0,5.189
10,74,numeric,0.1,0.2,competitor,target,1,3.028
10,75,numeric,0.1,0.2,competitor,target,1,8.231
10,76,perceptual,0.03,0.05,target,target,1,4.866
10,77,perceptual,0.03,0.05,competitor,target,1,2.78
10,78,perceptual,0.1,0.05,competitor,target,1,3.36
10,79,perceptual,0.03,0.05,competitor,competitor,0,8.94
10,80,perceptual,0.03,0.2,competitor,decoy,0,0.013
10,81,numeric,0.03,0.05,target,target,1,7.011
10,82,numeric,0.1,0.2,target,target,1,6.246
10,83,numeric,0.03,0.05,competitor,target,1,11.199
10,84,numeric,0.03,0.2,target,target,1,3.352
10,85,perceptual,0.1,0.05,target,competitor,0,4.664
10,86,perceptual,0.1,0.05,competitor,target,1,2.968
10,87,numeric,0.1,0.2,target,target,1,3.244
10,88,numeric,0.03,0.2,competitor,target,1,3.455
10,89,numeric,0.1,0.05,target,target,1,8.368
10,90,perceptual,0.03,0.2,target,target,1,3.258
10,91,numeric,0.1,0.2,competitor,competitor,0,9.321
10,92,numeric,0.1,0.2,competitor,decoy,0,3.979
10,93,numeric,0.1,0.05,competitor,competitor,0,8.995
10,94,numeric,0.1,0.05,target,target,1,7.101
10,95,perceptual,0.1,0.05,competitor,target,1,2.725
10,96,numeric,0.03,0.2,target,competitor,0,6.746
10,97,perceptual,0.03,0.2,target,target,1,3.551
10,98,numeric,0.1,0.2,target,target,1,5.14
10,99,numeric,0.1,0.2,target,target,1,3.93
10,100,perceptual,0.03,0.2,competitor,target,1,4.375
10,101,numeric,0.03,0.05,target,target,1,4.895
10,102,perceptual,0.03,0.2,target,competitor,0,4.285
10,103,numeric,0.03,0.2,competitor,competitor,0,6.193
10,104,numeric,0.03,0.2,target,target,1,4.281
10,105,perceptual,0.1,0.2,competitor,target,1,2.853
10,106,perceptual,0.03,0.2,competitor,competitor,0,5.55
10,107,perceptual,0.1,0.05,target,target,1,3.298
10,108,numeric,0.03,0.05,target,target,1,7.537
10,109,perceptual,0.1,0.2,competitor,target,1,3.327
10,110,perceptual,0.1,0.05,competitor,target,1,2.98
10,111,numeric,0.03,0.05,competitor,competitor,0,6.847
10,112,perceptual,0.1,0.2,competitor,target,1,2.818
10,113,numeric,0.1,0.2,competitor,target,1,6.882
10,114,numeric,0.03,0.2,competitor,target,1,5.714
10,115,numeric,0.1,0.2,competitor,target,1,5.317
10,116,numeric,0.03,0.2,competitor,target,1,6.289
10,117,perceptual,0.03,0.2,competitor,competitor,0,3.15
10,118,perceptual,0.03,0.05,target,decoy,0,3.372
10,119,numeric,0.03,0.05,competitor,target,1,4.315
10,120,perceptual,0.03,0.2,target,competitor,0,6.113
10,121,numeric,0.1,0.2,target,target,1,12.156
10,122,numeric,0.1,0.05,competitor,target,1,7.315
10,123,numeric,0.03,0.05,target,target,1,8.351
10,124,perceptual,0.1,0.2,competitor,competitor,0,2.823
10,125,numeric,0.03,0.2,target,target,1,7.491
10,126,perceptual,0.03,0.05,competitor,competitor,0,3.515
10,127,numeric,0.03,0.2,competitor,target,1,7.679
10,128,numeric,0.1,0.05,competitor,target,1,7.292
10,129,perceptual,0.03,0.2,competitor,competitor,0,3.195
10,130,numeric,0.1,0.05,target,target,1,6.213
10,131,perceptual,0.03,0.2,competitor,target,1,3.469
10,132,numeric,0.03,0.05,competitor,target,1,6.151
10,133,perceptual,0.1,0.2,target,target,1,3.499
10,134,perceptual,0.03,0.05,target,competitor,0,3.249
10,135,perceptual,0.1,0.2,target,target,1,4.059
10,136,numeric,0.1,0.05,competitor,target,1,6.179
10,137,numeric,0.1,0.05,target,target,1,7.03
10,138,numeric,0.1,0.05,target,target,1,6.168
10,139,perceptual,0.1,0.2,target,target,1,3.228
10,140,perceptual,0.1,0.05,target,target,1,5.471
10,141,perceptual,0.1,0.05,competitor,target,1,4.547
10,142,numeric,0.1,0.2,competitor,target,1,6.467
10,143,perceptual,0.1,0.2,competitor,competitor,0,3.044
10,144,perceptual,0.1,0.2,competitor,target,1,2.582
10,145,numeric,0.1,0.05,competitor,target,1,5.359
10,146,numeric,0.03,0.2,competitor,competitor,0,4.819
10,147,numeric,0.1,0.2,competitor,target,1,6.486
10,148,perceptual,0.1,0.05,competitor,target,1,2.694
10,149,perceptual,0.1,0.05,competitor,target,1,6.824
10,150,numeric,0.1,0.05,target,target,1,8.516
10,151,perceptual,0.1,0.05,target,target,1,7.75
10,152,numeric,0.03,0.05,target,target,1,7.157
10,153,numeric,0.03,0.05,competitor,target,1,5.719
10,154,perceptual,0.03,0.05,target,target,1,3.052
10,155,perceptual,0.1,0.2,target,target,1,3.469
10,156,perceptual,0.1,0.05,target,decoy,0,2.825
10,157,perceptual,0.1,0.05,target,target,1,5.048
10,158,numeric,0.1,0.05,target,target,1,8.923
10,159,numeric,0.1,0.05,target,target,1,9.438
10,160,numeric,0.1,0.05,competitor,target,1,5.91
10,161,numeric,0.03,0.05,competitor,competitor,0,10.128
10,162,perceptual,0.03,0.2,target,target,1,3.742
10,163,numeric,0.1,0.2,target,target,1,7.849
10,164,numeric,0.1,0.05,competitor,competitor,0,4.864
10,165,perceptual,0.03,0.05,competitor,target,1,5.506
10,166,numeric,0.03,0.2,target,competitor,0,4.405
10,167,perceptual,0.1,0.2,target,target,1,8.487
10,168,numeric,0.03,0.05,competitor,target,1,6.966
10,169,numeric,0.1,0.05,target,target,1,7.565
10,170,numeric,0.1,0.2,competitor,target,1,7.974
10,171,numeric,0.03,0.2,target,target,1,8.07
10,172,perceptual,0.1,0.05,target,target,1,4.257
10,173,perceptual,0.03,0.05,competitor,target,1,3.913
10,174,numeric,0.03,0.2,target,competitor,0,8.859
10,175,numeric,0.1,0.2,target,target,1,12.934
10,176,perceptual,0.03,0.05,competitor,competitor,0,3.289
10,177,numeric,0.1,0.2,competitor,target,1,7.645
10,178,perceptual,0.1,0.2,competitor,competitor,0,2.594
10,179,perceptual,0.1,0.05,target,target,1,3.845
10,180,numeric,0.1,0.05,target,target,1,11.397
10,181,perceptual,0.03,0.2,target,competitor,0,3.115
10,182,perceptual,0.1,0.2,competitor,target,1,5.127
10,183,perceptual,0.1,0.2,target,target,1,3.684
10,184,perceptual,0.03,0.05,competitor,decoy,0,4.358
10,185,perceptual,0.1,0.05,target,decoy,0,3.858
10,186,numeric,0.03,0.05,competitor,competitor,0,19.235
10,187,numeric,0.1,0.2,competitor,target,1,5.314
10,188,perceptual,0.03,0.2,target,competitor,0,2.933
10,189,numeric,0.03,0.05,target,target,1,6.525
10,190,perceptual,0.03,0.2,competitor,target,1,5.159
10,191,perceptual,0.03,0.2,target,target,1,4.334
10,192,perceptual,0.03,0.05,target,competitor,0,5.987
11,1,numeric,0.03,0.05,target,target,1,6.345
11,2,numeric,0.03,0.05,competitor,competitor,0,7.18
11,3,numeric,0.1,0.2,target,target,1,4.658
11,4,perceptual,0.1,0.2,target,target,1,4.168
11,5,numeric,0.1,0.2,target,target,1,5.263
11,6,perceptual,0.03,0.2,target,target,1,3.46
11,7,perceptual,0.03,0.05,target,competitor,0,3.074
11,8,numeric,0.1,0.2,target,target,1,5.573
11,9,perceptual,0.1,0.2,competitor,target,1,3.103
11,10,numeric,0.03,0.05,competitor,competitor,0,5.253
11,11,numeric,0.03,0.2,competitor,competitor,0,8.617
11,12,perceptual,0.03,0.2,target,target,1,4.218
11,13,perceptual,0.03,0.05,competitor,target,1,3.058
11,14,numeric,0.1,0.05,competitor,target,1,9.478
11,15,perceptual,0.1,0.05,target,competitor,0,4.149
11,16,perceptual,0.03,0.05,target,target,1,2.892
11,17,perceptual,0.03,0.2,competitor,competitor,0,2.961
11,18,numeric,0.03,0.2,target,target,1,4.308
11,19,numeric,0.03,0.05,target,target,1,6.61
11,20,numeric,0.03,0.2,competitor,target,1,7.279
11,21,numeric,0.1,0.2,competitor,target,1,8.209
11,22,numeric,0.03,0.05,competitor,target,1,3.872
11,23,perceptual,0.1,0.05,competitor,target,1,4.308
11,24,numeric,0.1,0.05,target,target,1,7.569
11,25,perceptual,0.1,0.2,competitor,target,1,6.6
11,26,perceptual,0.03,0.05,competitor,competitor,0,4.301
11,27,perceptual,0.03,0.05,competitor,decoy,0,4.08
11,28,perceptual,0.03,0.2,competitor,competitor,0,2.912
11,29,perceptual,0.03,0.05,competitor,competitor,0,4.451
11,30,perceptual,0.03,0.2,target,competitor,0,3.295
11,31,perceptual,0.1,0.05,target,target,1,5.795
11,32,numeric,0.03,0.2,target,target,1,7.277
11,33,numeric,0.03,0.05,target,target,1,4.148
11,34,numeric,0.03,0.05,competitor,competitor,0,7.642
11,35,numeric,0.03,0.05,competitor,target,1,10.892
11,36,perceptual,0.03,0.05,target,decoy,0,4.518
11,37,numeric,0.1,0.2,target,target,1,5.065
11,38,numeric,0.1,0.05,target,competitor,0,13.343
11,39,numeric,0.03,0.05,competitor,target,1,7.13
11,40,perceptual,0.03,0.2,target,target,1,4.737
11,41,numeric,0.1,0.2,target,target,1,6.486
11,42,perceptual,0.1,0.2,target,target,1,3.408
11,43,perceptual,0.03,0.05,competitor,target,1,3.985
11,44,perceptual,0.03,0.2,target,competitor,0,3.529
11,45,perceptual,0.1,0.2,competitor,target,1,4.56
11,46,perceptual,0.1,0.05,competitor,target,1,3.158
11,47,perceptual,0.03,0.2,competitor,target,1,2.856
11,48,perceptual,0.1,0.05,target,target,1,5.713
11,49,numeric,0.1,0.2,competitor,target,1,5.818
11,50,numeric,0.03,0.2,target,competitor,0,6.392
11,51,perceptual,0.03,0.2,competitor,target,1,3.208
11,52,numeric,0.1,0.05,target,target,1,9.806
11,53,numeric,0.03,0.2,target,competitor,0,6.559
11,54,numeric,0.1,0.05,competitor,target,1,4.423
11,55,numeric,0.03,0.2,target,competitor,0,3.347
11,56,numeric,0.1,0.2,target,target,1,8.4
11,57,perceptual,0.03,0.05,target,target,1,5.637
11,58,numeric,0.03,0.05,target,competitor,0,6.771
11,59,numeric,0.1,0.2,competitor,target,1,7.667
11,60,numeric,0.1,0.05,target,target,1,7.357
11,61,numeric,0.1,0.05,competitor,target,1,8.947
11,62,perceptual,0.03,0.2,competitor,competitor,0,3.798
11,63,perceptual,0.03,0.2,competitor,competitor,0,2.857
11,64,numeric,0.1,0.05,target,target,1,5.992
11,65,perceptual,0.03,0.05,competitor,target,1,4.409
11,66,perceptual,0.1,0.05,competitor,target,1,5.318
11,67,numeric,0.03,0.2,competitor,target,1,6.255
11,68,numeric,0.1,0.05,competitor,target,1,4.573
11,69,perceptual,0.03,0.05,target,target,1,5.128
11,70,perceptual,0.1,0.2,target,target,1,4.307
11,71,perceptual,0.03,0.05,competitor,target,1,3.151
11,72,perceptual,0.03,0.2,competitor,target,1,5.027
11,73,numeric,0.1,0.2,target,target,1,8.835
11,74,perceptual,0.03,0.2,competitor,competitor,0,3.072
11,75,numeric,0.1,0.2,target,target,1,12.99
11,76,perceptual,0.1,0.05,competitor,target,1,3.265
11,77,numeric,0.1,0.2,target,target,1,6.917
11,78,numeric,0.03,0.05,target,target,1,6.308
11,79,perceptual,0.03,0.2,target,competitor,0,5.436
11,80,perceptual,0.03,0.05,target,decoy,0,4.589
11,81,numeric,0.03,0.05,target,target,1,7.436
11,82,numeric,0.03,0.2,competitor,target,1,6.173
11,83,perceptual,0.1,0.05,target,target,1,6.893
11,84,perceptual,0.1,0.05,target,target,1,3.451
11,85,numeric,0.1,0.2,competitor,target,1,7.064
11,86,perceptual,0.1,0.2,competitor,target,1,2.614
11,87,numeric,0.03,0.2,target,target,1,8.253
11,88,perceptual,0.1,0.05,competitor,target,1,3.836
11,89,perceptual,0.1,0.05,competitor,competitor,0,5.792
11,90,perceptual,0.1,0.2,target,target,1,4.101
11,91,perceptual,0.1,0.2,competitor,target,1,3.16
11,92,perceptual,0.03,0.05,target,competitor,0,4.209
11,93,numeric,0.1,0.2,target,target,1,6.581
11,94,perceptual,0.1,0.2,target,target,1,4.357
11,95,numeric,0.03,0.2,competitor,target,1,6.997
11,96,numeric,0.03,0.2,target,target,1,8.943
11,97,numeric,0.1,0.2,target,competitor,0,8.516
11,98,perceptual,0.03,0.05,competitor,target,1,6.114
11,99,numeric,0.1,0.2,competitor,target,1,5.262
11,100,numeric,0.03,0.2,competitor,competitor,0,10.726
11,101,numeric,0.03,0.2,target,target,1,10.633
11,102,numeric,0.1,0.2,competitor,target,1,6.816
11,103,perceptual,0.1,0.2,target,target,1,5.325
11,104,numeric,0.1,0.05,competitor,target,1,6.907
11,105,numeric,0.03,0.2,competitor,target,1,8.034
11,106,numeric,0.1,0.05,competitor,target,1,5.652
11,107,perceptual,0.03,0.2,target,target,1,5.1
11,108,perceptual,0.1,0.05,target,target,1,7.212
11,109,perceptual,0.03,0.2,target,target,1,5.835
11,110,perceptual,0.1,0.05,competitor,competitor,0,3.603
11,111,perceptual,0.1,0.05,target,decoy,0,4.16
11,112,perceptual,0.03,0.05,target,target,1,3.044
11,113,numeric,0.03,0.2,target,target,1,5.718
11,114,perceptual,0.1,0.05,competitor,target,1,5.55
11,115,numeric,0.1,0.2,competitor,target,1,5.333
11,116,numeric,0.1,0.2,competitor,target,1,4.341
11,117,numeric,0.03,0.05,target,target,1,7.886
11,118,perceptual,0.03,0.05,competitor,target,1,2.992
11,119,perceptual,0.1,0.05,target,target,1,3.056
11,120,perceptual,0.03,0.05,competitor,decoy,0,4.48
11,121,perceptual,0.03,0.05,target,target,1,4.215
11,122,perceptual,0.1,0.05,competitor,target,1,3.009
11,123,numeric,0.03,0.2,competitor,competitor,0,10.119
11,124,perceptual,0.03,0.2,competitor,competitor,0,3.856
11,125,numeric,0.03,0.05,competitor,competitor,0,8.242
11,126,numeric,0.03,0.05,competitor,competitor,0,6.259
11,127,perceptual,0.1,0.2,competitor,target,1,3.64
11,128,numeric,0.1,0.2,target,target,1,7.879
11,129,numeric,0.03,0.05,target,target,1,7.714
11,130,perceptual,0.03,0.2,target,competitor,0,3.241
11,131,numeric,0.1,0.05,competitor,target,1,4.797
11,132,numeric,0.03,0.2,competitor,target,1,8.488
11,133,numeric,0.03,0.2,competitor,target,1,5.266
11,134,perceptual,0.1,0.2,competitor,target,1,3.287
11,135,perceptual,0.03,0.05,competitor,target,1,3.736
11,136,numeric,0.03,0.05,competitor,target,1,8.95
11,137,numeric,0.1,0.05,target,target,1,3.934
11,138,numeric,0.1,0.05,competitor,target,1,9.093
11,139,perceptual,0.1,0.2,competitor,target,1,3.139
11,140,numeric,0.03,0.2,target,target,1,8.025
11,141,numeric,0.1,0.2,competitor,target,1,9.812
11,142,numeric,0.03,0.2,target,target,1,4.783
11,143,perceptual,0.1,0.05,competitor,decoy,0,4.039
11,144,numeric,0.1,0.05,competitor,competitor,0,7.336
11,145,perceptual,0.03,0.05,competitor,competitor,0,4.468
11,146,numeric,0.1,0.2,competitor,target,1,4.507
11,147,perceptual,0.1,0.2,competitor,target,1,3.539
11,148,perceptual,0.03,0.2,target,target,1,5.617
11,149,numeric,0.1,0.2,competitor,decoy,0,9.323
11,150,numeric,0.03,0.05,competitor,target,1,5.336
11,151,perceptual,0.03,0.2,target,target,1,5.192
11,152,numeric,0.03,0.05,target,competitor,0,7.457
11,153,perceptual,0.03,0.2,competitor,target,1,7.085
11,154,numeric,0.03,0.05,competitor,target,1,5.174
11,155,numeric,0.1,0.05,target,target,1,6.203
11,156,perceptual,0.1,0.2,competitor,target,1,3.205
11,157,numeric,0.1,0.05,competitor,target,1,5.635
11,158,perceptual,0.03,0.05,target,target,1,3.499
11,159,perceptual,0.1,0.2,target,target,1,3.011
11,160,numeric,0.03,0.2,competitor,competitor,0,10.401
11,161,numeric,0.03,0.2,target,target,1,6.881
11,162,numeric,0.1,0.05,target,target,1,11.117
11,163,perceptual,0.1,0.2,target,target,1,2.758
11,164,perceptual,0.1,0.2,target,competitor,0,4.757
11,165,perceptual,0.1,0.2,target,competitor,0,3.88
11,166,perceptual,0.1,0.05,target,target,1,5.856
11,167,numeric,0.03,0.05,target,target,1,4.254
11,168,perceptual,0.1,0.05,target,competitor,0,0.152
11,169,perceptual,0.1,0.2,competitor,target,1,3.516
11,170,perceptual,0.1,0.2,target,target,1,5.134
11,171,numeric,0.1,0.05,target,target,1,6.356
11,172,numeric,0.1,0.2,competitor,competitor,0,9.248
11,173,numeric,0.1,0.05,target,target,1,5.011
11,174,numeric,0.1,0.05,target,target,1,5.746
11,175,numeric,0.03,0.05,competitor,competitor,0,12.207
11,176,perceptual,0.1,0.2,target,target,1,4.83
11,177,perceptual,0.03,0.05,target,target,1,4.744
11,178,numeric,0.1,0.05,target,target,1,5.775
11,179,perceptual,0.1,0.05,target,decoy,0,5.254
11,180,perceptual,0.1,0.05,target,target,1,2.71
11,181,numeric,0.1,0.05,competitor,competitor,0,5.277
11,182,perceptual,0.1,0.05,competitor,competitor,0,3.627
11,183,perceptual,0.03,0.05,target,target,1,5.022
11,184,numeric,0.03,0.05,target,competitor,0,9.124
11,185,numeric,0.1,0.05,competitor,target,1,7.653
11,186,perceptual,0.03,0.2,competitor,target,1,3.488
11,187,perceptual,0.1,0.05,competitor,target,1,2.872
11,188,numeric,0.03,0.05,target,competitor,0,8.408
11,189,perceptual,0.03,0.2,target,target,1,3.68
11,190,perceptual,0.03,0.2,competitor,target,1,5.012
11,191,perceptual,0.1,0.2,competitor,target,1,2.718
11,192,numeric,0.03,0.2,competitor,competitor,0,11.096
12,1,numeric,0.1,0.2,competitor,target,1,16.153
12,3,perceptual,0.1,0.2,competitor,competitor,0,5.81
12,4,perceptual,0.03,0.2,competitor,competitor,0,11.914
12,5,perceptual,0.03,0.05,competitor,competitor,0,4.332
12,6,perceptual,0.1,0.2,competitor,decoy,0,3.937
12,7,numeric,0.03,0.05,competitor,target,1,17.067
12,8,numeric,0.03,0.2,target,target,1,6.5
12,9,perceptual,0.03,0.2,target,competitor,0,7.82
12,10,numeric,0.03,0.2,target,target,1,16.066
12,11,perceptual,0.1,0.2,competitor,target,1,14.147
12,12,numeric,0.1,0.05,competitor,target,1,13.785
12,13,perceptual,0.03,0.2,target,decoy,0,3.737
12,14,perceptual,0.1,0.05,competitor,decoy,0,4.78
12,15,perceptual,0.1,0.05,target,target,1,3.681
12,16,perceptual,0.03,0.05,competitor,target,1,6.234
12,17,perceptual,0.03,0.2,competitor,decoy,0,5.38
12,18,numeric,0.03,0.05,target,target,1,10.338
12,19,numeric,0.1,0.2,target,target,1,13.404
12,20,perceptual,0.1,0.2,target,decoy,0,5.566
12,21,perceptual,0.03,0.05,competitor,target,1,8.254
12,22,perceptual,0.03,0.2,competitor,target,1,6.033
12,23,numeric,0.03,0.05,target,target,1,15.33
12,24,numeric,0.03,0.05,competitor,competitor,0,9.299
12,25,perceptual,0.1,0.2,target,decoy,0,6.45
12,26,perceptual,0.1,0.2,target,competitor,0,11.401
12,27,perceptual,0.03,0.2,competitor,competitor,0,4.63
12,28,numeric,0.1,0.2,competitor,competitor,0,14.831
12,29,perceptual,0.03,0.05,target,decoy,0,5.505
12,30,numeric,0.1,0.2,competitor,target,1,10.549
12,31,numeric,0.1,0.2,target,decoy,0,12.25
12,32,numeric,0.03,0.05,target,decoy,0,13.331
12,33,numeric,0.1,0.2,target,target,1,7.403
12,34,perceptual,0.03,0.2,competitor,target,1,5.216
12,35,perceptual,0.03,0.05,target,target,1,8.037
12,36,perceptual,0.1,0.05,target,target,1,3.77
12,37,perceptual,0.1,0.2,competitor,decoy,0,4.773
12,38,numeric,0.03,0.05,target,target,1,11.069
12,39,numeric,0.1,0.05,target,target,1,6.603
12,40,perceptual,0.03,0.2,target,target,1,9.85
12,41,perceptual,0.1,0.2,target,decoy,0,8.333
12,42,perceptual,0.1,0.2,target,decoy,0,6.817
12,43,perceptual,0.03,0.05,competitor,competitor,0,5.986
12,44,perceptual,0.03,0.2,target,decoy,0,6.052
12,45,perceptual,0.1,0.05,target,competitor,0,8.437
12,46,perceptual,0.03,0.2,competitor,target,1,4.95
12,47,perceptual,0.03,0.05,target,decoy,0,5.018
12,48,numeric,0.1,0.2,target,target,1,7.64
12,49,numeric,0.1,0.05,competitor,target,1,6.318
12,50,numeric,0.03,0.2,competitor,target,1,6.699
12,51,numeric,0.03,0.2,competitor,competitor,0,13.521
12,52,perceptual,0.03,0.05,competitor,competitor,0,5.083
12,53,perceptual,0.1,0.05,competitor,target,1,4.5
12,54,perceptual,0.1,0.05,competitor,competitor,0,4.925
12,55,numeric,0.03,0.2,target,competitor,0,18.766
12,56,numeric,0.1,0.05,competitor,target,1,9.548
12,57,numeric,0.03,0.05,competitor,target,1,10.499
12,58,numeric,0.1,0.05,target,target,1,9.248
12,59,numeric,0.1,0.2,target,target,1,11.163
12,60,perceptual,0.03,0.2,competitor,target,1,7.299
12,61,numeric,0.1,0.2,target,decoy,0,14.365
12,62,numeric,0.03,0.05,target,target,1,11.622
12,63,perceptual,0.1,0.05,target,decoy,0,9.983
12,64,numeric,0.03,0.05,competitor,decoy,0,4.951
12,65,perceptual,0.1,0.05,target,target,1,9.494
12,66,numeric,0.03,0.05,target,target,1,6.055
12,67,numeric,0.03,0.2,target,competitor,0,6.599
12,68,numeric,0.03,0.2,competitor,competitor,0,6.269
12,69,perceptual,0.03,0.2,competitor,decoy,0,4.55
12,70,perceptual,0.03,0.05,competitor,competitor,0,4.072
12,71,numeric,0.1,0.05,target,competitor,0,10.865
12,72,numeric,0.1,0.05,competitor,target,1,10.816
12,73,numeric,0.03,0.2,competitor,target,1,10.622
12,74,numeric,0.1,0.2,competitor,target,1,5.737
12,75,perceptual,0.1,0.05,competitor,target,1,5.667
12,76,perceptual,0.03,0.2,target,decoy,0,6.653
12,77,perceptual,0.1,0.2,competitor,decoy,0,5.737
12,78,perceptual,0.03,0.05,competitor,competitor,0,5.135
12,79,numeric,0.1,0.05,target,target,1,10.608
12,80,perceptual,0.1,0.2,competitor,target,1,7.14
12,81,perceptual,0.03,0.2,target,competitor,0,7.97
12,82,perceptual,0.1,0.05,target,competitor,0,17.485
12,83,numeric,0.03,0.2,target,target,1,11.983
12,84,perceptual,0.03,0.05,competitor,competitor,0,6.95
12,86,perceptual,0.1,0.2,competitor,competitor,0,0.208
12,87,numeric,0.1,0.2,target,target,1,8.734
12,88,perceptual,0.1,0.2,competitor,competitor,0,6.098
12,89,perceptual,0.1,0.2,target,decoy,0,6.397
12,90,perceptual,0.1,0.2,target,decoy,0,5.787
12,91,perceptual,0.03,0.2,target,decoy,0,4.986
12,92,numeric,0.03,0.2,competitor,target,1,14.383
12,93,perceptual,0.1,0.2,target,competitor,0,5.123
12,95,numeric,0.1,0.2,target,target,1,5.052
12,96,numeric,0.1,0.05,target,target,1,7.118
12,97,perceptual,0.03,0.2,competitor,decoy,0,5.335
12,98,perceptual,0.03,0.05,target,competitor,0,1.734
12,99,numeric,0.1,0.2,competitor,competitor,0,14.6
12,100,numeric,0.1,0.2,competitor,target,1,16.832
12,101,perceptual,0.03,0.2,target,competitor,0,7.885
12,102,numeric,0.1,0.05,competitor,target,1,9.115
12,103,numeric,0.1,0.2,competitor,competitor,0,10.965
12,104,perceptual,0.1,0.2,competitor,decoy,0,4.899
12,105,perceptual,0.1,0.2,competitor,competitor,0,2.381
12,106,perceptual,0.03,0.2,competitor,competitor,0,2.155
12,107,perceptual,0.1,0.05,competitor,target,1,1.72
12,108,numeric,0.03,0.2,target,competitor,0,7.12
12,109,numeric,0.03,0.2,competitor,target,1,5.716
12,110,perceptual,0.1,0.2,target,target,1,5.085
12,111,perceptual,0.03,0.05,target,competitor,0,4.599
12,112,numeric,0.1,0.05,target,decoy,0,12.035
12,113,perceptual,0.1,0.05,competitor,competitor,0,4.562
12,114,perceptual,0.1,0.05,competitor,decoy,0,4.973
12,115,numeric,0.03,0.05,target,competitor,0,10.081
12,116,numeric,0.03,0.2,competitor,competitor,0,10.364
12,117,perceptual,0.1,0.2,competitor,decoy,0,6.149
12,118,perceptual,0.1,0.05,target,competitor,0,3.287
12,119,numeric,0.03,0.2,competitor,competitor,0,7.569
12,120,numeric,0.03,0.2,competitor,competitor,0,9.234
12,121,numeric,0.03,0.05,target,target,1,9.959
12,122,numeric,0.1,0.05,competitor,competitor,0,7.514
