participant,trial_counter,condition,target_to_competitor,decoy_reduction,decoy_on,chosen_item,correct,rt
1,1,perceptual,0.1,0.2,target,target,1,12.143
1,2,numeric,0.1,0.05,competitor,target,1,8.881
1,3,numeric,0.1,0.2,competitor,target,1,0.244
1,4,perceptual,0.1,0.05,target,target,1,7.187
1,5,perceptual,0.03,0.05,target,target,1,10.422
1,6,numeric,0.1,0.2,target,target,1,6.476
1,7,perceptual,0.03,0.05,competitor,target,1,9.75
1,8,perceptual,0.1,0.05,target,target,1,12.026
1,9,numeric,0.1,0.2,target,target,1,10.14
1,10,perceptual,0.03,0.05,competitor,target,1,11.485
1,11,perceptual,0.03,0.05,target,target,1,15.718
1,12,numeric,0.1,0.05,target,target,1,10.507
1,13,numeric,0.1,0.2,competitor,target,1,8.083
1,14,numeric,0.1,0.05,competitor,target,1,12.734
1,15,numeric,0.03,0.05,target,target,1,7.058
1,16,numeric,0.03,0.2,competitor,target,1,8.274
1,17,numeric,0.1,0.05,competitor,competitor,0,11.845
1,18,perceptual,0.1,0.05,competitor,target,1,7.852
1,19,numeric,0.1,0.2,competitor,competitor,0,13.936
1,20,perceptual,0.1,0.05,target,decoy,0,7.876
1,21,perceptual,0.03,0.05,target,target,1,8.461
1,22,numeric,0.1,0.2,target,target,1,8.799
1,23,perceptual,0.1,0.2,target,target,1,3.488
1,24,perceptual,0.03,0.2,target,competitor,0,3.836
1,25,perceptual,0.03,0.05,competitor,decoy,0,8.185
1,26,perceptual,0.03,0.2,target,competitor,0,3.271
1,27,perceptual,0.1,0.2,competitor,target,1,5.893
1,28,numeric,0.03,0.05,competitor,target,1,9.839
1,29,numeric,0.1,0.2,target,target,1,14.286
1,30,numeric,0.03,0.05,competitor,target,1,13.332
1,31,perceptual,0.1,0.2,target,target,1,7.745
1,32,numeric,0.03,0.2,competitor,competitor,0,7.709
1,33,numeric,0.1,0.2,competitor,competitor,0,16.957
1,34,perceptual,0.03,0.2,target,competitor,0,3.979
1,35,perceptual,0.03,0.05,target,competitor,0,7.81
1,36,numeric,0.03,0.05,target,decoy,0,9.192
1,37,perceptual,0.03,0.05,target,target,1,16.839
1,38,perceptual,0.03,0.2,competitor,target,1,8.445
1,39,perceptual,0.1,0.05,target,target,1,5.211
1,40,perceptual,0.03,0.2,competitor,target,1,3.914
1,41,perceptual,0.03,0.05,competitor,target,1,8.442
1,42,numeric,0.03,0.2,target,target,1,9.175
1,43,numeric,0.03,0.2,target,target,1,6.846
1,44,perceptual,0.03,0.2,competitor,target,1,4.45
1,45,numeric,0.1,0.05,target,target,1,5.209
1,46,perceptual,0.03,0.05,competitor,target,1,2.83
1,47,numeric,0.03,0.05,target,target,1,15.521
1,48,perceptual,0.1,0.05,competitor,target,1,7.562
1,49,perceptual,0.1,0.05,target,target,1,6.757
1,50,numeric,0.03,0.2,target,target,1,4.955
1,51,numeric,0.1,0.05,target,target,1,6.464
1,52,numeric,0.1,0.05,target,target,1,6.596
1,53,numeric,0.1,0.2,competitor,target,1,8.433
1,54,numeric,0.03,0.2,target,target,1,9.131
1,55,numeric,0.1,0.2,competitor,target,1,9.647
1,56,numeric,0.1,0.05,competitor,target,1,18.545
1,57,numeric,0.03,0.05,target,target,1,6.5
1,58,numeric,0.03,0.05,competitor,competitor,0,12.649
1,59,perceptual,0.1,0.2,target,target,1,6.824
1,60,perceptual,0.03,0.2,competitor,target,1,3.234
1,61,perceptual,0.03,0.2,target,target,1,3.786
1,62,perceptual,0.03,0.2,target,target,1,4.422
1,63,perceptual,0.1,0.2,target,target,1,6.841
1,64,numeric,0.03,0.2,target,target,1,11.359
1,65,perceptual,0.1,0.2,competitor,target,1,6.258
1,66,perceptual,0.1,0.05,competitor,target,1,2.82
1,67,perceptual,0.1,0.05,target,decoy,0,3.781
1,68,perceptual,0.1,0.2,target,competitor,0,6.626
1,69,numeric,0.1,0.2,competitor,target,1,17.786
1,70,perceptual,0.03,0.2,target,target,1,5.683
1,71,perceptual,0.03,0.2,competitor,competitor,0,2.207
1,72,perceptual,0.03,0.05,competitor,target,1,3.031
1,73,numeric,0.03,0.05,competitor,competitor,0,5.904
1,74,perceptual,0.03,0.05,target,target,1,6.546
1,75,perceptual,0.03,0.2,target,target,1,3.444
1,76,perceptual,0.1,0.05,competitor,competitor,0,5.974
1,77,perceptual,0.1,0.2,competitor,target,1,8.102
1,78,numeric,0.03,0.05,target,target,1,12.131
1,79,numeric,0.1,0.2,competitor,target,1,8.494
1,80,perceptual,0.03,0.2,competitor,competitor,0,4.853
1,81,perceptual,0.03,0.05,target,target,1,5.844
1,82,perceptual,0.1,0.2,target,target,1,4.177
1,83,perceptual,0.1,0.2,competitor,competitor,0,3.639
1,84,perceptual,0.03,0.05,competitor,target,1,6.048
1,85,perceptual,0.1,0.05,competitor,target,1,3.093
1,86,numeric,0.1,0.2,target,target,1,11.754
1,87,perceptual,0.1,0.05,competitor,target,1,3.054
1,88,numeric,0.1,0.2,competitor,competitor,0,15.756
1,89,perceptual,0.1,0.05,target,target,1,4.394
1,90,numeric,0.1,0.05,competitor,target,1,11.887
1,91,perceptual,0.1,0.2,competitor,decoy,0,2.787
1,92,numeric,0.03,0.05,target,target,1,5.798
1,93,numeric,0.1,0.2,target,target,1,7.484
1,94,perceptual,0.03,0.2,competitor,target,1,2.54
1,95,numeric,0.1,0.05,target,target,1,4.915
1,97,numeric,0.03,0.05,competitor,competitor,0,6.804
1,98,numeric,0.1,0.05,competitor,target,1,10.048
1,99,perceptual,0.1,0.05,competitor,competitor,0,3.904
1,100,perceptual,0.03,0.05,target,decoy,0,2.861
1,101,perceptual,0.03,0.05,competitor,decoy,0,4.19
1,102,numeric,0.1,0.2,target,target,1,15.084
1,103,perceptual,0.03,0.05,competitor,competitor,0,6.896
1,104,numeric,0.03,0.05,target,target,1,7.849
1,105,numeric,0.1,0.05,competitor,target,1,7.761
1,106,numeric,0.03,0.2,competitor,target,1,5.833
1,107,numeric,0.1,0.05,target,target,1,4.749
1,108,perceptual,0.1,0.2,target,decoy,0,2.576
1,109,numeric,0.03,0.05,competitor,competitor,0,11.529
1,110,numeric,0.1,0.05,target,target,1,7.702
1,111,numeric,0.1,0.05,competitor,target,1,7.478
1,112,numeric,0.03,0.2,competitor,competitor,0,8.61
1,113,numeric,0.1,0.2,target,target,1,8.503
1,114,perceptual,0.03,0.2,target,competitor,0,5.042
1,115,perceptual,0.1,0.05,competitor,target,1,3.669
1,116,numeric,0.03,0.2,target,target,1,4.462
1,117,perceptual,0.03,0.2,target,competitor,0,5.45
1,118,numeric,0.1,0.05,target,target,1,4.943
1,119,numeric,0.03,0.05,competitor,competitor,0,7.631
1,120,numeric,0.03,0.2,competitor,competitor,0,8.372
1,121,numeric,0.1,0.2,target,target,1,11.084
1,122,numeric,0.1,0.2,target,target,1,6.171
1,123,numeric,0.03,0.2,target,target,1,9.631
1,124,numeric,0.1,0.2,competitor,target,1,16.086
1,125,numeric,0.1,0.2,target,target,1,7.109
1,126,perceptual,0.03,0.2,competitor,target,1,5.229
1,127,numeric,0.03,0.05,target,target,1,10.665
1,128,numeric,0.03,0.2,target,target,1,11.821
1,129,numeric,0.03,0.05,competitor,target,1,6.179
1,130,numeric,0.03,0.2,competitor,competitor,0,9.813
1,131,perceptual,0.03,0.05,competitor,competitor,0,6.691
1,132,numeric,0.1,0.2,competitor,competitor,0,16.608
1,133,perceptual,0.1,0.05,competitor,competitor,0,3.38
1,134,numeric,0.1,0.05,target,target,1,13.914
1,135,numeric,0.1,0.05,target,target,1,8.376
1,136,perceptual,0.03,0.2,target,target,1,4.585
1,137,numeric,0.03,0.05,target,target,1,5.312
1,138,numeric,0.03,0.05,target,target,1,8.647
1,139,numeric,0.03,0.2,target,target,1,7.472
1,140,perceptual,0.1,0.2,competitor,target,1,7.756
1,141,perceptual,0.1,0.2,target,target,1,5.496
1,142,perceptual,0.03,0.2,target,competitor,0,3.91
1,143,perceptual,0.1,0.05,competitor,target,1,6.129
1,144,numeric,0.03,0.05,target,target,1,9.027
1,145,perceptual,0.03,0.05,target,target,1,6.344
1,146,numeric,0.03,0.2,competitor,target,1,10.446
1,147,perceptual,0.1,0.2,competitor,competitor,0,2.529
1,148,numeric,0.03,0.2,competitor,competitor,0,16.998
1,149,perceptual,0.1,0.05,target,target,1,7.166
1,150,numeric,0.03,0.2,target,target,1,6.82
1,151,numeric,0.1,0.05,competitor,target,1,8.287
1,152,numeric,0.03,0.05,competitor,competitor,0,11.67
1,153,numeric,0.1,0.05,target,target,1,11.467
1,154,perceptual,0.1,0.2,competitor,target,1,4.332
1,155,numeric,0.1,0.05,competitor,competitor,0,10.213
1,156,numeric,0.1,0.05,competitor,competitor,0,13.783
1,157,perceptual,0.1,0.2,competitor,target,1,3.057
1,158,perceptual,0.1,0.2,competitor,target,1,2.079
1,159,numeric,0.03,0.05,competitor,competitor,0,8.892
1,160,perceptual,0.1,0.05,competitor,target,1,4.477
1,161,perceptual,0.1,0.2,competitor,target,1,6.128
1,162,numeric,0.03,0.05,competitor,competitor,0,9.487
1,163,perceptual,0.1,0.2,competitor,target,1,3.694
1,164,perceptual,0.03,0.05,target,competitor,0,6.273
1,165,numeric,0.1,0.2,target,target,1,7.62
1,166,perceptual,0.03,0.2,competitor,competitor,0,7.075
1,167,numeric,0.03,0.2,target,target,1,12.224
1,168,perceptual,0.03,0.2,competitor,competitor,0,3.91
1,169,numeric,0.1,0.05,target,target,1,5.766
1,170,perceptual,0.1,0.2,target,target,1,3.619
1,171,perceptual,0.1,0.05,target,target,1,3.604
1,172,numeric,0.1,0.05,competitor,target,1,6.692
1,173,perceptual,0.03,0.05,competitor,target,1,9.395
1,174,perceptual,0.1,0.05,target,target,1,8.45
1,175,perceptual,0.03,0.2,competitor,competitor,0,6.488
1,176,perceptual,0.1,0.05,target,target,1,7.568
1,177,perceptual,0.1,0.2,target,target,1,7.153
1,178,perceptual,0.1,0.2,target,target,1,7.473
1,179,numeric,0.03,0.05,target,target,1,7.434
1,180,perceptual,0.03,0.05,target,target,1,10.313
1,181,numeric,0.03,0.2,competitor,target,1,5.948
1,182,numeric,0.03,0.2,competitor,competitor,0,12.79
1,183,numeric,0.03,0.05,competitor,target,1,14.299
1,184,numeric,0.03,0.2,target,target,1,11.607
1,185,perceptual,0.03,0.2,target,target,1,3.302
1,186,perceptual,0.03,0.05,competitor,competitor,0,7.935
1,187,perceptual,0.03,0.05,target,target,1,2.238
1,188,perceptual,0.1,0.05,target,target,1,5.305
1,189,numeric,0.03,0.2,competitor,competitor,0,11.276
1,190,perceptual,0.03,0.2,competitor,decoy,0,12.549
1,191,numeric,0.03,0.2,competitor,competitor,0,7.833
1,192,perceptual,0.1,0.05,competitor,competitor,0,9.483
2,1,numeric,0.03,0.2,target,target,1,10.965
2,2,perceptual,0.1,0.2,competitor,target,1,8.971
2,3,numeric,0.1,0.05,target,target,1,13.252
2,4,numeric,0.03,0.2,competitor,target,1,9.765
2,5,perceptual,0.03,0.2,competitor,competitor,0,10.256
2,6,numeric,0.1,0.05,competitor,competitor,0,8.271
2,7,numeric,0.1,0.05,competitor,target,1,7.454
2,8,perceptual,0.1,0.2,competitor,target,1,11.149
2,9,numeric,0.1,0.05,competitor,target,1,12.038
2,10,perceptual,0.03,0.05,target,target,1,7.186
2,11,perceptual,0.1,0.2,target,target,1,4.613
2,12,numeric,0.1,0.2,competitor,competitor,0,16.442
2,13,numeric,0.03,0.2,target,target,1,12.275
2,14,perceptual,0.03,0.05,target,competitor,0,12.111
2,15,numeric,0.1,0.2,target,target,1,12.085
2,16,numeric,0.1,0.05,target,decoy,0,6.387
2,17,perceptual,0.1,0.05,target,target,1,10.581
2,18,numeric,0.03,0.2,competitor,competitor,0,12.783
2,19,perceptual,0.03,0.2,competitor,decoy,0,12.146
2,20,numeric,0.1,0.05,competitor,target,1,7.13
2,21,numeric,0.1,0.2,competitor,target,1,10.137
2,22,numeric,0.03,0.2,competitor,competitor,0,14.783
2,23,perceptual,0.1,0.2,target,target,1,4.876
2,24,perceptual,0.03,0.05,target,competitor,0,5.776
2,25,perceptual,0.03,0.05,competitor,competitor,0,7.112
2,26,perceptual,0.03,0.2,target,target,1,8.65
2,27,numeric,0.1,0.05,competitor,competitor,0,13.785
2,28,perceptual,0.1,0.2,target,target,1,5.298
2,29,perceptual,0.03,0.05,target,decoy,0,14.091
2,30,perceptual,0.03,0.05,target,target,1,6.063
2,31,numeric,0.03,0.05,target,target,1,8.227
2,32,perceptual,0.03,0.05,target,target,1,7.758
2,33,numeric,0.1,0.2,competitor,target,1,14.233
2,34,perceptual,0.1,0.2,target,target,1,6.419
2,35,perceptual,0.1,0.2,competitor,target,1,14.23
2,36,numeric,0.03,0.05,competitor,competitor,0,12.578
2,37,numeric,0.1,0.05,competitor,target,1,14.667
2,38,perceptual,0.1,0.05,competitor,competitor,0,7.5
2,39,perceptual,0.1,0.2,target,target,1,13.504
2,40,perceptual,0.03,0.2,competitor,competitor,0,11.125
2,41,perceptual,0.1,0.2,target,target,1,13.476
2,42,perceptual,0.03,0.05,competitor,target,1,14.069
2,43,perceptual,0.03,0.2,competitor,target,1,9.42
2,44,perceptual,0.1,0.05,target,competitor,0,14.904
2,45,perceptual,0.1,0.05,target,target,1,16.282
2,46,perceptual,0.1,0.05,competitor,target,1,11.407
2,47,perceptual,0.03,0.05,competitor,target,1,14.44
2,48,perceptual,0.03,0.2,competitor,competitor,0,10.581
2,49,perceptual,0.1,0.2,target,target,1,5.73
2,50,numeric,0.1,0.05,target,target,1,8.191
2,51,numeric,0.03,0.05,competitor,competitor,0,8.854
2,52,numeric,0.03,0.05,target,target,1,11.298
2,54,perceptual,0.03,0.05,target,target,1,6.265
2,55,perceptual,0.03,0.2,competitor,target,1,7.453
2,56,numeric,0.03,0.2,target,target,1,4.544
2,57,numeric,0.03,0.05,target,target,1,8.816
2,58,numeric,0.1,0.05,target,target,1,5.316
2,59,numeric,0.03,0.05,target,target,1,6.903
2,60,perceptual,0.03,0.2,competitor,competitor,0,6.034
2,61,numeric,0.03,0.05,competitor,competitor,0,6.623
2,62,numeric,0.1,0.05,target,target,1,11.322
2,63,perceptual,0.03,0.05,target,target,1,8.424
2,64,perceptual,0.03,0.05,competitor,competitor,0,19.559
2,65,numeric,0.1,0.05,target,target,1,6.702
2,66,perceptual,0.1,0.05,target,target,1,5.319
2,67,perceptual,0.1,0.2,competitor,competitor,0,6.521
2,68,perceptual,0.1,0.05,target,target,1,9.292
2,69,numeric,0.1,0.2,competitor,target,1,10.172
2,70,perceptual,0.1,0.05,target,decoy,0,8.494
2,71,perceptual,0.1,0.05,competitor,target,1,6.805
2,72,numeric,0.03,0.2,competitor,target,1,8.375
2,73,perceptual,0.1,0.2,target,competitor,0,15.09
2,74,perceptual,0.03,0.05,competitor,target,1,9.836
2,75,perceptual,0.03,0.05,competitor,decoy,0,5.654
2,76,numeric,0.1,0.2,target,target,1,5.76
2,77,perceptual,0.1,0.2,competitor,target,1,11.818
2,78,perceptual,0.03,0.2,competitor,competitor,0,5.538
2,79,numeric,0.1,0.05,target,target,1,8.315
2,80,perceptual,0.1,0.2,competitor,target,1,5.76
2,81,numeric,0.1,0.2,target,target,1,6.779
2,82,numeric,0.1,0.2,target,target,1,8.741
2,83,perceptual,0.03,0.05,competitor,decoy,0,16.136
2,84,perceptual,0.03,0.2,target,target,1,7.807
2,85,perceptual,0.03,0.2,target,target,1,11.503
2,86,numeric,0.1,0.05,competitor,target,1,11.493
2,87,numeric,0.03,0.2,target,target,1,6.108
2,88,numeric,0.03,0.2,target,competitor,0,5.81
2,89,perceptual,0.1,0.2,competitor,competitor,0,7.293
2,90,numeric,0.1,0.05,competitor,target,1,9.624
2,91,perceptual,0.03,0.2,target,target,1,3.735
2,92,numeric,0.03,0.2,competitor,competitor,0,13.843
2,93,numeric,0.03,0.2,target,target,1,6.393
2,94,perceptual,0.03,0.2,target,target,1,5.885
2,95,perceptual,0.1,0.2,target,target,1,13.522
2,96,numeric,0.1,0.05,target,target,1,10.726
2,97,perceptual,0.1,0.2,target,competitor,0,19.08
2,98,numeric,0.03,0.2,competitor,target,1,5.141
2,99,numeric,0.1,0.2,target,target,1,18.341
2,100,numeric,0.03,0.05,competitor,target,1,5.576
2,101,numeric,0.1,0.05,competitor,target,1,7.157
2,102,perceptual,0.03,0.05,target,target,1,7.766
2,103,numeric,0.1,0.05,target,target,1,8.352
2,104,numeric,0.03,0.05,target,target,1,9.185
2,105,numeric,0.03,0.2,target,target,1,7.62
2,106,numeric,0.1,0.2,competitor,competitor,0,6.298
2,107,numeric,0.1,0.2,target,target,1,6.444
2,108,perceptual,0.1,0.2,competitor,target,1,5.32
2,109,numeric,0.03,0.05,competitor,competitor,0,6.15
2,110,numeric,0.03,0.05,competitor,target,1,10.644
2,111,numeric,0.1,0.05,competitor,competitor,0,10.143
2,112,perceptual,0.1,0.05,target,target,1,5.597
2,113,numeric,0.03,0.05,target,target,1,13.829
2,114,perceptual,0.1,0.05,competitor,competitor,0,7.154
2,115,perceptual,0.1,0.05,target,target,1,9.107
2,116,numeric,0.03,0.05,target,target,1,5.357
2,117,perceptual,0.03,0.05,competitor,competitor,0,8.552
2,118,numeric,0.03,0.2,competitor,competitor,0,3.673
2,119,numeric,0.1,0.2,competitor,competitor,0,6.59
2,120,numeric,0.1,0.2,target,target,1,9.065
2,121,perceptual,0.1,0.05,target,target,1,6.591
2,122,numeric,0.03,0.2,competitor,target,1,9.79
2,123,numeric,0.03,0.2,target,target,1,8.651
2,124,perceptual,0.1,0.05,competitor,target,1,7.938
2,125,numeric,0.03,0.05,competitor,competitor,0,10.746
2,126,perceptual,0.03,0.05,competitor,target,1,12.032
2,127,numeric,0.1,0.2,target,target,1,5.095
2,128,perceptual,0.03,0.05,target,target,1,8.736
2,129,perceptual,0.1,0.05,competitor,target,1,4.633
2,130,numeric,0.03,0.2,target,competitor,0,6.545
2,131,perceptual,0.1,0.2,competitor,competitor,0,4.492
2,132,perceptual,0.1,0.2,target,target,1,4.286
2,133,perceptual,0.1,0.05,competitor,target,1,5.863
2,134,numeric,0.03,0.2,target,target,1,5.194
2,135,perceptual,0.03,0.2,competitor,decoy,0,7.03
2,136,perceptual,0.03,0.2,target,target,1,9.023
2,137,perceptual,0.1,0.05,target,target,1,7.763
2,138,numeric,0.03,0.2,competitor,target,1,8.929
2,139,numeric,0.03,0.05,target,target,1,4.95
2,140,perceptual,0.03,0.05,target,target,1,4.696
2,141,perceptual,0.03,0.05,target,target,1,5.272
2,142,perceptual,0.1,0.05,competitor,target,1,17.729
2,143,numeric,0.1,0.2,competitor,competitor,0,5.929
2,144,numeric,0.03,0.2,target,target,1,5.741
2,145,perceptual,0.1,0.05,competitor,target,1,5.555
2,146,numeric,0.03,0.05,competitor,competitor,0,4.956
2,147,perceptual,0.03,0.2,target,competitor,0,5.904
2,148,numeric,0.1,0.2,competitor,target,1,4.013
2,149,numeric,0.1,0.2,competitor,competitor,0,6.052
2,150,numeric,0.03,0.05,target,competitor,0,5.344
2,151,perceptual,0.03,0.2,competitor,competitor,0,4.249
2,152,numeric,0.1,0.2,competitor,target,1,7.832
2,153,numeric,0.1,0.2,target,target,1,5.188
2,154,numeric,0.1,0.05,competitor,competitor,0,5.479
2,155,numeric,0.03,0.05,target,target,1,11.435
2,156,numeric,0.1,0.2,competitor,target,1,5.075
2,157,numeric,0.1,0.05,competitor,target,1,7.84
2,158,perceptual,0.1,0.05,competitor,competitor,0,6.792
2,159,perceptual,0.1,0.05,competitor,competitor,0,5.556
2,160,numeric,0.1,0.05,target,target,1,5.822
2,161,perceptual,0.03,0.2,target,target,1,5.157
2,162,numeric,0.1,0.2,target,target,1,4.947
2,163,numeric,0.03,0.05,competitor,competitor,0,3.899
2,164,perceptual,0.03,0.2,target,target,1,4.49
2,165,perceptual,0.1,0.05,target,target,1,5.257
2,166,perceptual,0.1,0.2,competitor,target,1,3.108
2,167,perceptual,0.03,0.2,target,target,1,3.209
2,168,perceptual,0.1,0.05,competitor,target,1,3.603
2,169,numeric,0.03,0.05,competitor,competitor,0,4.712
2,170,perceptual,0.03,0.05,competitor,target,1,8.226
2,171,perceptual,0.1,0.2,competitor,target,1,13.432
2,172,numeric,0.03,0.05,competitor,target,1,5.916
2,173,perceptual,0.1,0.05,target,target,1,10.833
2,174,numeric,0.03,0.2,target,target,1,4.647
2,175,numeric,0.03,0.2,competitor,competitor,0,7.476
2,176,numeric,0.03,0.05,competitor,target,1,6.479
2,177,numeric,0.1,0.2,target,target,1,4.385
2,178,numeric,0.03,0.05,target,target,1,7.531
2,179,perceptual,0.03,0.2,target,target,1,7.736
2,180,numeric,0.1,0.2,target,target,1,5.734
2,181,perceptual,0.03,0.05,competitor,target,1,4.529
2,182,numeric,0.1,0.05,target,decoy,0,5.006
2,183,numeric,0.03,0.05,target,target,1,5.954
2,184,perceptual,0.1,0.2,competitor,target,1,3.246
2,185,numeric,0.1,0.05,target,target,1,5.844
2,186,perceptual,0.03,0.2,competitor,target,1,5.335
2,187,perceptual,0.1,0.2,target,target,1,4.467
2,188,numeric,0.03,0.2,competitor,target,1,13.695
2,189,perceptual,0.03,0.2,target,target,1,5.171
2,190,perceptual,0.03,0.2,competitor,target,1,9.965
2,191,numeric,0.1,0.2,competitor,target,1,5.695
2,192,numeric,0.03,0.2,competitor,competitor,0,7.478
3,1,perceptual,0.03,0.2,competitor,target,1,17.728
3,2,perceptual,0.1,0.2,target,target,1,3.961
3,3,numeric,0.03,0.2,target,target,1,5.274
3,4,numeric,0.1,0.05,target,target,1,8.485
3,5,perceptual,0.1,0.05,target,decoy,0,4.29
3,6,perceptual,0.03,0.2,target,target,1,4.299
3,7,perceptual,0.03,0.05,competitor,target,1,5.362
3,8,numeric,0.03,0.05,target,competitor,0,12.849
3,9,numeric,0.1,0.2,target,competitor,0,6.655
3,10,perceptual,0.03,0.05,target,target,1,6.202
3,11,perceptual,0.1,0.05,target,decoy,0,7.08
3,12,perceptual,0.03,0.05,target,target,1,6.301
3,13,numeric,0.03,0.05,target,competitor,0,9.566
3,14,perceptual,0.03,0.2,competitor,target,1,12.461
3,15,numeric,0.1,0.05,competitor,target,1,9.969
3,16,numeric,0.1,0.2,competitor,competitor,0,9.597
3,17,perceptual,0.03,0.05,target,competitor,0,7.187
3,18,numeric,0.1,0.05,competitor,target,1,8.749
3,19,perceptual,0.1,0.2,target,target,1,7.39
3,20,numeric,0.03,0.05,target,decoy,0,4.537
3,21,numeric,0.03,0.2,target,target,1,6.561
3,22,numeric,0.03,0.05,target,target,1,10.946
3,23,perceptual,0.1,0.2,competitor,target,1,4.183
3,24,perceptual,0.1,0.05,competitor,target,1,5.076
3,25,perceptual,0.1,0.2,target,target,1,6.639
3,26,perceptual,0.03,0.2,competitor,competitor,0,9.976
3,27,perceptual,0.03,0.05,competitor,competitor,0,5.95
3,28,numeric,0.03,0.05,competitor,target,1,9.478
3,29,numeric,0.1,0.05,target,decoy,0,8.875
3,30,perceptual,0.1,0.05,competitor,target,1,10.877
3,31,numeric,0.03,0.05,target,target,1,10.277
3,32,perceptual,0.1,0.2,target,target,1,8.718
3,33,perceptual,0.1,0.2,competitor,target,1,6.572
3,34,numeric,0.03,0.2,competitor,competitor,0,7.599
3,35,numeric,0.03,0.05,competitor,competitor,0,17.759
3,36,perceptual,0.03,0.05,competitor,competitor,0,0.019
3,37,numeric,0.03,0.2,target,competitor,0,11.49
3,38,perceptual,0.03,0.2,target,target,1,8.618
3,39,numeric,0.1,0.2,target,target,1,9.109
3,40,numeric,0.03,0.2,target,target,1,13.356
3,41,numeric,0.03,0.05,target,competitor,0,10.326
3,42,perceptual,0.03,0.2,target,target,1,10.005
3,43,numeric,0.1,0.2,target,target,1,6.395
3,44,numeric,0.1,0.05,competitor,target,1,12.203
3,45,numeric,0.03,0.2,competitor,target,1,11.093
3,46,numeric,0.03,0.05,competitor,competitor,0,17.961
3,48,numeric,0.1,0.05,target,competitor,0,10.369
3,49,numeric,0.1,0.2,target,target,1,7.779
3,50,perceptual,0.03,0.05,target,target,1,7.768
3,51,perceptual,0.1,0.05,competitor,target,1,3.968
3,52,numeric,0.1,0.2,competitor,target,1,5.609
3,53,perceptual,0.03,0.05,competitor,target,1,5.483
3,54,numeric,0.1,0.2,competitor,target,1,5.96
3,55,numeric,0.03,0.2,competitor,target,1,8.315
3,56,numeric,0.03,0.2,competitor,competitor,0,8.19
3,57,perceptual,0.1,0.2,competitor,target,1,4.337
3,58,perceptual,0.03,0.2,target,competitor,0,9.161
3,59,perceptual,0.1,0.05,competitor,target,1,7.277
3,60,perceptual,0.03,0.05,competitor,target,1,9.647
3,61,perceptual,0.1,0.2,target,target,1,6.516
3,62,perceptual,0.1,0.05,target,target,1,10.413
3,63,numeric,0.03,0.05,target,decoy,0,8.433
3,64,perceptual,0.1,0.2,target,competitor,0,12.211
3,65,perceptual,0.1,0.05,target,decoy,0,5.298
3,66,numeric,0.03,0.05,competitor,target,1,7.316
3,67,perceptual,0.1,0.2,competitor,target,1,6.271
3,68,perceptual,0.03,0.05,target,target,1,8.982
3,69,perceptual,0.03,0.05,competitor,target,1,4.681
3,70,numeric,0.1,0.2,target,target,1,9.38
3,71,perceptual,0.03,0.05,competitor,target,1,6.962
3,72,numeric,0.1,0.05,target,target,1,11.168
3,73,numeric,0.03,0.05,competitor,target,1,11.505
3,74,perceptual,0.1,0.05,competitor,decoy,0,11.416
3,75,numeric,0.1,0.2,competitor,target,1,9.236
3,76,perceptual,0.1,0.05,target,target,1,5.727
3,77,perceptual,0.1,0.2,target,competitor,0,9.75
3,78,perceptual,0.1,0.05,target,target,1,6.751
3,79,numeric,0.03,0.2,competitor,target,1,13.153
3,80,numeric,0.03,0.05,competitor,target,1,11.797
3,81,perceptual,0.1,0.05,target,target,1,7.821
3,82,numeric,0.1,0.2,target,target,1,7.246
3,83,perceptual,0.03,0.05,competitor,competitor,0,8.211
3,84,numeric,0.1,0.2,competitor,target,1,8.486
3,85,perceptual,0.1,0.05,competitor,target,1,7.942
3,86,numeric,0.1,0.2,target,target,1,9.771
3,87,numeric,0.1,0.05,target,target,1,7.468
3,88,numeric,0.1,0.05,target,target,1,10.067
3,89,numeric,0.03,0.2,competitor,target,1,8.362
3,90,perceptual,0.1,0.05,competitor,target,1,5.111
3,91,numeric,0.03,0.05,competitor,competitor,0,13.126
3,92,numeric,0.1,0.05,competitor,competitor,0,10.134
3,93,perceptual,0.1,0.2,competitor,target,1,11.645
3,94,perceptual,0.1,0.05,competitor,target,1,13.214
3,95,numeric,0.03,0.05,competitor,competitor,0,9.365
3,96,perceptual,0.1,0.2,competitor,competitor,0,11.001
3,97,numeric,0.1,0.05,target,target,1,9.102
3,98,numeric,0.03,0.2,target,target,1,14.277
3,99,perceptual,0.03,0.2,competitor,competitor,0,5.476
3,100,perceptual,0.03,0.05,competitor,competitor,0,8.863
3,101,numeric,0.1,0.05,target,decoy,0,12.648
3,102,perceptual,0.03,0.05,target,target,1,4.997
3,103,perceptual,0.03,0.2,competitor,target,1,6.028
3,104,perceptual,0.1,0.2,target,target,1,4.366
3,105,perceptual,0.03,0.2,target,target,1,13.411
3,106,numeric,0.1,0.2,competitor,target,1,13.298
3,107,numeric,0.1,0.05,competitor,target,1,9.534
3,108,perceptual,0.03,0.2,target,target,1,3.919
3,109,perceptual,0.03,0.2,competitor,target,1,3.412
3,110,numeric,0.1,0.2,target,competitor,0,5.546
3,111,numeric,0.1,0.2,competitor,target,1,7.553
3,112,numeric,0.03,0.05,competitor,target,1,15.959
3,113,numeric,0.03,0.05,competitor,target,1,6.268
3,114,numeric,0.03,0.05,competitor,target,1,7.748
3,115,perceptual,0.1,0.05,target,target,1,5.287
3,116,perceptual,0.1,0.2,competitor,target,1,5.9
3,117,numeric,0.1,0.05,target,target,1,5.942
3,118,numeric,0.03,0.05,target,target,1,6.084
3,119,perceptual,0.1,0.05,competitor,target,1,8.147
3,120,perceptual,0.03,0.2,target,competitor,0,7.8
3,121,perceptual,0.03,0.05,target,target,1,4.427
3,122,numeric,0.1,0.2,competitor,target,1,6.468
3,123,numeric,0.1,0.2,competitor,target,1,5.315
3,124,numeric,0.03,0.05,target,competitor,0,9.13
3,125,perceptual,0.1,0.05,target,target,1,10.196
3,126,perceptual,0.03,0.2,competitor,competitor,0,8.624
3,127,perceptual,0.1,0.05,target,competitor,0,9.118
3,128,numeric,0.1,0.05,competitor,target,1,7.948
3,129,numeric,0.03,0.2,target,target,1,5.79
3,130,perceptual,0.1,0.2,competitor,target,1,6.518
3,131,numeric,0.1,0.05,competitor,target,1,7.372
3,132,perceptual,0.03,0.2,competitor,target,1,4.055
3,133,perceptual,0.03,0.2,competitor,target,1,5.136
3,134,numeric,0.03,0.2,target,competitor,0,15.051
3,135,numeric,0.03,0.05,target,target,1,13.064
3,136,numeric,0.03,0.2,competitor,competitor,0,8.348
3,137,perceptual,0.03,0.05,target,target,1,9.743
3,138,perceptual,0.03,0.2,target,target,1,7.451
3,139,numeric,0.1,0.05,target,target,1,11.387
3,140,perceptual,0.1,0.2,competitor,target,1,8.113
3,141,numeric,0.1,0.05,target,target,1,11.158
3,142,numeric,0.1,0.2,competitor,target,1,9.596
3,143,numeric,0.1,0.05,competitor,target,1,11.343
3,144,perceptual,0.1,0.05,target,target,1,6.27
3,145,numeric,0.1,0.2,target,target,1,13.357
3,146,numeric,0.03,0.2,target,target,1,15.335
3,147,numeric,0.1,0.2,competitor,target,1,11.178
3,148,perceptual,0.03,0.2,competitor,competitor,0,5.663
3,149,perceptual,0.1,0.2,target,target,1,4.193
3,150,numeric,0.03,0.2,target,target,1,10.155
3,151,numeric,0.1,0.05,target,target,1,5.224
3,152,numeric,0.03,0.2,competitor,target,1,8.466
3,154,numeric,0.03,0.2,competitor,competitor,0,5.974
3,155,perceptual,0.03,0.05,competitor,target,1,5.94
3,156,perceptual,0.03,0.2,target,competitor,0,6.673
3,157,perceptual,0.1,0.05,target,decoy,0,4.436
3,158,numeric,0.03,0.2,competitor,target,1,5.1
3,159,numeric,0.03,0.2,target,target,1,12.684
3,160,numeric,0.03,0.2,target,competitor,0,10.92
3,161,perceptual,0.1,0.2,target,target,1,3.23
3,162,numeric,0.03,0.05,competitor,target,1,8.37
3,163,perceptual,0.1,0.2,competitor,target,1,3.793
3,164,perceptual,0.1,0.05,competitor,target,1,3.854
3,165,numeric,0.03,0.05,target,target,1,6.598
3,166,numeric,0.1,0.2,target,target,1,11.809
3,167,numeric,0.1,0.2,competitor,target,1,12.537
3,168,perceptual,0.1,0.2,target,target,1,6.906
3,169,numeric,0.1,0.05,competitor,target,1,10.009
3,170,perceptual,0.1,0.2,target,target,1,8.429
3,171,perceptual,0.03,0.05,competitor,target,1,9.439
3,172,perceptual,0.1,0.2,competitor,target,1,6.532
3,173,perceptual,0.03,0.2,target,target,1,3.433
3,174,perceptual,0.03,0.2,competitor,target,1,4.423
3,175,perceptual,0.1,0.2,competitor,target,1,7.133
3,176,perceptual,0.03,0.2,target,target,1,6.942
3,177,perceptual,0.03,0.2,target,competitor,0,3.081
3,178,perceptual,0.1,0.05,competitor,target,1,5.521
3,179,perceptual,0.03,0.05,competitor,target,1,8.889
3,180,perceptual,0.03,0.05,target,decoy,0,2.763
3,181,numeric,0.03,0.05,target,target,1,7.683
3,182,perceptual,0.03,0.05,target,decoy,0,9.508
3,183,numeric,0.1,0.2,target,target,1,11.363
3,184,perceptual,0.03,0.05,target,decoy,0,8.548
3,185,perceptual,0.03,0.05,target,target,1,10.198
3,186,numeric,0.03,0.2,target,target,1,7.512
3,187,numeric,0.03,0.2,competitor,target,1,10.12
3,188,numeric,0.1,0.05,competitor,target,1,9.999
3,189,numeric,0.1,0.05,competitor,target,1,10.238
3,190,perceptual,0.1,0.05,competitor,target,1,5.236
3,191,numeric,0.1,0.2,target,target,1,5.898
3,192,perceptual,0.03,0.2,competitor,target,1,3.49
4,1,perceptual,0.03,0.2,target,competitor,0,5.158
4,2,perceptual,0.1,0.2,target,target,1,3.739
4,3,perceptual,0.1,0.05,target,target,1,6.486
4,4,numeric,0.1,0.2,competitor,target,1,10.978
4,5,numeric,0.1,0.2,competitor,target,1,7.43
4,6,numeric,0.1,0.2,competitor,target,1,5.768
4,7,perceptual,0.03,0.2,target,competitor,0,6.35
4,8,numeric,0.1,0.05,target,target,1,7.49
4,9,numeric,0.03,0.05,competitor,competitor,0,8.353
4,10,numeric,0.03,0.2,competitor,competitor,0,5.777
4,11,perceptual,0.03,0.05,target,target,1,6.159
4,12,perceptual,0.03,0.05,competitor,target,1,7.628
4,13,numeric,0.1,0.2,competitor,competitor,0,8.518
4,14,numeric,0.03,0.2,target,target,1,8
4,15,numeric,0.1,0.05,competitor,target,1,8.076
4,16,perceptual,0.1,0.05,competitor,target,1,4.919
4,17,perceptual,0.03,0.2,competitor,target,1,7.939
4,18,perceptual,0.1,0.05,competitor,competitor,0,6.81
4,19,numeric,0.03,0.05,target,target,1,6.208
4,20,numeric,0.1,0.05,target,target,1,7.993
4,21,perceptual,0.1,0.2,competitor,target,1,5.539
4,22,perceptual,0.1,0.2,target,target,1,6.398
4,23,numeric,0.03,0.2,competitor,target,1,15.624
4,24,numeric,0.1,0.05,target,target,1,8.003
4,25,numeric,0.03,0.05,competitor,target,1,12.208
4,26,numeric,0.03,0.05,competitor,competitor,0,10.904
4,27,perceptual,0.1,0.2,target,target,1,8.111
4,28,perceptual,0.03,0.05,target,target,1,7.76
4,29,numeric,0.1,0.2,competitor,target,1,8.128
4,30,numeric,0.1,0.2,competitor,target,1,5.639
4,31,numeric,0.03,0.05,target,target,1,9.257
4,32,numeric,0.03,0.2,target,target,1,10.635
4,33,numeric,0.1,0.05,competitor,target,1,15.963
4,34,perceptual,0.03,0.05,target,target,1,9
4,35,perceptual,0.03,0.05,target,target,1,5.57
4,36,numeric,0.03,0.05,competitor,target,1,10.646
4,37,numeric,0.03,0.2,target,target,1,14.62
4,38,perceptual,0.03,0.2,competitor,target,1,8.777
4,39,numeric,0.1,0.05,competitor,target,1,4.971
4,40,perceptual,0.03,0.2,competitor,target,1,7.038
4,41,perceptual,0.03,0.2,competitor,target,1,5.481
4,42,numeric,0.03,0.05,target,target,1,13.094
4,43,numeric,0.03,0.05,competitor,competitor,0,16.031
4,44,perceptual,0.03,0.2,target,target,1,6.552
4,45,perceptual,0.1,0.2,competitor,competitor,0,11.951
4,46,numeric,0.1,0.2,competitor,target,1,9.789
4,47,numeric,0.03,0.05,competitor,target,1,13.171
4,48,perceptual,0.03,0.05,competitor,target,1,16.596
4,49,numeric,0.1,0.05,competitor,target,1,8.444
4,50,perceptual,0.1,0.2,target,target,1,8.757
4,51,perceptual,0.1,0.05,target,target,1,9.544
4,52,numeric,0.1,0.05,target,target,1,12.577
4,53,perceptual,0.03,0.05,competitor,competitor,0,10.148
4,54,perceptual,0.1,0.2,competitor,target,1,4.218
4,55,perceptual,0.1,0.2,competitor,target,1,5.528
4,56,perceptual,0.03,0.05,competitor,competitor,0,4.771
4,57,perceptual,0.1,0.05,target,target,1,5.026
4,58,perceptual,0.1,0.2,competitor,target,1,7.31
4,59,perceptual,0.03,0.2,target,target,1,6.576
4,60,perceptual,0.1,0.05,competitor,target,1,10.096
4,61,numeric,0.03,0.2,target,competitor,0,11.905
4,62,numeric,0.03,0.05,competitor,target,1,9.625
4,63,perceptual,0.1,0.05,competitor,target,1,10.419
4,64,numeric,0.03,0.2,competitor,target,1,15.343
4,65,perceptual,0.1,0.2,competitor,target,1,8.556
4,66,numeric,0.1,0.2,target,target,1,9.753
4,67,perceptual,0.03,0.05,competitor,competitor,0,16.547
4,68,perceptual,0.03,0.2,competitor,competitor,0,7.977
4,69,perceptual,0.03,0.05,competitor,target,1,13.3
4,70,numeric,0.1,0.05,competitor,target,1,10.795
4,71,numeric,0.03,0.2,target,competitor,0,17.819
4,72,numeric,0.1,0.05,competitor,target,1,8.475
4,73,numeric,0.03,0.05,competitor,target,1,13.065
4,74,numeric,0.1,0.05,competitor,target,1,14.088
4,75,perceptual,0.1,0.2,target,target,1,9.501
4,76,numeric,0.03,0.2,target,target,1,7.275
4,77,numeric,0.1,0.2,target,target,1,9.496
4,78,numeric,0.1,0.05,competitor,target,1,7.29
4,79,perceptual,0.1,0.05,target,target,1,12.075
4,80,perceptual,0.03,0.05,target,target,1,5.439
4,81,numeric,0.03,0.05,target,competitor,0,19.594
4,82,perceptual,0.1,0.2,target,target,1,4.861
4,83,numeric,0.1,0.05,target,target,1,11.302
4,84,numeric,0.1,0.05,target,target,1,12.193
4,85,perceptual,0.03,0.05,competitor,target,1,13.251
4,86,numeric,0.03,0.05,target,competitor,0,14.594
4,87,perceptual,0.1,0.2,target,target,1,12.924
4,88,perceptual,0.03,0.05,competitor,target,1,8.77
4,89,numeric,0.1,0.05,competitor,target,1,11.306
4,90,perceptual,0.03,0.2,competitor,target,1,7.897
4,91,perceptual,0.1,0.05,target,target,1,5.806
4,92,numeric,0.03,0.05,competitor,target,1,10.224
4,93,perceptual,0.1,0.2,target,target,1,6.284
4,94,numeric,0.1,0.2,target,competitor,0,16.764
4,95,perceptual,0.1,0.05,competitor,target,1,7.908
4,96,numeric,0.1,0.2,target,target,1,10.623
4,97,perceptual,0.03,0.05,target,target,1,8.796
4,98,perceptual,0.03,0.05,target,target,1,6.276
4,99,perceptual,0.03,0.2,target,target,1,12.812
4,100,perceptual,0.03,0.05,target,target,1,11.156
4,101,numeric,0.1,0.2,competitor,competitor,0,16.764
4,102,perceptual,0.1,0.2,competitor,target,1,8.504
4,103,perceptual,0.1,0.2,competitor,target,1,7.834
4,104,numeric,0.1,0.05,target,target,1,8.179
4,105,perceptual,0.03,0.2,competitor,target,1,7.304
4,106,perceptual,0.03,0.2,competitor,target,1,6.626
4,107,numeric,0.03,0.2,competitor,target,1,11.968
4,108,numeric,0.1,0.2,competitor,target,1,12.364
4,109,numeric,0.03,0.05,target,target,1,10.89
4,110,numeric,0.03,0.2,competitor,competitor,0,9.963
4,111,numeric,0.1,0.05,competitor,target,1,8.869
4,112,numeric,0.1,0.2,target,target,1,10.046
4,113,perceptual,0.1,0.05,target,target,1,7.533
4,114,numeric,0.03,0.2,competitor,competitor,0,10.029
4,115,numeric,0.1,0.2,target,target,1,15.274
4,116,numeric,0.1,0.05,target,target,1,13.723
4,117,numeric,0.03,0.2,target,competitor,0,12.826
4,118,numeric,0.03,0.2,target,target,1,13.333
4,119,perceptual,0.1,0.2,competitor,target,1,9.976
4,120,numeric,0.1,0.2,target,target,1,7.421
4,121,numeric,0.03,0.05,target,competitor,0,10.964
4,122,perceptual,0.1,0.05,competitor,competitor,0,5.636
4,123,perceptual,0.1,0.2,target,target,1,9.257
4,124,numeric,0.1,0.2,competitor,target,1,12.388
4,125,perceptual,0.1,0.05,competitor,target,1,9.643
4,126,numeric,0.03,0.2,competitor,target,1,8.58
4,127,perceptual,0.03,0.2,competitor,target,1,7.153
4,128,perceptual,0.03,0.05,target,target,1,5.7
4,129,numeric,0.03,0.2,target,target,1,13.239
4,130,perceptual,0.03,0.05,competitor,target,1,8.406
4,131,numeric,0.03,0.05,competitor,target,1,9.831
4,132,perceptual,0.1,0.05,competitor,target,1,7.26
4,133,perceptual,0.03,0.2,target,target,1,9.379
4,134,numeric,0.03,0.05,target,target,1,11.465
4,135,perceptual,0.03,0.05,competitor,target,1,5.467
4,136,perceptual,0.1,0.05,target,target,1,8.621
4,137,perceptual,0.03,0.2,competitor,target,1,7.373
4,138,perceptual,0.03,0.2,target,competitor,0,7.849
4,139,numeric,0.1,0.05,target,decoy,0,8.921
4,140,numeric,0.03,0.05,target,target,1,12.894
4,141,perceptual,0.03,0.05,competitor,target,1,11.384
4,142,numeric,0.1,0.05,competitor,target,1,11.875
4,143,numeric,0.03,0.2,target,target,1,15.178
4,144,numeric,0.1,0.2,competitor,target,1,8.712
4,145,numeric,0.1,0.2,target,target,1,7.706
4,146,numeric,0.1,0.2,competitor,target,1,9.192
4,147,numeric,0.03,0.05,competitor,target,1,9.54
4,148,perceptual,0.1,0.05,target,target,1,6.902
4,149,numeric,0.1,0.05,target,target,1,9.369
4,150,numeric,0.03,0.2,competitor,target,1,13.587
4,151,perceptual,0.03,0.2,target,target,1,6.691
4,152,perceptual,0.1,0.05,competitor,target,1,6.248
4,153,perceptual,0.1,0.05,competitor,target,1,5.921
4,154,numeric,0.03,0.2,competitor,competitor,0,6.155
4,155,perceptual,0.1,0.05,competitor,target,1,5.027
4,156,numeric,0.1,0.2,target,target,1,6.395
4,157,perceptual,0.1,0.2,competitor,competitor,0,6.621
4,158,numeric,0.1,0.2,target,competitor,0,8.489
4,159,perceptual,0.03,0.2,competitor,target,1,4.914
4,160,perceptual,0.1,0.05,competitor,decoy,0,4.752
4,161,perceptual,0.1,0.2,target,target,1,6.508
4,162,numeric,0.1,0.2,target,target,1,9.447
4,163,perceptual,0.1,0.2,competitor,target,1,5.883
4,164,numeric,0.03,0.2,competitor,target,1,6.013
4,165,perceptual,0.1,0.2,target,target,1,5.461
4,166,numeric,0.03,0.05,competitor,target,1,9.231
4,167,perceptual,0.1,0.05,target,target,1,4.622
4,168,perceptual,0.03,0.2,competitor,competitor,0,5.928
4,169,numeric,0.03,0.2,target,competitor,0,8.541
4,170,numeric,0.03,0.05,target,target,1,9.932
4,171,perceptual,0.03,0.2,target,target,1,4.473
4,172,perceptual,0.1,0.2,target,target,1,8.849
4,173,numeric,0.03,0.2,target,competitor,0,14.012
4,174,perceptual,0.03,0.05,target,decoy,0,13.08
4,175,perceptual,0.03,0.2,target,target,1,6.827
4,176,numeric,0.1,0.05,competitor,target,1,8.748
4,177,numeric,0.03,0.2,competitor,target,1,10.478
4,178,perceptual,0.03,0.05,target,competitor,0,9.62
4,179,numeric,0.1,0.05,target,target,1,13.257
4,180,perceptual,0.03,0.05,competitor,target,1,8.471
4,181,numeric,0.03,0.05,target,competitor,0,10.844
4,182,perceptual,0.1,0.05,target,target,1,8.882
4,183,perceptual,0.1,0.05,target,target,1,7.043
4,184,perceptual,0.03,0.2,target,competitor,0,8.857
4,185,numeric,0.1,0.05,target,decoy,0,12.846
4,186,numeric,0.1,0.2,target,target,1,14.124
4,187,perceptual,0.03,0.05,target,competitor,0,10.093
4,188,perceptual,0.03,0.2,target,competitor,0,6.063
4,189,perceptual,0.1,0.05,target,target,1,5.726
4,190,numeric,0.03,0.2,competitor,competitor,0,11.864
4,192,perceptual,0.1,0.2,competitor,target,1,6.297
5,1,perceptual,0.03,0.2,target,target,1,3.601
5,2,numeric,0.1,0.05,target,decoy,0,14.749
5,3,numeric,0.1,0.2,target,competitor,0,6.027
5,4,perceptual,0.03,0.2,target,target,1,4.945
5,5,perceptual,0.1,0.2,target,target,1,5.418
5,6,perceptual,0.1,0.05,target,target,1,5.119
5,7,perceptual,0.1,0.05,competitor,competitor,0,6.029
5,8,perceptual,0.1,0.2,competitor,target,1,4.903
5,9,numeric,0.1,0.2,target,decoy,0,6.43
5,10,numeric,0.03,0.05,target,target,1,9.668
5,11,numeric,0.03,0.2,target,target,1,7.695
5,12,numeric,0.03,0.05,target,target,1,5.837
5,13,perceptual,0.1,0.05,target,target,1,7.73
5,14,numeric,0.03,0.05,target,competitor,0,9.717
5,15,numeric,0.03,0.05,target,competitor,0,13.439
5,16,perceptual,0.03,0.2,target,target,1,6.658
5,17,perceptual,0.1,0.05,competitor,target,1,5.079
5,18,numeric,0.1,0.2,competitor,competitor,0,6.681
5,19,perceptual,0.1,0.05,target,target,1,6.008
5,20,perceptual,0.03,0.05,competitor,target,1,3.162
5,21,perceptual,0.03,0.05,target,competitor,0,5.458
5,22,numeric,0.03,0.05,competitor,target,1,6.417
5,23,numeric,0.1,0.05,competitor,target,1,10.182
5,24,numeric,0.1,0.2,target,target,1,7.763
5,25,perceptual,0.1,0.05,competitor,target,1,5.042
5,26,perceptual,0.1,0.2,competitor,target,1,4.201
5,27,perceptual,0.1,0.2,competitor,target,1,5.999
5,28,perceptual,0.03,0.2,competitor,target,1,3.862
5,29,perceptual,0.03,0.2,target,target,1,8.148
5,30,numeric,0.03,0.05,target,target,1,9.244
5,31,numeric,0.03,0.2,competitor,competitor,0,8.523
5,32,perceptual,0.03,0.2,target,competitor,0,4.909
5,33,numeric,0.03,0.2,competitor,competitor,0,8.225
5,34,numeric,0.1,0.05,target,target,1,7.108
5,35,numeric,0.03,0.05,target,competitor,0,7.73
5,36,numeric,0.03,0.2,competitor,target,1,7.632
5,37,numeric,0.03,0.05,competitor,competitor,0,11.605
5,38,numeric,0.03,0.05,target,target,1,8.465
5,39,perceptual,0.1,0.05,competitor,target,1,10.234
5,40,numeric,0.03,0.2,target,target,1,7.921
5,41,perceptual,0.1,0.2,target,decoy,0,8.066
5,42,perceptual,0.03,0.05,competitor,competitor,0,6.888
5,43,numeric,0.03,0.2,competitor,target,1,11.356
5,44,numeric,0.03,0.05,target,target,1,7.839
5,45,numeric,0.03,0.2,target,competitor,0,10.517
5,46,numeric,0.1,0.2,competitor,target,1,9.925
5,47,numeric,0.1,0.2,target,target,1,10.087
5,48,numeric,0.1,0.05,competitor,competitor,0,11.851
5,49,perceptual,0.03,0.2,target,target,1,5.261
5,50,perceptual,0.03,0.05,competitor,competitor,0,7.781
5,51,numeric,0.1,0.05,competitor,competitor,0,7.206
5,52,numeric,0.03,0.05,competitor,competitor,0,5.96
5,53,perceptual,0.1,0.05,competitor,target,1,5.008
5,54,perceptual,0.03,0.05,competitor,decoy,0,2.985
5,55,numeric,0.03,0.2,target,target,1,8.051
5,56,perceptual,0.1,0.05,target,target,1,4.358
5,57,perceptual,0.1,0.05,target,decoy,0,6.214
5,58,perceptual,0.1,0.2,competitor,target,1,3.877
5,59,perceptual,0.1,0.2,target,target,1,4.604
5,60,perceptual,0.03,0.2,competitor,target,1,3.451
5,61,numeric,0.03,0.2,target,target,1,4.147
5,62,numeric,0.1,0.2,competitor,competitor,0,7.899
5,63,numeric,0.03,0.2,competitor,competitor,0,9.418
5,64,perceptual,0.1,0.05,target,target,1,7.018
5,65,numeric,0.1,0.05,competitor,target,1,5.768
5,66,perceptual,0.03,0.05,target,competitor,0,5.749
5,67,perceptual,0.03,0.05,competitor,decoy,0,7.183
5,68,perceptual,0.03,0.05,competitor,target,1,5.116
5,69,perceptual,0.03,0.2,competitor,competitor,0,5.394
5,70,perceptual,0.1,0.2,target,target,1,3.408
5,71,numeric,0.1,0.05,competitor,target,1,7.435
5,72,numeric,0.1,0.2,target,target,1,5.801
5,73,perceptual,0.03,0.05,target,target,1,4.966
5,74,numeric,0.1,0.05,target,competitor,0,7.422
5,75,numeric,0.1,0.2,competitor,target,1,7.292
5,76,perceptual,0.1,0.2,target,target,1,5.02
5,77,perceptual,0.03,0.05,competitor,target,1,5.81
5,78,perceptual,0.1,0.2,target,target,1,4.233
5,79,perceptual,0.03,0.2,target,target,1,4.908
5,80,perceptual,0.03,0.2,competitor,target,1,4.362
5,81,perceptual,0.03,0.2,competitor,target,1,3.425
5,82,perceptual,0.03,0.05,target,competitor,0,9.686
5,83,perceptual,0.03,0.2,target,decoy,0,5.679
5,84,numeric,0.03,0.05,competitor,target,1,9.455
5,85,perceptual,0.03,0.05,target,competitor,0,7.096
5,86,perceptual,0.1,0.2,competitor,target,1,4.842
5,87,numeric,0.1,0.05,competitor,competitor,0,12.306
5,88,perceptual,0.1,0.2,competitor,target,1,5.382
5,89,perceptual,0.03,0.2,competitor,competitor,0,5.207
5,90,numeric,0.1,0.05,competitor,competitor,0,7.935
5,91,numeric,0.1,0.05,target,target,1,8.712
5,92,perceptual,0.1,0.2,competitor,target,1,3.356
5,93,numeric,0.1,0.2,competitor,competitor,0,8.715
5,94,perceptual,0.03,0.05,target,target,1,4.544
5,95,perceptual,0.03,0.05,competitor,competitor,0,7.276
5,96,numeric,0.1,0.05,competitor,target,1,6.05
5,97,numeric,0.1,0.05,target,target,1,7.794
5,98,perceptual,0.03,0.2,competitor,target,1,3.718
5,99,perceptual,0.1,0.05,target,target,1,4.246
5,100,numeric,0.03,0.05,competitor,competitor,0,9.957
5,101,numeric,0.1,0.05,target,target,1,7.63
5,102,numeric,0.1,0.2,target,target,1,1.741
5,103,perceptual,0.03,0.05,target,competitor,0,5.521
5,104,numeric,0.1,0.2,competitor,competitor,0,8.796
5,105,numeric,0.03,0.05,competitor,competitor,0,6.738
5,106,perceptual,0.1,0.05,competitor,target,1,4.855
5,107,perceptual,0.1,0.2,target,target,1,3.123
5,108,numeric,0.1,0.05,target,target,1,5.389
5,109,numeric,0.03,0.05,target,target,1,9.869
5,110,perceptual,0.03,0.2,target,target,1,3.343
5,111,perceptual,0.03,0.05,target,competitor,0,5.493
5,112,numeric,0.1,0.2,target,target,1,9.432
5,113,numeric,0.1,0.05,target,target,1,5.896
5,114,numeric,0.03,0.2,target,target,1,7.192
5,115,numeric,0.03,0.2,target,target,1,12.633
5,116,numeric,0.03,0.05,competitor,competitor,0,8.823
5,117,perceptual,0.1,0.2,competitor,target,1,3.798
5,118,numeric,0.03,0.2,competitor,competitor,0,10.98
5,119,numeric,0.1,0.05,competitor,target,1,7.361
5,120,numeric,0.03,0.05,target,target,1,11.036
5,121,perceptual,0.1,0.2,target,target,1,3.854
5,122,perceptual,0.1,0.2,target,target,1,3.881
5,123,perceptual,0.03,0.05,competitor,target,1,4.554
5,124,numeric,0.1,0.2,competitor,competitor,0,6.504
5,125,numeric,0.03,0.2,competitor,competitor,0,7.497
5,126,perceptual,0.1,0.05,target,target,1,7.459
5,127,perceptual,0.1,0.05,target,target,1,7.575
5,128,numeric,0.03,0.2,target,competitor,0,6.863
5,129,numeric,0.1,0.2,competitor,target,1,7.309
5,130,numeric,0.1,0.05,competitor,competitor,0,0.09
5,131,numeric,0.1,0.2,competitor,competitor,0,9.428
5,132,numeric,0.03,0.2,target,target,1,12.351
5,133,perceptual,0.1,0.05,target,target,1,6.106
5,134,numeric,0.03,0.2,competitor,target,1,9.352
5,135,perceptual,0.03,0.05,target,target,1,7.046
5,136,perceptual,0.03,0.2,target,target,1,5.904
5,137,numeric,0.1,0.2,competitor,target,1,7.612
5,138,numeric,0.1,0.2,competitor,competitor,0,9.149
5,139,perceptual,0.03,0.05,competitor,target,1,8.477
5,140,perceptual,0.03,0.05,competitor,decoy,0,7.691
5,141,perceptual,0.03,0.2,competitor,competitor,0,8.136
5,142,numeric,0.03,0.2,competitor,competitor,0,6.156
5,143,numeric,0.1,0.05,competitor,target,1,15.305
5,144,perceptual,0.1,0.2,competitor,target,1,4.028
5,145,numeric,0.1,0.2,target,target,1,6.472
5,146,perceptual,0.1,0.2,competitor,target,1,4.126
5,147,numeric,0.03,0.05,competitor,decoy,0,9.287
5,148,numeric,0.03,0.2,target,target,1,7.964
5,149,numeric,0.1,0.2,competitor,target,1,6.891
5,150,numeric,0.03,0.05,competitor,competitor,0,7.344
5,151,numeric,0.1,0.05,target,target,1,5.982
5,152,perceptual,0.1,0.05,target,target,1,4.531
5,153,perceptual,0.03,0.05,competitor,target,1,5.905
5,154,numeric,0.03,0.2,competitor,competitor,0,12.925
5,155,numeric,0.03,0.05,target,target,1,8.309
5,156,perceptual,0.03,0.2,target,target,1,3.646
5,157,numeric,0.1,0.2,target,target,1,7.264
5,158,perceptual,0.03,0.2,competitor,target,1,4.698
5,159,perceptual,0.1,0.05,target,target,1,5.634
5,160,numeric,0.03,0.05,competitor,competitor,0,5.099
5,161,perceptual,0.1,0.2,target,target,1,4.905
5,162,perceptual,0.03,0.2,competitor,target,1,6.464
5,163,perceptual,0.1,0.05,competitor,target,1,4.633
5,164,perceptual,0.1,0.2,target,target,1,4.193
5,165,numeric,0.1,0.05,competitor,competitor,0,8.591
5,166,numeric,0.03,0.2,competitor,target,1,8.264
5,167,numeric,0.1,0.2,target,target,1,6.719
5,168,perceptual,0.1,0.2,competitor,target,1,3.939
5,169,perceptual,0.03,0.2,competitor,target,1,5.086
5,170,perceptual,0.03,0.2,competitor,target,1,3.905
5,171,perceptual,0.03,0.05,target,target,1,5.198
5,172,numeric,0.1,0.2,target,target,1,7.061
5,173,numeric,0.1,0.05,target,decoy,0,8.38
5,174,perceptual,0.1,0.05,competitor,competitor,0,6.664
5,175,perceptual,0.1,0.05,competitor,target,1,3.743
5,176,numeric,0.1,0.2,target,target,1,6.032
5,177,perceptual,0.1,0.05,competitor,target,1,3.21
5,178,numeric,0.03,0.05,target,target,1,6.929
5,179,perceptual,0.1,0.2,competitor,target,1,5.35
5,180,numeric,0.03,0.05,competitor,target,1,10.696
5,181,perceptual,0.1,0.05,competitor,target,1,5.965
5,182,numeric,0.03,0.2,target,competitor,0,5.702
5,183,perceptual,0.03,0.05,target,target,1,7.279
5,184,numeric,0.1,0.05,target,competitor,0,12.558
5,185,numeric,0.03,0.2,target,target,1,8.352
5,186,numeric,0.1,0.05,target,decoy,0,7.635
5,187,perceptual,0.03,0.05,target,competitor,0,7.645
5,188,numeric,0.03,0.05,competitor,competitor,0,6.705
5,189,perceptual,0.03,0.2,target,target,1,3.622
5,190,perceptual,0.1,0.05,competitor,target,1,4.133
5,191,perceptual,0.1,0.2,target,competitor,0,7.975
5,192,numeric,0.03,0.2,competitor,competitor,0,7.202
