participant,trial_counter,condition,target_to_competitor,decoy_reduction,decoy_on,chosen_item,correct,rt
1,1,numeric,0.1,0.05,target,target,1,10.139
1,2,numeric,0.03,0.05,target,target,1,7.916
1,3,numeric,0.03,0.2,target,target,1,7.49
1,4,perceptual,0.03,0.2,target,competitor,0,10.768
1,5,numeric,0.1,0.05,competitor,target,1,8.773
1,6,perceptual,0.03,0.05,competitor,target,1,6.561
1,7,numeric,0.03,0.05,competitor,target,1,11.181
1,8,numeric,0.1,0.05,target,target,1,8.463
1,9,perceptual,0.1,0.05,target,target,1,4.486
1,10,perceptual,0.03,0.2,competitor,target,1,6.113
1,11,perceptual,0.1,0.2,competitor,competitor,0,5.579
1,12,numeric,0.1,0.05,competitor,target,1,10.589
1,13,perceptual,0.1,0.05,competitor,target,1,4.667
1,14,perceptual,0.1,0.2,competitor,target,1,5.746
1,15,numeric,0.03,0.2,target,target,1,6.228
1,16,perceptual,0.03,0.2,competitor,target,1,8.069
1,17,perceptual,0.03,0.2,competitor,target,1,4.368
1,18,numeric,0.1,0.2,target,target,1,8.743
1,19,numeric,0.03,0.05,target,target,1,9.462
1,20,perceptual,0.1,0.2,target,target,1,6.176
1,21,perceptual,0.03,0.05,competitor,target,1,5.73
1,22,numeric,0.1,0.2,target,target,1,8.497
1,23,numeric,0.1,0.2,target,target,1,7.998
1,24,numeric,0.03,0.05,target,target,1,6.769
1,25,numeric,0.1,0.05,target,target,1,6.514
1,26,numeric,0.03,0.2,target,target,1,7.625
1,27,perceptual,0.1,0.2,target,target,1,4.725
1,28,numeric,0.1,0.2,competitor,target,1,7.477
1,29,perceptual,0.1,0.2,target,target,1,5.146
1,30,numeric,0.03,0.05,competitor,target,1,6.731
1,31,perceptual,0.1,0.2,competitor,target,1,5.348
1,32,perceptual,0.1,0.05,competitor,target,1,6.955
1,33,perceptual,0.03,0.05,target,competitor,0,7.519
1,34,perceptual,0.1,0.2,competitor,target,1,4.749
1,35,numeric,0.1,0.2,target,target,1,5.974
1,36,perceptual,0.03,0.05,target,target,1,8.009
1,37,numeric,0.1,0.2,competitor,target,1,8.776
1,38,perceptual,0.03,0.05,competitor,target,1,9.089
1,39,perceptual,0.1,0.2,target,target,1,5.569
1,40,numeric,0.03,0.2,competitor,competitor,0,8.3
1,41,numeric,0.1,0.2,target,target,1,5.868
1,42,numeric,0.1,0.05,target,target,1,6.235
1,43,perceptual,0.03,0.05,target,target,1,8.219
1,44,perceptual,0.1,0.2,competitor,target,1,3.721
1,45,perceptual,0.03,0.2,target,target,1,3.309
1,46,perceptual,0.1,0.05,competitor,target,1,4.226
1,47,perceptual,0.1,0.2,target,target,1,6.622
1,48,perceptual,0.03,0.2,target,target,1,4.777
1,49,numeric,0.1,0.2,competitor,target,1,5.254
1,50,perceptual,0.1,0.05,competitor,target,1,3.345
1,51,perceptual,0.1,0.2,target,target,1,6.351
1,52,numeric,0.03,0.2,competitor,target,1,8.205
1,53,perceptual,0.03,0.05,target,competitor,0,8.623
1,54,numeric,0.03,0.05,target,target,1,6.667
1,55,perceptual,0.1,0.2,competitor,target,1,4.813
1,56,perceptual,0.03,0.2,target,competitor,0,5.25
1,57,numeric,0.1,0.05,target,target,1,7.817
1,58,numeric,0.1,0.2,target,target,1,9.046
1,59,perceptual,0.1,0.2,competitor,target,1,3.978
1,60,numeric,0.03,0.2,competitor,competitor,0,6.614
1,61,numeric,0.03,0.2,target,target,1,8.995
1,62,perceptual,0.03,0.2,competitor,target,1,6.511
1,63,numeric,0.03,0.2,target,target,1,7.79
1,64,perceptual,0.1,0.05,competitor,target,1,3.063
1,65,numeric,0.1,0.05,target,target,1,5.701
1,66,numeric,0.03,0.2,competitor,target,1,7.923
1,67,perceptual,0.1,0.05,competitor,target,1,6.981
1,68,numeric,0.1,0.2,competitor,target,1,7.424
1,69,perceptual,0.03,0.2,competitor,competitor,0,7.335
1,70,numeric,0.03,0.05,competitor,target,1,7.457
1,71,perceptual,0.1,0.2,target,target,1,6.823
1,72,numeric,0.1,0.2,competitor,target,1,7.887
1,73,numeric,0.1,0.05,target,competitor,0,10.804
1,74,perceptual,0.1,0.05,target,decoy,0,8.766
1,75,perceptual,0.1,0.2,target,target,1,5.664
1,76,perceptual,0.03,0.05,competitor,competitor,0,9.325
1,77,perceptual,0.1,0.05,target,target,1,8.284
1,78,numeric,0.03,0.05,competitor,target,1,8.745
1,79,perceptual,0.03,0.05,competitor,target,1,9.205
1,80,numeric,0.03,0.05,target,target,1,7.321
1,81,numeric,0.03,0.2,target,target,1,6.358
1,82,numeric,0.1,0.05,target,competitor,0,8.804
1,83,perceptual,0.1,0.2,target,target,1,4.988
1,84,numeric,0.1,0.2,competitor,competitor,0,6.625
1,85,numeric,0.03,0.05,competitor,target,1,8.835
1,86,perceptual,0.03,0.05,competitor,target,1,7.669
1,87,perceptual,0.1,0.2,target,target,1,5.085
1,88,perceptual,0.03,0.05,target,target,1,6.792
1,89,numeric,0.1,0.05,competitor,target,1,6.264
1,90,numeric,0.03,0.2,target,target,1,4.278
1,91,numeric,0.1,0.05,competitor,competitor,0,8.684
1,92,perceptual,0.03,0.2,target,competitor,0,4.32
1,93,numeric,0.1,0.05,target,target,1,8.212
1,94,perceptual,0.1,0.05,competitor,target,1,6.29
1,95,perceptual,0.03,0.2,target,target,1,4.306
1,96,perceptual,0.1,0.05,target,target,1,7.755
1,97,numeric,0.1,0.2,competitor,target,1,4.998
1,98,perceptual,0.1,0.05,target,target,1,7.103
1,99,numeric,0.03,0.05,competitor,target,1,6.239
1,100,numeric,0.03,0.2,target,target,1,7.047
1,101,numeric,0.03,0.2,competitor,target,1,10.716
1,102,perceptual,0.1,0.05,competitor,target,1,3.916
1,103,numeric,0.1,0.05,target,target,1,11.188
1,104,numeric,0.03,0.2,competitor,target,1,8.045
1,105,numeric,0.03,0.2,target,competitor,0,8.43
1,106,perceptual,0.03,0.05,target,target,1,7.455
1,107,numeric,0.1,0.05,competitor,decoy,0,4.398
1,108,numeric,0.1,0.2,competitor,target,1,6.47
1,109,numeric,0.1,0.05,competitor,target,1,4.609
1,110,numeric,0.03,0.05,competitor,competitor,0,10.357
1,111,numeric,0.1,0.05,competitor,target,1,4.819
1,112,perceptual,0.03,0.05,competitor,competitor,0,3.654
1,113,numeric,0.03,0.2,competitor,competitor,0,4.622
1,114,perceptual,0.1,0.05,target,target,1,6.82
1,115,numeric,0.03,0.05,target,target,1,5.406
1,116,numeric,0.03,0.2,competitor,target,1,6.979
1,117,perceptual,0.1,0.05,target,target,1,3.846
1,118,perceptual,0.1,0.2,target,competitor,0,4.262
1,119,perceptual,0.03,0.05,competitor,target,1,5.759
1,120,perceptual,0.03,0.05,target,target,1,8.628
1,121,perceptual,0.03,0.05,target,target,1,8.43
1,122,perceptual,0.03,0.05,competitor,competitor,0,6.767
1,123,numeric,0.1,0.05,competitor,competitor,0,7.997
1,124,numeric,0.03,0.05,competitor,target,1,9.494
1,125,numeric,0.1,0.2,competitor,target,1,6.571
1,126,perceptual,0.1,0.2,competitor,target,1,4.755
1,127,perceptual,0.1,0.2,competitor,target,1,5.025
1,128,numeric,0.03,0.05,competitor,target,1,9.261
1,129,perceptual,0.03,0.2,target,target,1,5.485
1,130,numeric,0.03,0.05,target,competitor,0,12.835
1,131,perceptual,0.03,0.05,target,target,1,7.946
1,132,perceptual,0.1,0.2,competitor,target,1,7.193
1,133,perceptual,0.03,0.05,target,competitor,0,9.514
1,134,numeric,0.03,0.05,target,target,1,5.12
1,135,perceptual,0.03,0.2,competitor,target,1,6.974
1,136,perceptual,0.03,0.2,competitor,competitor,0,8.733
1,137,numeric,0.03,0.05,competitor,target,1,6.532
1,138,numeric,0.1,0.2,target,target,1,6.939
1,139,numeric,0.03,0.05,competitor,target,1,7.59
1,140,perceptual,0.1,0.2,competitor,target,1,5.093
1,141,numeric,0.03,0.2,competitor,competitor,0,4.494
1,142,perceptual,0.03,0.2,competitor,target,1,6.797
1,143,numeric,0.1,0.05,competitor,target,1,11.104
1,144,perceptual,0.1,0.05,competitor,target,1,7.789
1,145,numeric,0.1,0.05,competitor,competitor,0,7.943
1,146,numeric,0.1,0.05,target,target,1,10.234
1,147,numeric,0.1,0.2,competitor,target,1,8.834
1,148,numeric,0.1,0.05,target,target,1,6.492
1,149,numeric,0.1,0.2,competitor,competitor,0,8.374
1,150,perceptual,0.03,0.2,competitor,target,1,6.79
1,151,numeric,0.03,0.2,target,competitor,0,10.964
1,152,perceptual,0.1,0.05,competitor,target,1,5.323
1,153,numeric,0.03,0.05,target,competitor,0,10.897
1,154,perceptual,0.1,0.2,competitor,target,1,6.093
1,155,numeric,0.03,0.05,target,target,1,10.546
1,156,perceptual,0.03,0.2,target,competitor,0,5.933
1,157,perceptual,0.03,0.2,competitor,target,1,3.618
1,158,perceptual,0.03,0.2,target,target,1,7.526
1,159,numeric,0.1,0.2,target,target,1,5.052
1,160,perceptual,0.03,0.05,competitor,target,1,10.87
1,161,perceptual,0.03,0.05,target,decoy,0,4.729
1,162,numeric,0.03,0.2,competitor,target,1,7.234
1,163,numeric,0.1,0.05,competitor,target,1,13.94
1,164,numeric,0.1,0.2,target,competitor,0,2.61
1,165,perceptual,0.1,0.05,target,target,1,5.333
1,166,perceptual,0.03,0.05,competitor,target,1,5.606
1,167,perceptual,0.03,0.05,competitor,target,1,5.31
1,168,numeric,0.03,0.2,competitor,target,1,5.137
1,169,perceptual,0.03,0.2,target,target,1,5.436
1,170,perceptual,0.03,0.2,target,target,1,5.41
1,171,perceptual,0.1,0.2,target,target,1,4.794
1,172,numeric,0.1,0.2,target,target,1,6.801
1,173,perceptual,0.03,0.2,target,target,1,6.271
1,174,numeric,0.1,0.05,competitor,target,1,9.714
1,175,perceptual,0.1,0.05,competitor,competitor,0,6.443
1,176,numeric,0.1,0.2,competitor,target,1,6.122
1,177,perceptual,0.1,0.05,target,target,1,6.548
1,178,perceptual,0.03,0.05,target,competitor,0,7.05
1,179,numeric,0.03,0.05,competitor,competitor,0,7.535
1,180,perceptual,0.03,0.2,competitor,target,1,8.55
1,181,numeric,0.03,0.05,target,target,1,7.069
1,182,perceptual,0.1,0.05,target,target,1,5.477
1,183,perceptual,0.1,0.05,target,target,1,4.969
1,184,perceptual,0.1,0.05,competitor,target,1,6.494
1,185,numeric,0.03,0.2,target,target,1,4.722
1,186,numeric,0.1,0.2,target,target,1,9.406
1,187,numeric,0.03,0.2,competitor,target,1,5.519
1,188,numeric,0.1,0.2,target,target,1,9.5
1,189,numeric,0.03,0.05,target,competitor,0,6.419
1,190,numeric,0.03,0.2,target,competitor,0,12.482
1,191,perceptual,0.1,0.05,target,target,1,5.261
1,192,perceptual,0.03,0.2,competitor,competitor,0,9.289
2,2,numeric,0.03,0.05,competitor,target,1,12.841
2,3,numeric,0.03,0.2,target,competitor,0,8.083
2,4,perceptual,0.1,0.2,competitor,target,1,6.05
2,5,numeric,0.03,0.2,competitor,competitor,0,15.889
2,6,numeric,0.1,0.05,competitor,competitor,0,7.916
2,7,perceptual,0.1,0.05,target,target,1,7.436
2,8,perceptual,0.03,0.05,target,target,1,5.324
2,9,perceptual,0.1,0.05,target,target,1,5.961
2,10,numeric,0.03,0.05,competitor,target,1,9.028
2,11,numeric,0.03,0.05,competitor,competitor,0,7.228
2,12,numeric,0.1,0.05,target,target,1,5.393
2,13,perceptual,0.1,0.2,competitor,decoy,0,6.308
2,14,numeric,0.03,0.05,target,target,1,8.668
2,15,numeric,0.03,0.05,competitor,target,1,9.046
2,16,numeric,0.1,0.05,competitor,target,1,9.732
2,17,perceptual,0.03,0.2,competitor,competitor,0,8.564
2,18,numeric,0.1,0.05,competitor,target,1,7.239
2,19,numeric,0.1,0.2,competitor,competitor,0,8.412
2,20,perceptual,0.03,0.05,target,decoy,0,6.012
2,21,perceptual,0.1,0.05,competitor,decoy,0,3.91
2,22,perceptual,0.1,0.05,competitor,target,1,3.161
2,23,numeric,0.1,0.05,target,target,1,5.802
2,24,perceptual,0.1,0.2,target,decoy,0,6.904
2,25,numeric,0.03,0.2,competitor,target,1,7.637
2,26,perceptual,0.1,0.2,target,decoy,0,8.278
2,27,numeric,0.03,0.05,target,target,1,7.063
2,28,perceptual,0.1,0.2,target,competitor,0,4.698
2,29,perceptual,0.03,0.2,competitor,competitor,0,7.272
2,30,perceptual,0.1,0.05,target,competitor,0,6.017
2,31,numeric,0.03,0.2,target,target,1,10.713
2,32,perceptual,0.1,0.2,competitor,competitor,0,6.11
2,33,perceptual,0.03,0.05,competitor,target,1,4.474
2,34,perceptual,0.03,0.05,competitor,decoy,0,5.58
2,35,numeric,0.1,0.05,competitor,competitor,0,4.662
2,36,numeric,0.03,0.2,competitor,competitor,0,8.631
2,37,perceptual,0.03,0.2,target,decoy,0,7.969
2,38,numeric,0.03,0.2,target,decoy,0,7.262
2,39,numeric,0.03,0.2,competitor,competitor,0,6.75
2,40,perceptual,0.03,0.2,competitor,target,1,3.237
2,41,perceptual,0.03,0.05,target,competitor,0,5.054
2,42,numeric,0.1,0.2,target,target,1,5.385
2,43,numeric,0.03,0.05,target,target,1,9.546
2,44,numeric,0.1,0.05,target,target,1,5.938
2,45,numeric,0.1,0.05,target,target,1,13.432
2,46,numeric,0.1,0.05,target,target,1,8.405
2,47,perceptual,0.03,0.05,competitor,decoy,0,5.346
2,48,perceptual,0.03,0.05,competitor,target,1,4.001
2,49,numeric,0.1,0.05,target,target,1,10.804
2,50,perceptual,0.1,0.2,competitor,target,1,7.96
2,51,perceptual,0.1,0.2,competitor,decoy,0,4.706
2,52,numeric,0.1,0.2,target,target,1,7.677
2,53,perceptual,0.03,0.2,competitor,decoy,0,3.615
2,54,perceptual,0.1,0.2,target,target,1,5.78
2,55,numeric,0.1,0.05,target,target,1,6.533
2,56,perceptual,0.1,0.05,competitor,competitor,0,5.196
2,57,numeric,0.03,0.05,competitor,target,1,5.216
2,58,numeric,0.1,0.2,target,target,1,5.956
2,59,numeric,0.1,0.2,target,target,1,8.103
2,60,perceptual,0.03,0.2,competitor,decoy,0,6.13
2,61,perceptual,0.03,0.2,target,competitor,0,5.66
2,62,perceptual,0.03,0.2,target,decoy,0,5.726
2,63,perceptual,0.03,0.05,competitor,decoy,0,5.44
2,64,numeric,0.03,0.2,target,target,1,8.085
2,65,numeric,0.1,0.2,target,target,1,10.107
2,66,perceptual,0.03,0.05,target,competitor,0,6.037
2,67,perceptual,0.03,0.2,target,competitor,0,3.113
2,68,perceptual,0.03,0.2,target,competitor,0,4.36
2,69,perceptual,0.03,0.2,competitor,decoy,0,4.57
2,70,perceptual,0.03,0.2,target,competitor,0,5.467
2,71,numeric,0.03,0.2,competitor,competitor,0,10.397
2,72,perceptual,0.1,0.05,competitor,decoy,0,4.684
2,73,perceptual,0.03,0.05,competitor,target,1,6.006
2,74,numeric,0.03,0.05,competitor,competitor,0,8.429
2,75,perceptual,0.03,0.05,target,competitor,0,4.606
2,76,perceptual,0.03,0.2,competitor,competitor,0,6.372
2,77,perceptual,0.03,0.2,target,target,1,6.531
2,78,numeric,0.03,0.05,competitor,target,1,6.827
2,79,numeric,0.03,0.05,competitor,competitor,0,6.954
2,80,numeric,0.1,0.2,target,target,1,6.53
2,81,numeric,0.1,0.05,competitor,competitor,0,15.143
2,82,perceptual,0.03,0.05,competitor,decoy,0,6.061
2,83,perceptual,0.03,0.2,competitor,competitor,0,5.831
2,84,perceptual,0.03,0.05,target,target,1,7.703
2,85,numeric,0.1,0.05,competitor,target,1,6.301
2,86,numeric,0.1,0.2,competitor,target,1,5.604
2,87,numeric,0.03,0.2,target,target,1,11.537
2,88,numeric,0.1,0.05,competitor,competitor,0,15.849
2,89,numeric,0.1,0.05,target,target,1,7.465
2,90,perceptual,0.03,0.05,target,decoy,0,5.355
2,91,perceptual,0.03,0.05,target,competitor,0,4.5
2,92,numeric,0.03,0.2,target,target,1,7.77
2,93,numeric,0.03,0.2,target,target,1,5.828
2,94,numeric,0.03,0.05,target,target,1,7.232
2,95,numeric,0.1,0.2,competitor,competitor,0,9.795
2,96,numeric,0.03,0.2,competitor,target,1,7.471
2,97,numeric,0.03,0.2,target,target,1,5.258
2,98,perceptual,0.1,0.2,target,decoy,0,3.9
2,99,perceptual,0.03,0.2,competitor,decoy,0,3.849
2,100,perceptual,0.1,0.05,competitor,competitor,0,6.68
2,101,numeric,0.1,0.2,competitor,target,1,6.756
2,102,perceptual,0.1,0.05,competitor,decoy,0,5.945
2,103,numeric,0.1,0.2,competitor,target,1,11.801
2,104,numeric,0.03,0.05,target,competitor,0,9.737
2,105,numeric,0.1,0.2,target,target,1,6.941
2,106,perceptual,0.1,0.2,competitor,competitor,0,4.305
2,107,numeric,0.03,0.2,target,target,1,6.468
2,108,numeric,0.03,0.2,target,competitor,0,9.754
2,109,perceptual,0.03,0.05,competitor,competitor,0,5.304
2,110,perceptual,0.1,0.05,target,decoy,0,3.657
2,111,perceptual,0.03,0.05,target,target,1,7.569
2,112,perceptual,0.03,0.2,competitor,competitor,0,5.568
2,113,numeric,0.03,0.05,target,target,1,6.291
2,114,numeric,0.1,0.2,target,target,1,6.422
2,115,perceptual,0.1,0.05,target,competitor,0,4.818
2,116,numeric,0.03,0.05,target,target,1,9.395
2,117,numeric,0.1,0.2,target,competitor,0,11.623
2,118,perceptual,0.03,0.2,target,competitor,0,4.429
2,119,perceptual,0.03,0.2,target,competitor,0,3.669
2,120,perceptual,0.1,0.2,competitor,decoy,0,3.366
2,121,numeric,0.1,0.2,target,target,1,9.201
2,122,numeric,0.03,0.05,target,target,1,6.421
2,123,perceptual,0.03,0.05,competitor,competitor,0,5.436
2,124,numeric,0.03,0.05,target,target,1,6.396
2,125,perceptual,0.1,0.2,target,competitor,0,5.324
2,126,numeric,0.03,0.05,competitor,competitor,0,6.793
2,127,perceptual,0.1,0.05,competitor,decoy,0,7.081
2,128,perceptual,0.1,0.05,target,decoy,0,4.37
2,129,numeric,0.03,0.2,competitor,competitor,0,6.626
2,130,perceptual,0.1,0.2,target,decoy,0,5.519
2,131,perceptual,0.1,0.05,target,competitor,0,6.434
2,132,perceptual,0.03,0.05,competitor,decoy,0,5.747
2,133,numeric,0.03,0.05,competitor,competitor,0,7.162
2,134,numeric,0.1,0.2,target,target,1,8.524
2,135,perceptual,0.03,0.05,competitor,target,1,4.588
2,136,perceptual,0.1,0.05,target,competitor,0,3.862
2,137,numeric,0.1,0.05,target,target,1,7.281
2,138,numeric,0.1,0.2,competitor,target,1,8.181
2,139,perceptual,0.1,0.05,competitor,competitor,0,5.632
2,140,perceptual,0.03,0.2,target,target,1,6.279
2,141,numeric,0.1,0.05,competitor,target,1,5.771
2,142,numeric,0.03,0.05,target,target,1,9.871
2,143,numeric,0.03,0.05,competitor,target,1,10.166
2,144,numeric,0.03,0.2,competitor,decoy,0,8.729
2,145,perceptual,0.03,0.2,competitor,target,1,3.741
2,146,numeric,0.1,0.2,target,target,1,7.431
2,147,perceptual,0.1,0.2,target,decoy,0,4.601
2,148,numeric,0.1,0.2,competitor,decoy,0,10.999
2,149,perceptual,0.1,0.05,target,competitor,0,5.963
2,150,numeric,0.1,0.2,competitor,competitor,0,6.237
2,151,numeric,0.1,0.2,competitor,target,1,7.154
2,152,perceptual,0.03,0.05,competitor,target,1,6.791
2,153,numeric,0.03,0.2,competitor,competitor,0,5.969
2,154,perceptual,0.1,0.05,target,target,1,6.002
2,155,numeric,0.1,0.05,target,target,1,6.782
2,156,numeric,0.1,0.05,target,target,1,11.288
2,157,perceptual,0.03,0.05,target,decoy,0,7.647
2,158,numeric,0.03,0.05,target,target,1,8.427
2,159,perceptual,0.03,0.2,target,competitor,0,4.291
2,160,numeric,0.1,0.05,competitor,competitor,0,6.019
2,161,numeric,0.1,0.05,competitor,target,1,15.11
2,162,perceptual,0.1,0.2,competitor,competitor,0,4.146
2,163,numeric,0.03,0.05,target,competitor,0,7.132
2,164,perceptual,0.1,0.2,target,target,1,4.071
2,165,perceptual,0.03,0.2,competitor,decoy,0,3.115
2,166,perceptual,0.1,0.05,competitor,target,1,5.871
2,167,numeric,0.03,0.2,target,target,1,11.034
2,168,perceptual,0.1,0.2,target,decoy,0,3.734
2,169,numeric,0.1,0.05,target,competitor,0,9.269
2,170,numeric,0.03,0.2,target,target,1,8.763
2,171,perceptual,0.1,0.2,target,decoy,0,3.596
2,172,numeric,0.03,0.05,competitor,competitor,0,9.864
2,173,perceptual,0.1,0.05,target,competitor,0,4.597
2,174,perceptual,0.03,0.2,target,target,1,4.927
2,175,numeric,0.1,0.2,competitor,target,1,8.309
2,176,numeric,0.1,0.05,competitor,decoy,0,10.846
2,177,perceptual,0.1,0.05,target,target,1,6.852
2,178,perceptual,0.03,0.05,target,decoy,0,4.553
2,179,perceptual,0.1,0.2,competitor,decoy,0,4.685
2,180,perceptual,0.1,0.05,competitor,decoy,0,3.881
2,181,numeric,0.03,0.2,competitor,competitor,0,3.736
2,182,perceptual,0.1,0.05,competitor,competitor,0,3.302
2,183,perceptual,0.1,0.2,target,target,1,7.313
2,184,perceptual,0.03,0.05,target,competitor,0,5.683
2,185,numeric,0.1,0.05,competitor,target,1,6.014
2,186,perceptual,0.1,0.2,competitor,target,1,5.683
2,187,numeric,0.03,0.2,competitor,target,1,7.898
2,188,perceptual,0.1,0.05,competitor,decoy,0,4.28
2,189,numeric,0.1,0.2,competitor,target,1,6.005
2,190,numeric,0.03,0.2,competitor,competitor,0,8.528
2,191,perceptual,0.1,0.2,competitor,target,1,3.848
2,192,numeric,0.1,0.2,competitor,target,1,6.245
3,1,numeric,0.1,0.2,competitor,target,1,16.153
3,3,perceptual,0.1,0.2,competitor,competitor,0,5.81
3,4,perceptual,0.03,0.2,competitor,competitor,0,11.914
3,5,perceptual,0.03,0.05,competitor,competitor,0,4.332
3,6,perceptual,0.1,0.2,competitor,decoy,0,3.937
3,7,numeric,0.03,0.05,competitor,target,1,17.067
3,8,numeric,0.03,0.2,target,target,1,6.5
3,9,perceptual,0.03,0.2,target,competitor,0,7.82
3,10,numeric,0.03,0.2,target,target,1,16.066
3,11,perceptual,0.1,0.2,competitor,target,1,14.147
3,12,numeric,0.1,0.05,competitor,target,1,13.785
3,13,perceptual,0.03,0.2,target,decoy,0,3.737
3,14,perceptual,0.1,0.05,competitor,decoy,0,4.78
3,15,perceptual,0.1,0.05,target,target,1,3.681
3,16,perceptual,0.03,0.05,competitor,target,1,6.234
3,17,perceptual,0.03,0.2,competitor,decoy,0,5.38
3,18,numeric,0.03,0.05,target,target,1,10.338
3,19,numeric,0.1,0.2,target,target,1,13.404
3,20,perceptual,0.1,0.2,target,decoy,0,5.566
3,21,perceptual,0.03,0.05,competitor,target,1,8.254
3,22,perceptual,0.03,0.2,competitor,target,1,6.033
3,23,numeric,0.03,0.05,target,target,1,15.33
3,24,numeric,0.03,0.05,competitor,competitor,0,9.299
3,25,perceptual,0.1,0.2,target,decoy,0,6.45
3,26,perceptual,0.1,0.2,target,competitor,0,11.401
3,27,perceptual,0.03,0.2,competitor,competitor,0,4.63
3,28,numeric,0.1,0.2,competitor,competitor,0,14.831
3,29,perceptual,0.03,0.05,target,decoy,0,5.505
3,30,numeric,0.1,0.2,competitor,target,1,10.549
3,31,numeric,0.1,0.2,target,decoy,0,12.25
3,32,numeric,0.03,0.05,target,decoy,0,13.331
3,33,numeric,0.1,0.2,target,target,1,7.403
3,34,perceptual,0.03,0.2,competitor,target,1,5.216
3,35,perceptual,0.03,0.05,target,target,1,8.037
3,36,perceptual,0.1,0.05,target,target,1,3.77
3,37,perceptual,0.1,0.2,competitor,decoy,0,4.773
3,38,numeric,0.03,0.05,target,target,1,11.069
3,39,numeric,0.1,0.05,target,target,1,6.603
3,40,perceptual,0.03,0.2,target,target,1,9.85
3,41,perceptual,0.1,0.2,target,decoy,0,8.333
3,42,perceptual,0.1,0.2,target,decoy,0,6.817
3,43,perceptual,0.03,0.05,competitor,competitor,0,5.986
3,44,perceptual,0.03,0.2,target,decoy,0,6.052
3,45,perceptual,0.1,0.05,target,competitor,0,8.437
3,46,perceptual,0.03,0.2,competitor,target,1,4.95
3,47,perceptual,0.03,0.05,target,decoy,0,5.018
3,48,numeric,0.1,0.2,target,target,1,7.64
3,49,numeric,0.1,0.05,competitor,target,1,6.318
3,50,numeric,0.03,0.2,competitor,target,1,6.699
3,51,numeric,0.03,0.2,competitor,competitor,0,13.521
3,52,perceptual,0.03,0.05,competitor,competitor,0,5.083
3,53,perceptual,0.1,0.05,competitor,target,1,4.5
3,54,perceptual,0.1,0.05,competitor,competitor,0,4.925
3,55,numeric,0.03,0.2,target,competitor,0,18.766
3,56,numeric,0.1,0.05,competitor,target,1,9.548
3,57,numeric,0.03,0.05,competitor,target,1,10.499
3,58,numeric,0.1,0.05,target,target,1,9.248
3,59,numeric,0.1,0.2,target,target,1,11.163
3,60,perceptual,0.03,0.2,competitor,target,1,7.299
3,61,numeric,0.1,0.2,target,decoy,0,14.365
3,62,numeric,0.03,0.05,target,target,1,11.622
3,63,perceptual,0.1,0.05,target,decoy,0,9.983
3,64,numeric,0.03,0.05,competitor,decoy,0,4.951
3,65,perceptual,0.1,0.05,target,target,1,9.494
3,66,numeric,0.03,0.05,target,target,1,6.055
3,67,numeric,0.03,0.2,target,competitor,0,6.599
3,68,numeric,0.03,0.2,competitor,competitor,0,6.269
3,69,perceptual,0.03,0.2,competitor,decoy,0,4.55
3,70,perceptual,0.03,0.05,competitor,competitor,0,4.072
3,71,numeric,0.1,0.05,target,competitor,0,10.865
3,72,numeric,0.1,0.05,competitor,target,1,10.816
3,73,numeric,0.03,0.2,competitor,target,1,10.622
3,74,numeric,0.1,0.2,competitor,target,1,5.737
3,75,perceptual,0.1,0.05,competitor,target,1,5.667
3,76,perceptual,0.03,0.2,target,decoy,0,6.653
3,77,perceptual,0.1,0.2,competitor,decoy,0,5.737
3,78,perceptual,0.03,0.05,competitor,competitor,0,5.135
3,79,numeric,0.1,0.05,target,target,1,10.608
3,80,perceptual,0.1,0.2,competitor,target,1,7.14
3,81,perceptual,0.03,0.2,target,competitor,0,7.97
3,82,perceptual,0.1,0.05,target,competitor,0,17.485
3,83,numeric,0.03,0.2,target,target,1,11.983
3,84,perceptual,0.03,0.05,competitor,competitor,0,6.95
3,86,perceptual,0.1,0.2,competitor,competitor,0,0.208
3,87,numeric,0.1,0.2,target,target,1,8.734
3,88,perceptual,0.1,0.2,competitor,competitor,0,6.098
3,89,perceptual,0.1,0.2,target,decoy,0,6.397
3,90,perceptual,0.1,0.2,target,decoy,0,5.787
3,91,perceptual,0.03,0.2,target,decoy,0,4.986
3,92,numeric,0.03,0.2,competitor,target,1,14.383
3,93,perceptual,0.1,0.2,target,competitor,0,5.123
3,95,numeric,0.1,0.2,target,target,1,5.052
3,96,numeric,0.1,0.05,target,target,1,7.118
3,97,perceptual,0.03,0.2,competitor,decoy,0,5.335
3,98,perceptual,0.03,0.05,target,competitor,0,1.734
3,99,numeric,0.1,0.2,competitor,competitor,0,14.6
3,100,numeric,0.1,0.2,competitor,target,1,16.832
3,101,perceptual,0.03,0.2,target,competitor,0,7.885
3,102,numeric,0.1,0.05,competitor,target,1,9.115
3,103,numeric,0.1,0.2,competitor,competitor,0,10.965
3,104,perceptual,0.1,0.2,competitor,decoy,0,4.899
3,105,perceptual,0.1,0.2,competitor,competitor,0,2.381
3,106,perceptual,0.03,0.2,competitor,competitor,0,2.155
3,107,perceptual,0.1,0.05,competitor,target,1,1.72
3,108,numeric,0.03,0.2,target,competitor,0,7.12
3,109,numeric,0.03,0.2,competitor,target,1,5.716
3,110,perceptual,0.1,0.2,target,target,1,5.085
3,111,perceptual,0.03,0.05,target,competitor,0,4.599
3,112,numeric,0.1,0.05,target,decoy,0,12.035
3,113,perceptual,0.1,0.05,competitor,competitor,0,4.562
3,114,perceptual,0.1,0.05,competitor,decoy,0,4.973
3,115,numeric,0.03,0.05,target,competitor,0,10.081
3,116,numeric,0.03,0.2,competitor,competitor,0,10.364
3,117,perceptual,0.1,0.2,competitor,decoy,0,6.149
3,118,perceptual,0.1,0.05,target,competitor,0,3.287
3,119,numeric,0.03,0.2,competitor,competitor,0,7.569
3,120,numeric,0.03,0.2,competitor,competitor,0,9.234
3,121,numeric,0.03,0.05,target,target,1,9.959
3,122,numeric,0.1,0.05,competitor,competitor,0,7.514
3,123,numeric,0.1,0.05,competitor,competitor,0,13.565
3,124,perceptual,0.03,0.05,target,decoy,0,7.82
3,125,perceptual,0.1,0.2,target,competitor,0,8.217
3,126,numeric,0.1,0.05,competitor,target,1,7.086
3,127,numeric,0.1,0.05,target,competitor,0,5.587
3,128,numeric,0.03,0.2,target,competitor,0,8.799
3,129,perceptual,0.03,0.2,target,competitor,0,6.209
3,130,perceptual,0.1,0.05,target,competitor,0,6.118
3,131,numeric,0.1,0.2,competitor,target,1,10.067
3,132,numeric,0.1,0.2,competitor,target,1,5.849
3,133,perceptual,0.03,0.2,competitor,decoy,0,5.19
3,134,perceptual,0.03,0.05,target,competitor,0,4.503
3,135,numeric,0.03,0.05,competitor,target,1,5.401
3,136,numeric,0.03,0.05,competitor,target,1,16.084
3,137,perceptual,0.03,0.05,competitor,decoy,0,4.566
3,138,perceptual,0.03,0.05,target,decoy,0,10.486
3,139,numeric,0.1,0.05,target,target,1,6.784
3,140,perceptual,0.03,0.05,competitor,decoy,0,3.436
3,141,perceptual,0.03,0.05,target,target,1,4
3,142,numeric,0.03,0.2,competitor,target,1,6.95
3,143,numeric,0.1,0.05,competitor,target,1,5.2
3,144,numeric,0.1,0.05,competitor,competitor,0,6.618
3,145,numeric,0.03,0.2,target,target,1,10.953
3,146,numeric,0.03,0.05,competitor,target,1,11.371
3,147,perceptual,0.1,0.2,target,decoy,0,3.705
3,148,numeric,0.1,0.2,target,target,1,7.568
3,149,numeric,0.1,0.05,target,target,1,9.084
3,150,numeric,0.1,0.05,target,competitor,0,9.222
3,151,perceptual,0.03,0.05,target,competitor,0,5.533
3,152,perceptual,0.03,0.2,target,competitor,0,4.989
3,154,numeric,0.1,0.05,target,competitor,0,6.446
3,155,numeric,0.03,0.05,target,target,1,8.146
3,156,numeric,0.03,0.2,target,target,1,9.635
3,157,numeric,0.03,0.05,competitor,competitor,0,17.65
3,158,numeric,0.03,0.2,target,decoy,0,19.6
3,159,numeric,0.03,0.2,target,target,1,19.117
3,160,numeric,0.03,0.2,competitor,target,1,12.6
3,161,perceptual,0.1,0.05,competitor,target,1,11.889
3,162,numeric,0.03,0.05,target,target,1,8.72
3,163,perceptual,0.1,0.05,competitor,decoy,0,6.982
3,164,numeric,0.03,0.05,competitor,competitor,0,17.201
3,165,numeric,0.1,0.05,competitor,competitor,0,17.682
3,166,numeric,0.1,0.2,competitor,target,1,5.836
3,167,perceptual,0.1,0.05,competitor,competitor,0,10.65
3,168,perceptual,0.1,0.2,target,target,1,13.252
3,169,perceptual,0.1,0.05,competitor,decoy,0,6.199
3,170,numeric,0.03,0.2,target,target,1,6.686
3,171,numeric,0.03,0.2,competitor,competitor,0,11.667
3,172,perceptual,0.03,0.2,target,target,1,7.239
3,173,perceptual,0.03,0.05,target,decoy,0,5.706
3,174,perceptual,0.1,0.05,target,competitor,0,4.433
3,175,numeric,0.03,0.05,competitor,competitor,0,9.784
3,176,perceptual,0.1,0.05,target,target,1,6.339
3,177,perceptual,0.03,0.2,competitor,competitor,0,5.39
3,178,numeric,0.1,0.2,target,target,1,8.952
3,180,perceptual,0.1,0.05,target,target,1,5.957
3,181,perceptual,0.1,0.05,competitor,competitor,0,6.533
3,182,perceptual,0.03,0.05,target,competitor,0,3
3,183,numeric,0.1,0.2,competitor,target,1,5.673
3,184,numeric,0.1,0.2,target,target,1,16.601
3,185,perceptual,0.03,0.05,competitor,target,1,6.471
3,186,numeric,0.1,0.2,competitor,competitor,0,6.533
3,187,numeric,0.03,0.05,competitor,target,1,16.345
3,188,perceptual,0.03,0.2,target,competitor,0,6.866
3,189,perceptual,0.03,0.05,competitor,decoy,0,6.55
3,190,numeric,0.1,0.05,target,target,1,8.833
3,191,numeric,0.03,0.05,target,target,1,11.437
3,192,perceptual,0.1,0.05,target,target,1,5.117
5,1,numeric,0.1,0.05,competitor,target,1,6.772
5,2,perceptual,0.03,0.2,competitor,target,1,5.324
5,3,numeric,0.03,0.05,target,target,1,8.249
5,4,numeric,0.03,0.05,target,competitor,0,9.264
5,5,numeric,0.03,0.05,competitor,competitor,0,9.867
5,6,perceptual,0.03,0.2,competitor,competitor,0,5.314
5,7,perceptual,0.03,0.05,target,decoy,0,5.234
5,8,perceptual,0.03,0.2,competitor,target,1,4.923
5,9,numeric,0.03,0.05,target,target,1,8.568
5,10,perceptual,0.1,0.05,competitor,target,1,4.749
5,11,numeric,0.03,0.05,target,target,1,8.012
5,12,numeric,0.1,0.2,target,target,1,10.795
5,13,perceptual,0.03,0.05,competitor,target,1,2.866
5,14,perceptual,0.1,0.2,competitor,competitor,0,4.186
5,15,perceptual,0.1,0.05,competitor,target,1,3.745
5,16,perceptual,0.1,0.05,target,competitor,0,2.474
5,17,numeric,0.03,0.2,competitor,competitor,0,7.788
5,18,numeric,0.1,0.2,target,target,1,5.429
5,19,numeric,0.03,0.05,target,target,1,6.33
5,20,perceptual,0.1,0.05,competitor,target,1,5.864
5,21,numeric,0.1,0.05,target,competitor,0,9.912
5,22,numeric,0.03,0.2,target,target,1,7.551
5,23,numeric,0.1,0.05,competitor,target,1,8.113
5,24,numeric,0.1,0.05,target,decoy,0,3.442
5,25,perceptual,0.1,0.2,competitor,target,1,2.16
5,26,numeric,0.03,0.05,competitor,target,1,4.546
5,27,perceptual,0.03,0.2,target,target,1,3.147
5,28,perceptual,0.03,0.05,competitor,target,1,6.003
5,29,numeric,0.03,0.2,competitor,target,1,7.74
5,30,numeric,0.03,0.2,target,target,1,7.052
5,31,numeric,0.1,0.2,competitor,target,1,8.604
5,32,numeric,0.1,0.05,competitor,target,1,4.123
5,33,perceptual,0.03,0.05,competitor,target,1,3.649
5,34,perceptual,0.03,0.2,target,competitor,0,3.446
5,35,numeric,0.03,0.2,competitor,target,1,5.898
5,36,perceptual,0.1,0.05,target,target,1,5.532
5,37,numeric,0.1,0.05,target,target,1,7.674
5,38,perceptual,0.1,0.2,competitor,target,1,4.761
5,39,numeric,0.1,0.05,competitor,target,1,8.451
5,40,numeric,0.1,0.2,competitor,competitor,0,6.867
5,41,numeric,0.03,0.2,competitor,competitor,0,5.274
5,42,numeric,0.1,0.05,target,competitor,0,4.833
5,43,numeric,0.1,0.2,competitor,competitor,0,3.928
5,44,numeric,0.03,0.2,competitor,competitor,0,4.577
5,45,numeric,0.1,0.2,target,target,1,7.92
5,46,perceptual,0.1,0.05,competitor,competitor,0,5.283
5,47,numeric,0.1,0.2,target,target,1,5.452
5,48,perceptual,0.1,0.2,competitor,target,1,4.731
5,49,perceptual,0.1,0.05,competitor,target,1,4.829
5,50,perceptual,0.1,0.05,target,target,1,4.6
5,51,perceptual,0.1,0.2,target,competitor,0,3.737
5,52,perceptual,0.03,0.2,competitor,competitor,0,4.915
5,53,perceptual,0.1,0.05,competitor,decoy,0,5.85
5,54,numeric,0.03,0.2,target,target,1,6.719
5,55,perceptual,0.1,0.05,target,target,1,6.636
5,56,perceptual,0.1,0.05,target,decoy,0,2.996
5,57,numeric,0.1,0.2,competitor,target,1,5.502
5,58,perceptual,0.03,0.05,target,decoy,0,5.652
5,59,perceptual,0.03,0.2,competitor,competitor,0,3.849
5,60,perceptual,0.03,0.2,target,competitor,0,4.489
5,61,perceptual,0.03,0.2,target,target,1,2.908
5,62,numeric,0.03,0.05,competitor,target,1,8.85
5,63,numeric,0.03,0.2,target,target,1,11.656
5,64,perceptual,0.03,0.2,target,competitor,0,4.289
5,65,numeric,0.1,0.2,competitor,competitor,0,7.064
5,66,perceptual,0.03,0.05,target,target,1,6.76
5,67,perceptual,0.1,0.2,target,target,1,2.942
5,68,numeric,0.1,0.05,target,target,1,6.678
5,69,numeric,0.03,0.2,competitor,competitor,0,10.003
5,70,perceptual,0.03,0.05,target,competitor,0,5.532
5,71,perceptual,0.03,0.2,competitor,decoy,0,6.824
5,72,numeric,0.1,0.05,target,decoy,0,11.049
5,73,numeric,0.1,0.05,competitor,target,1,9.03
5,74,numeric,0.1,0.2,target,target,1,4.587
5,75,perceptual,0.1,0.2,competitor,target,1,6.502
5,76,numeric,0.1,0.05,target,target,1,6.808
5,77,numeric,0.03,0.05,competitor,decoy,0,10.022
5,78,numeric,0.1,0.2,competitor,competitor,0,6.146
5,79,numeric,0.03,0.2,target,target,1,9.645
5,80,perceptual,0.1,0.05,competitor,competitor,0,6.449
5,81,perceptual,0.1,0.05,target,target,1,5.351
5,82,numeric,0.03,0.05,competitor,target,1,7.945
5,83,perceptual,0.1,0.05,competitor,competitor,0,4.003
5,84,perceptual,0.03,0.2,target,target,1,3.055
5,85,perceptual,0.1,0.05,target,decoy,0,5.217
5,86,numeric,0.03,0.05,target,target,1,5.302
5,87,numeric,0.03,0.05,competitor,target,1,6.758
5,88,perceptual,0.1,0.2,target,target,1,7.436
5,89,perceptual,0.03,0.2,target,competitor,0,5.398
5,90,perceptual,0.1,0.2,competitor,target,1,5.924
5,91,perceptual,0.03,0.2,competitor,target,1,3.377
5,92,perceptual,0.03,0.2,target,competitor,0,5.975
5,93,perceptual,0.03,0.05,competitor,target,1,6.294
5,94,perceptual,0.1,0.2,target,target,1,6.99
5,95,numeric,0.1,0.05,target,target,1,9.661
5,96,numeric,0.03,0.05,competitor,competitor,0,10.462
5,97,perceptual,0.03,0.2,competitor,target,1,5.698
5,98,perceptual,0.03,0.2,target,target,1,4.538
5,99,numeric,0.1,0.2,target,competitor,0,4.97
5,100,numeric,0.1,0.05,target,target,1,8.657
5,101,numeric,0.03,0.05,target,target,1,9.629
5,102,numeric,0.1,0.2,target,target,1,10.11
5,103,perceptual,0.03,0.2,competitor,target,1,5.387
5,104,perceptual,0.1,0.2,competitor,decoy,0,8.555
5,105,numeric,0.03,0.05,competitor,competitor,0,10.301
5,106,perceptual,0.03,0.05,target,decoy,0,5.797
5,107,numeric,0.03,0.05,competitor,decoy,0,5.813
5,108,perceptual,0.1,0.2,target,competitor,0,5.559
5,109,numeric,0.1,0.2,competitor,competitor,0,6.261
5,110,numeric,0.1,0.05,target,target,1,7.69
5,111,numeric,0.03,0.05,target,target,1,4.023
5,112,perceptual,0.1,0.2,competitor,competitor,0,3.896
5,113,perceptual,0.03,0.05,target,target,1,7.14
5,114,numeric,0.03,0.05,competitor,target,1,5.744
5,115,perceptual,0.1,0.05,target,competitor,0,4.326
5,116,numeric,0.03,0.2,target,target,1,7.078
5,117,numeric,0.03,0.2,competitor,competitor,0,7.308
5,118,numeric,0.1,0.2,competitor,competitor,0,3.268
5,119,perceptual,0.1,0.05,target,competitor,0,4.588
5,120,perceptual,0.03,0.2,competitor,target,1,3.281
5,121,perceptual,0.03,0.05,competitor,target,1,6.426
5,122,numeric,0.1,0.2,competitor,competitor,0,3.876
5,123,perceptual,0.03,0.05,competitor,target,1,3.527
5,124,numeric,0.03,0.2,target,decoy,0,3.581
5,125,numeric,0.1,0.05,target,target,1,9.078
5,126,numeric,0.03,0.2,competitor,target,1,7.484
5,127,perceptual,0.1,0.05,target,target,1,3.485
5,128,perceptual,0.03,0.2,target,competitor,0,3.564
5,129,perceptual,0.03,0.05,competitor,competitor,0,3.705
5,130,perceptual,0.03,0.05,target,decoy,0,3.686
5,131,numeric,0.1,0.2,competitor,target,1,5.363
5,132,numeric,0.1,0.05,target,target,1,3.747
5,133,perceptual,0.1,0.2,competitor,target,1,3.313
5,134,numeric,0.1,0.05,competitor,competitor,0,6.446
5,135,numeric,0.1,0.05,competitor,target,1,3.655
5,136,perceptual,0.03,0.05,competitor,decoy,0,5.198
5,137,perceptual,0.03,0.05,competitor,target,1,2.747
5,138,numeric,0.1,0.2,target,decoy,0,3.897
5,139,numeric,0.03,0.2,target,target,1,4.29
5,140,numeric,0.03,0.05,competitor,target,1,11.246
5,141,numeric,0.1,0.05,competitor,target,1,4.28
5,142,perceptual,0.03,0.05,competitor,target,1,3.496
5,143,numeric,0.03,0.2,target,competitor,0,4.638
5,144,perceptual,0.1,0.05,competitor,target,1,3.144
5,145,numeric,0.1,0.05,competitor,target,1,3.848
5,148,perceptual,0.03,0.2,competitor,competitor,0,0.413
5,149,perceptual,0.1,0.2,competitor,target,1,4.023
5,150,perceptual,0.1,0.05,competitor,decoy,0,4.1
5,151,perceptual,0.03,0.05,competitor,target,1,8.078
5,152,numeric,0.1,0.2,competitor,target,1,2.594
5,153,perceptual,0.03,0.2,competitor,target,1,2.791
5,154,numeric,0.03,0.2,competitor,target,1,4.382
5,155,numeric,0.03,0.05,competitor,competitor,0,2.79
5,156,perceptual,0.03,0.05,target,target,1,3.35
5,157,numeric,0.03,0.05,target,target,1,18.202
5,158,numeric,0.03,0.05,target,target,1,5.632
5,159,perceptual,0.1,0.2,target,target,1,4.188
5,160,numeric,0.1,0.05,competitor,competitor,0,4.67
5,161,numeric,0.03,0.2,target,target,1,4.215
5,162,numeric,0.1,0.2,target,target,1,4.483
5,163,numeric,0.03,0.2,competitor,decoy,0,3.562
5,164,numeric,0.1,0.2,target,target,1,3.777
5,165,perceptual,0.03,0.2,target,competitor,0,2.935
5,166,numeric,0.03,0.05,target,decoy,0,6.628
5,167,perceptual,0.1,0.2,target,competitor,0,5.149
5,168,perceptual,0.1,0.2,target,competitor,0,4.063
5,169,perceptual,0.03,0.05,competitor,competitor,0,4.301
5,170,perceptual,0.1,0.05,competitor,target,1,3.366
5,171,numeric,0.1,0.05,competitor,competitor,0,4.38
5,172,perceptual,0.03,0.05,target,target,1,4.281
5,173,numeric,0.03,0.05,target,target,1,8.226
5,174,numeric,0.03,0.2,competitor,competitor,0,7.049
5,175,perceptual,0.1,0.05,target,target,1,4.035
5,176,numeric,0.03,0.2,competitor,target,1,7.469
5,177,perceptual,0.03,0.05,target,decoy,0,3.166
5,178,numeric,0.03,0.2,target,target,1,5.916
5,179,perceptual,0.1,0.2,competitor,competitor,0,4.065
5,180,perceptual,0.1,0.2,competitor,target,1,5.455
5,181,numeric,0.1,0.05,competitor,target,1,10.652
5,182,perceptual,0.1,0.2,target,decoy,0,3.687
5,183,perceptual,0.1,0.2,target,competitor,0,4.239
5,184,perceptual,0.1,0.05,competitor,competitor,0,4.33
5,185,numeric,0.1,0.2,competitor,target,1,5.965
5,186,perceptual,0.1,0.05,target,decoy,0,4.604
5,187,perceptual,0.1,0.2,target,decoy,0,2.778
5,188,numeric,0.1,0.2,target,target,1,5.249
5,189,perceptual,0.1,0.2,target,competitor,0,3.579
5,190,perceptual,0.03,0.2,target,decoy,0,2.233
5,191,numeric,0.03,0.2,target,target,1,3.536
5,192,perceptual,0.03,0.05,target,competitor,0,4.902
6,1,perceptual,0.03,0.05,competitor,target,1,8.749
6,2,numeric,0.1,0.2,target,target,1,8.484
6,3,numeric,0.03,0.05,competitor,competitor,0,6.033
6,4,numeric,0.03,0.05,competitor,target,1,5.743
6,5,numeric,0.1,0.05,competitor,competitor,0,6.316
6,6,numeric,0.03,0.2,competitor,decoy,0,4.903
6,7,numeric,0.1,0.2,target,target,1,9.339
6,8,perceptual,0.1,0.2,target,decoy,0,3.768
6,9,perceptual,0.03,0.2,target,target,1,3.112
6,10,numeric,0.1,0.05,competitor,target,1,3.738
6,11,numeric,0.03,0.05,target,target,1,2.636
6,12,numeric,0.03,0.2,competitor,competitor,0,3.355
6,13,numeric,0.1,0.05,competitor,competitor,0,4.63
6,14,perceptual,0.03,0.05,target,competitor,0,4.985
6,15,numeric,0.1,0.2,competitor,target,1,3.863
6,16,numeric,0.03,0.2,target,target,1,2.131
6,17,numeric,0.03,0.05,competitor,competitor,0,3.002
6,18,perceptual,0.03,0.2,competitor,competitor,0,3.076
6,19,perceptual,0.1,0.2,target,competitor,0,3.607
6,20,numeric,0.1,0.05,target,competitor,0,6.863
6,21,perceptual,0.03,0.05,competitor,target,1,3.301
6,22,perceptual,0.1,0.05,target,target,1,3.364
6,23,numeric,0.1,0.05,competitor,target,1,6.848
6,24,perceptual,0.03,0.05,target,decoy,0,5.157
6,25,numeric,0.1,0.05,competitor,decoy,0,5.5
6,26,numeric,0.1,0.2,competitor,competitor,0,1.853
6,27,numeric,0.1,0.2,target,competitor,0,1.293
6,28,perceptual,0.1,0.2,competitor,target,1,1.276
6,29,numeric,0.1,0.2,competitor,competitor,0,1.277
6,30,perceptual,0.03,0.2,competitor,competitor,0,2.287
6,31,perceptual,0.03,0.2,competitor,decoy,0,2.202
6,32,perceptual,0.03,0.2,target,target,1,2.25
6,33,numeric,0.1,0.2,competitor,target,1,3.49
6,34,numeric,0.1,0.05,target,decoy,0,2.321
6,35,perceptual,0.1,0.2,target,decoy,0,2.137
6,36,perceptual,0.1,0.2,competitor,target,1,1.896
6,37,perceptual,0.03,0.05,target,decoy,0,2.356
6,38,perceptual,0.03,0.05,competitor,competitor,0,3.133
6,39,numeric,0.1,0.05,competitor,target,1,6.078
6,40,perceptual,0.1,0.05,target,decoy,0,4.428
6,41,perceptual,0.1,0.05,target,target,1,4.358
6,42,perceptual,0.1,0.05,competitor,target,1,3.018
6,43,perceptual,0.1,0.2,competitor,target,1,3.586
6,44,perceptual,0.03,0.05,competitor,competitor,0,3.635
6,45,perceptual,0.1,0.05,target,target,1,4.437
6,46,numeric,0.03,0.2,competitor,target,1,7.449
6,47,numeric,0.1,0.2,target,target,1,6.745
6,48,perceptual,0.03,0.2,competitor,target,1,3.228
6,49,numeric,0.03,0.05,competitor,competitor,0,6.042
6,50,perceptual,0.1,0.2,competitor,target,1,3.757
6,51,numeric,0.03,0.05,competitor,target,1,3.858
6,52,perceptual,0.03,0.2,competitor,competitor,0,4.137
6,53,numeric,0.03,0.05,target,target,1,4.181
6,54,perceptual,0.03,0.2,competitor,target,1,2.602
6,55,numeric,0.03,0.2,target,decoy,0,3.149
6,56,numeric,0.1,0.05,target,decoy,0,3.326
6,57,perceptual,0.1,0.05,competitor,target,1,3.149
6,58,numeric,0.1,0.2,target,target,1,2.869
6,59,perceptual,0.1,0.05,competitor,competitor,0,2.138
6,60,perceptual,0.1,0.05,target,competitor,0,3.1
6,61,numeric,0.03,0.2,target,competitor,0,3.757
6,62,numeric,0.1,0.05,target,target,1,3.062
6,63,numeric,0.03,0.05,target,competitor,0,3.001
6,64,numeric,0.03,0.2,target,competitor,0,2.866
6,65,perceptual,0.1,0.2,target,competitor,0,3.195
6,66,perceptual,0.03,0.05,competitor,decoy,0,3.467
6,67,numeric,0.03,0.05,competitor,competitor,0,3.05
6,68,perceptual,0.1,0.2,competitor,target,1,2.696
6,69,perceptual,0.03,0.05,competitor,target,1,3.104
6,70,numeric,0.1,0.2,competitor,target,1,2.723
6,71,numeric,0.03,0.2,competitor,competitor,0,2.845
6,72,numeric,0.03,0.05,target,competitor,0,4.827
6,73,numeric,0.03,0.05,competitor,target,1,5.269
6,74,perceptual,0.1,0.05,competitor,target,1,4.943
6,75,perceptual,0.1,0.2,target,target,1,4.449
6,76,perceptual,0.1,0.05,target,target,1,5.127
6,77,perceptual,0.1,0.05,target,target,1,6.631
6,78,numeric,0.1,0.2,target,competitor,0,4.934
6,79,perceptual,0.03,0.2,competitor,target,1,3.875
6,80,numeric,0.1,0.05,target,decoy,0,14.882
6,81,perceptual,0.03,0.2,target,target,1,4.25
6,82,perceptual,0.1,0.2,target,target,1,3.493
6,83,numeric,0.03,0.2,target,target,1,16.68
6,84,numeric,0.1,0.2,target,competitor,0,9.113
6,85,perceptual,0.03,0.05,competitor,decoy,0,5.108
6,86,numeric,0.03,0.05,target,competitor,0,9.085
6,87,perceptual,0.1,0.2,target,target,1,6.209
6,88,numeric,0.1,0.2,target,target,1,11.559
6,89,numeric,0.03,0.05,target,competitor,0,17.19
6,90,numeric,0.03,0.2,competitor,target,1,7.635
6,91,numeric,0.03,0.2,target,competitor,0,8.092
6,92,numeric,0.03,0.2,competitor,competitor,0,4.84
6,93,perceptual,0.03,0.05,target,target,1,5.073
6,94,perceptual,0.1,0.05,competitor,competitor,0,6.699
6,95,perceptual,0.03,0.2,competitor,competitor,0,6.416
6,96,perceptual,0.1,0.2,competitor,target,1,5.859
6,97,perceptual,0.1,0.05,competitor,target,1,8.997
6,98,perceptual,0.03,0.2,target,competitor,0,10.468
6,99,numeric,0.1,0.05,target,competitor,0,12.025
6,100,numeric,0.03,0.2,target,target,1,6.536
6,101,numeric,0.1,0.2,target,target,1,4.232
6,102,numeric,0.1,0.05,competitor,target,1,10.927
6,103,numeric,0.03,0.2,target,target,1,4.429
6,104,numeric,0.03,0.2,competitor,target,1,3.669
6,105,numeric,0.03,0.2,competitor,competitor,0,8.622
6,106,perceptual,0.03,0.2,target,target,1,4.45
6,107,numeric,0.03,0.2,competitor,competitor,0,5.959
6,109,numeric,0.1,0.05,competitor,target,1,9.643
6,110,numeric,0.1,0.2,competitor,target,1,6.281
6,111,numeric,0.03,0.2,target,target,1,7.875
6,112,numeric,0.03,0.05,target,competitor,0,7.481
6,113,perceptual,0.1,0.2,competitor,target,1,3.463
6,114,perceptual,0.03,0.05,competitor,target,1,4.183
6,115,numeric,0.1,0.2,target,target,1,8.483
6,116,numeric,0.03,0.05,target,competitor,0,5.236
6,117,numeric,0.1,0.05,competitor,competitor,0,8.409
6,118,perceptual,0.03,0.2,target,target,1,8.037
6,119,perceptual,0.1,0.2,competitor,competitor,0,5.293
6,120,perceptual,0.03,0.05,target,competitor,0,9.902
6,121,numeric,0.1,0.2,competitor,competitor,0,9.893
6,122,perceptual,0.1,0.05,competitor,target,1,3.669
6,123,perceptual,0.1,0.2,target,target,1,5.449
6,124,numeric,0.03,0.05,target,target,1,5.405
6,125,numeric,0.1,0.2,competitor,competitor,0,4.419
6,126,numeric,0.03,0.2,target,competitor,0,4.304
6,127,numeric,0.1,0.2,competitor,target,1,4.953
6,128,perceptual,0.03,0.05,competitor,target,1,4.355
6,129,perceptual,0.03,0.2,competitor,target,1,3.55
6,130,numeric,0.1,0.05,target,competitor,0,3.969
6,131,numeric,0.03,0.05,target,target,1,4.399
6,132,perceptual,0.03,0.05,target,decoy,0,3.337
6,133,perceptual,0.1,0.05,competitor,competitor,0,4.443
6,134,numeric,0.03,0.2,competitor,competitor,0,6.324
6,135,perceptual,0.1,0.05,target,target,1,4.693
6,136,perceptual,0.03,0.2,target,decoy,0,4.057
6,137,perceptual,0.03,0.05,target,decoy,0,7.94
6,138,numeric,0.1,0.05,target,target,1,4.787
6,139,perceptual,0.03,0.2,competitor,competitor,0,3.64
6,140,numeric,0.1,0.2,competitor,competitor,0,6.925
6,141,numeric,0.03,0.05,competitor,competitor,0,9.176
6,142,perceptual,0.03,0.05,target,decoy,0,4.469
6,143,perceptual,0.1,0.05,target,target,1,4.224
6,144,perceptual,0.1,0.2,competitor,target,1,4.489
6,145,numeric,0.1,0.05,target,target,1,6.075
6,146,numeric,0.1,0.05,target,target,1,9.741
6,147,perceptual,0.1,0.2,competitor,target,1,4.119
6,148,perceptual,0.1,0.2,target,competitor,0,6.019
6,149,perceptual,0.1,0.05,target,target,1,4.79
6,150,numeric,0.03,0.2,competitor,competitor,0,4.796
6,151,perceptual,0.03,0.05,competitor,competitor,0,3.741
6,152,perceptual,0.03,0.05,target,decoy,0,3.861
6,153,numeric,0.1,0.05,competitor,target,1,4.968
6,154,numeric,0.03,0.2,competitor,competitor,0,4.731
6,155,perceptual,0.1,0.05,competitor,decoy,0,4.091
6,156,perceptual,0.1,0.2,target,target,1,4.345
6,157,numeric,0.03,0.05,competitor,competitor,0,5.199
6,158,perceptual,0.03,0.05,target,target,1,4.912
6,159,perceptual,0.03,0.2,target,target,1,4.449
6,160,perceptual,0.1,0.05,competitor,target,1,4.068
6,161,numeric,0.03,0.05,competitor,target,1,4.932
6,162,numeric,0.1,0.2,competitor,competitor,0,4.683
6,163,perceptual,0.03,0.05,target,competitor,0,4.318
6,164,perceptual,0.1,0.05,competitor,competitor,0,4.984
6,165,numeric,0.03,0.05,target,target,1,6.001
6,166,numeric,0.1,0.05,target,competitor,0,3.549
6,167,perceptual,0.03,0.2,target,competitor,0,3.19
6,168,perceptual,0.03,0.05,competitor,competitor,0,5.179
6,169,numeric,0.03,0.05,competitor,target,1,6.959
6,170,perceptual,0.1,0.2,competitor,competitor,0,4.435
6,171,perceptual,0.03,0.2,target,target,1,3.166
6,172,perceptual,0.1,0.05,competitor,target,1,5.199
6,173,perceptual,0.03,0.2,competitor,target,1,6.859
6,174,numeric,0.03,0.2,target,target,1,4.607
6,175,numeric,0.1,0.05,competitor,target,1,5.216
6,176,perceptual,0.03,0.2,competitor,target,1,3.609
6,177,perceptual,0.1,0.2,target,target,1,5.883
6,178,perceptual,0.1,0.05,target,competitor,0,2.56
6,179,perceptual,0.03,0.05,competitor,target,1,4.579
6,180,perceptual,0.1,0.05,target,decoy,0,10.821
6,181,numeric,0.03,0.05,competitor,competitor,0,5.859
6,182,numeric,0.1,0.2,target,target,1,8.185
6,183,perceptual,0.1,0.2,target,target,1,8.876
6,184,numeric,0.03,0.2,target,competitor,0,14.047
6,185,numeric,0.1,0.05,competitor,target,1,17.793
6,186,perceptual,0.03,0.05,target,competitor,0,4.397
6,187,perceptual,0.03,0.2,target,target,1,4.848
6,188,numeric,0.1,0.2,competitor,competitor,0,5.543
6,189,numeric,0.1,0.05,target,competitor,0,5.743
6,190,perceptual,0.1,0.2,competitor,target,1,4.711
6,191,perceptual,0.03,0.2,target,target,1,4.245
6,192,numeric,0.1,0.2,target,competitor,0,13.454
7,1,numeric,0.1,0.05,target,target,1,9.711
7,2,perceptual,0.03,0.05,target,competitor,0,8.945
7,3,perceptual,0.1,0.05,target,decoy,0,3.869
7,4,numeric,0.1,0.2,target,target,1,7.247
7,5,numeric,0.03,0.2,competitor,target,1,7.707
7,6,numeric,0.1,0.2,competitor,target,1,6.361
7,7,numeric,0.1,0.05,target,target,1,7.46
7,8,numeric,0.03,0.2,competitor,competitor,0,4.422
7,9,numeric,0.1,0.2,competitor,competitor,0,12.193
7,10,numeric,0.1,0.05,target,competitor,0,9.869
7,11,perceptual,0.1,0.05,target,target,1,8.63
7,12,numeric,0.1,0.2,target,target,1,5.644
7,13,numeric,0.03,0.05,target,target,1,9.032
7,14,numeric,0.03,0.2,competitor,target,1,11.21
7,15,numeric,0.1,0.05,competitor,target,1,11.352
7,16,perceptual,0.03,0.05,competitor,decoy,0,5.936
7,17,perceptual,0.03,0.2,target,target,1,4.509
7,18,numeric,0.1,0.05,target,decoy,0,12.686
7,19,numeric,0.1,0.05,target,target,1,7.81
7,20,numeric,0.1,0.05,target,target,1,7.856
7,21,numeric,0.1,0.05,target,target,1,5.408
7,22,perceptual,0.1,0.05,competitor,target,1,4.349
7,23,numeric,0.03,0.05,competitor,target,1,7.188
7,24,perceptual,0.1,0.05,competitor,target,1,4.156
7,25,numeric,0.1,0.2,target,target,1,4.133
7,26,perceptual,0.1,0.2,competitor,target,1,3.906
7,27,numeric,0.03,0.2,target,competitor,0,9.03
7,28,perceptual,0.03,0.05,target,target,1,5.648
7,29,perceptual,0.1,0.2,competitor,competitor,0,6.038
7,30,perceptual,0.03,0.05,target,competitor,0,7.114
7,31,perceptual,0.03,0.2,target,target,1,8.488
7,32,numeric,0.1,0.05,competitor,target,1,5.436
7,33,numeric,0.1,0.2,target,target,1,5.921
7,34,numeric,0.03,0.05,competitor,target,1,6.893
7,35,numeric,0.1,0.05,competitor,target,1,8.561
7,36,perceptual,0.1,0.2,target,target,1,8.469
7,37,perceptual,0.1,0.2,competitor,target,1,3.8
7,38,numeric,0.03,0.2,target,target,1,16.202
7,39,numeric,0.1,0.05,target,target,1,4.339
7,40,perceptual,0.1,0.05,target,decoy,0,5.845
7,41,perceptual,0.03,0.05,competitor,target,1,5.486
7,42,numeric,0.03,0.2,target,target,1,7.538
7,43,numeric,0.1,0.05,competitor,target,1,3.827
7,44,numeric,0.03,0.2,target,target,1,11.264
7,45,numeric,0.1,0.05,competitor,competitor,0,9.362
7,46,perceptual,0.03,0.05,competitor,competitor,0,3.29
7,47,numeric,0.03,0.05,target,target,1,9.07
7,48,numeric,0.1,0.05,target,target,1,8.009
7,49,numeric,0.1,0.05,competitor,target,1,9.647
7,50,perceptual,0.1,0.05,target,target,1,3.768
7,51,perceptual,0.1,0.05,competitor,competitor,0,2.433
7,52,numeric,0.1,0.05,competitor,target,1,2.763
7,53,perceptual,0.1,0.2,target,target,1,2.628
7,54,numeric,0.03,0.05,target,competitor,0,8.898
7,55,perceptual,0.1,0.05,competitor,target,1,6.963
7,56,numeric,0.1,0.05,competitor,competitor,0,10.128
7,57,perceptual,0.1,0.2,target,target,1,5.151
7,58,numeric,0.1,0.2,competitor,target,1,4.729
7,59,numeric,0.1,0.05,competitor,target,1,3.611
7,60,perceptual,0.03,0.05,target,target,1,0.183
7,61,numeric,0.1,0.2,target,target,1,3.121
7,62,numeric,0.03,0.05,competitor,competitor,0,9.188
7,63,perceptual,0.1,0.05,competitor,target,1,3.703
7,64,perceptual,0.1,0.05,competitor,target,1,2.267
7,65,perceptual,0.1,0.05,competitor,competitor,0,5.628
7,66,numeric,0.03,0.05,target,target,1,7.454
7,67,perceptual,0.03,0.2,competitor,competitor,0,3.779
7,68,numeric,0.1,0.2,competitor,competitor,0,4.815
7,69,perceptual,0.1,0.2,target,target,1,4.182
7,70,numeric,0.03,0.05,target,decoy,0,3.03
7,71,numeric,0.03,0.2,competitor,target,1,3.805
7,72,perceptual,0.1,0.2,target,target,1,4.102
7,73,perceptual,0.1,0.2,target,target,1,4.822
7,74,perceptual,0.03,0.2,target,target,1,2.79
7,75,perceptual,0.03,0.2,competitor,target,1,4.676
7,76,numeric,0.1,0.05,target,target,1,6.189
7,77,numeric,0.03,0.05,target,competitor,0,0.983
7,78,perceptual,0.03,0.2,target,target,1,4.013
7,79,perceptual,0.03,0.05,target,target,1,3.19
7,80,numeric,0.1,0.05,competitor,target,1,5.343
7,81,numeric,0.03,0.2,competitor,target,1,5.049
7,82,perceptual,0.1,0.2,competitor,competitor,0,6.471
7,83,numeric,0.03,0.2,target,target,1,7.153
7,84,perceptual,0.03,0.05,competitor,competitor,0,2.485
7,85,perceptual,0.1,0.2,competitor,target,1,3.134
7,86,numeric,0.03,0.2,target,competitor,0,4.595
7,87,perceptual,0.03,0.2,target,target,1,2.542
7,88,perceptual,0.03,0.05,competitor,target,1,4.587
7,89,perceptual,0.03,0.05,target,competitor,0,3.383
7,90,perceptual,0.03,0.2,competitor,target,1,3.803
7,91,perceptual,0.1,0.2,competitor,target,1,3.034
7,92,perceptual,0.03,0.05,target,target,1,4.29
7,93,perceptual,0.1,0.2,competitor,target,1,3.724
7,94,perceptual,0.1,0.2,target,target,1,1.982
7,95,numeric,0.03,0.2,target,decoy,0,9.986
7,96,perceptual,0.03,0.05,target,decoy,0,6.846
7,97,perceptual,0.03,0.05,target,target,1,9.024
7,98,numeric,0.03,0.05,competitor,competitor,0,5.16
7,99,perceptual,0.03,0.2,competitor,competitor,0,2.131
7,100,numeric,0.03,0.2,competitor,competitor,0,3.021
7,101,numeric,0.03,0.05,competitor,target,1,4.849
7,102,perceptual,0.1,0.05,competitor,decoy,0,3.982
7,103,numeric,0.1,0.2,target,target,1,6.705
7,104,perceptual,0.1,0.2,target,target,1,3.28
7,105,perceptual,0.1,0.05,target,competitor,0,2.847
7,106,numeric,0.1,0.2,competitor,target,1,4.974
7,107,numeric,0.03,0.05,competitor,target,1,5.316
7,108,numeric,0.1,0.2,competitor,target,1,3.066
7,109,perceptual,0.03,0.05,competitor,decoy,0,2.952
7,110,numeric,0.03,0.2,competitor,competitor,0,4.861
7,111,perceptual,0.03,0.05,target,target,1,3.15
7,112,perceptual,0.03,0.05,target,competitor,0,2.713
7,113,numeric,0.1,0.2,target,competitor,0,2.098
7,114,perceptual,0.1,0.2,competitor,target,1,2.505
7,115,perceptual,0.03,0.2,competitor,competitor,0,3.086
7,116,numeric,0.03,0.2,target,competitor,0,5.529
7,117,perceptual,0.1,0.05,competitor,target,1,3.321
7,118,numeric,0.03,0.2,target,competitor,0,5.895
7,119,numeric,0.03,0.05,competitor,target,1,2.573
7,120,perceptual,0.03,0.2,target,target,1,2.568
7,121,perceptual,0.03,0.05,competitor,competitor,0,2.972
7,122,numeric,0.03,0.05,target,target,1,10.317
7,123,perceptual,0.03,0.05,competitor,target,1,2.813
7,124,perceptual,0.1,0.2,target,target,1,2.791
7,125,numeric,0.1,0.2,target,target,1,3.833
7,126,perceptual,0.1,0.05,target,decoy,0,2.593
7,127,numeric,0.03,0.2,target,competitor,0,4.121
7,128,numeric,0.1,0.2,target,competitor,0,3.189
7,129,perceptual,0.1,0.2,competitor,target,1,3.844
7,130,perceptual,0.1,0.2,competitor,competitor,0,3.336
7,131,perceptual,0.03,0.2,competitor,target,1,2.558
7,132,perceptual,0.1,0.05,target,target,1,3.674
7,133,perceptual,0.03,0.2,competitor,target,1,4.196
7,134,numeric,0.1,0.05,target,target,1,6.666
7,135,numeric,0.1,0.2,target,target,1,6.114
7,136,numeric,0.03,0.05,competitor,competitor,0,10.682
7,137,numeric,0.1,0.2,target,target,1,3.086
7,138,numeric,0.03,0.05,target,decoy,0,2.754
7,139,perceptual,0.1,0.05,competitor,target,1,3.5
7,140,perceptual,0.03,0.2,target,target,1,3.079
7,141,perceptual,0.03,0.2,target,competitor,0,2.597
7,142,numeric,0.03,0.2,competitor,target,1,3.35
7,143,perceptual,0.1,0.2,competitor,target,1,3.589
7,144,numeric,0.1,0.2,competitor,competitor,0,4.24
7,145,numeric,0.1,0.05,competitor,target,1,6.242
7,146,perceptual,0.1,0.05,target,decoy,0,3.272
7,147,numeric,0.03,0.05,competitor,target,1,2.922
7,148,numeric,0.03,0.05,competitor,target,1,2.327
7,149,perceptual,0.03,0.05,competitor,target,1,3.24
7,150,numeric,0.03,0.05,target,competitor,0,2.064
7,151,perceptual,0.1,0.05,target,decoy,0,2.027
7,152,numeric,0.1,0.05,competitor,target,1,4.912
7,153,perceptual,0.1,0.2,competitor,target,1,2.642
7,154,numeric,0.03,0.2,competitor,competitor,0,6.246
7,155,perceptual,0.03,0.05,competitor,target,1,3.813
7,156,perceptual,0.03,0.2,competitor,target,1,4.33
7,157,perceptual,0.03,0.05,competitor,target,1,4.325
7,158,numeric,0.1,0.2,competitor,competitor,0,6.264
7,159,perceptual,0.1,0.05,competitor,competitor,0,2.953
7,160,numeric,0.03,0.2,competitor,competitor,0,2.31
7,161,numeric,0.1,0.2,competitor,target,1,3.193
7,162,perceptual,0.03,0.05,target,competitor,0,2.678
7,163,numeric,0.1,0.2,competitor,target,1,3.409
7,164,perceptual,0.1,0.2,target,target,1,4.366
7,165,numeric,0.03,0.2,target,target,1,3.637
7,166,perceptual,0.03,0.2,target,target,1,2.325
7,167,perceptual,0.03,0.2,competitor,target,1,2.545
7,168,numeric,0.1,0.2,target,competitor,0,3.176
7,169,perceptual,0.1,0.05,target,competitor,0,3.295
7,170,perceptual,0.1,0.2,target,competitor,0,3.892
7,171,numeric,0.03,0.2,competitor,competitor,0,4.596
7,172,perceptual,0.03,0.2,target,competitor,0,3.091
7,173,numeric,0.1,0.2,competitor,competitor,0,3.264
7,174,numeric,0.03,0.05,target,decoy,0,4.002
7,175,perceptual,0.1,0.05,target,target,1,3.09
7,176,perceptual,0.03,0.2,competitor,competitor,0,3.185
7,177,perceptual,0.03,0.05,competitor,target,1,2.506
7,178,numeric,0.1,0.05,target,competitor,0,2.968
7,179,perceptual,0.1,0.2,target,target,1,3.809
7,180,perceptual,0.03,0.2,competitor,target,1,2.728
7,181,perceptual,0.1,0.05,competitor,competitor,0,4.614
7,182,perceptual,0.03,0.2,target,competitor,0,4.218
7,183,perceptual,0.1,0.05,target,competitor,0,5.836
7,184,numeric,0.03,0.05,competitor,competitor,0,4.016
7,185,numeric,0.03,0.05,target,target,1,5.258
7,186,perceptual,0.03,0.2,competitor,target,1,3.128
7,187,numeric,0.03,0.05,target,target,1,6.858
7,188,numeric,0.03,0.2,competitor,target,1,3.004
7,189,numeric,0.03,0.05,competitor,competitor,0,2.79
7,190,perceptual,0.03,0.2,target,competitor,0,3.445
7,191,numeric,0.03,0.2,target,target,1,3.284
7,192,numeric,0.1,0.2,competitor,competitor,0,11.458
8,1,perceptual,0.03,0.2,target,competitor,0,5.158
8,2,perceptual,0.1,0.2,target,target,1,3.739
8,3,perceptual,0.1,0.05,target,target,1,6.486
8,4,numeric,0.1,0.2,competitor,target,1,10.978
8,5,numeric,0.1,0.2,competitor,target,1,7.43
8,6,numeric,0.1,0.2,competitor,target,1,5.768
8,7,perceptual,0.03,0.2,target,competitor,0,6.35
8,8,numeric,0.1,0.05,target,target,1,7.49
8,9,numeric,0.03,0.05,competitor,competitor,0,8.353
8,10,numeric,0.03,0.2,competitor,competitor,0,5.777
8,11,perceptual,0.03,0.05,target,target,1,6.159
8,12,perceptual,0.03,0.05,competitor,target,1,7.628
8,13,numeric,0.1,0.2,competitor,competitor,0,8.518
8,14,numeric,0.03,0.2,target,target,1,8
8,15,numeric,0.1,0.05,competitor,target,1,8.076
8,16,perceptual,0.1,0.05,competitor,target,1,4.919
8,17,perceptual,0.03,0.2,competitor,target,1,7.939
8,18,perceptual,0.1,0.05,competitor,competitor,0,6.81
8,19,numeric,0.03,0.05,target,target,1,6.208
8,20,numeric,0.1,0.05,target,target,1,7.993
8,21,perceptual,0.1,0.2,competitor,target,1,5.539
8,22,perceptual,0.1,0.2,target,target,1,6.398
8,23,numeric,0.03,0.2,competitor,target,1,15.624
8,24,numeric,0.1,0.05,target,target,1,8.003
8,25,numeric,0.03,0.05,competitor,target,1,12.208
8,26,numeric,0.03,0.05,competitor,competitor,0,10.904
8,27,perceptual,0.1,0.2,target,target,1,8.111
8,28,perceptual,0.03,0.05,target,target,1,7.76
8,29,numeric,0.1,0.2,competitor,target,1,8.128
8,30,numeric,0.1,0.2,competitor,target,1,5.639
8,31,numeric,0.03,0.05,target,target,1,9.257
8,32,numeric,0.03,0.2,target,target,1,10.635
8,33,numeric,0.1,0.05,competitor,target,1,15.963
8,34,perceptual,0.03,0.05,target,target,1,9
8,35,perceptual,0.03,0.05,target,target,1,5.57
8,36,numeric,0.03,0.05,competitor,target,1,10.646
8,37,numeric,0.03,0.2,target,target,1,14.62
8,38,perceptual,0.03,0.2,competitor,target,1,8.777
8,39,numeric,0.1,0.05,competitor,target,1,4.971
8,40,perceptual,0.03,0.2,competitor,target,1,7.038
8,41,perceptual,0.03,0.2,competitor,target,1,5.481
8,42,numeric,0.03,0.05,target,target,1,13.094
8,43,numeric,0.03,0.05,competitor,competitor,0,16.031
8,44,perceptual,0.03,0.2,target,target,1,6.552
8,45,perceptual,0.1,0.2,competitor,competitor,0,11.951
8,46,numeric,0.1,0.2,competitor,target,1,9.789
8,47,numeric,0.03,0.05,competitor,target,1,13.171
8,48,perceptual,0.03,0.05,competitor,target,1,16.596
8,49,numeric,0.1,0.05,competitor,target,1,8.444
8,50,perceptual,0.1,0.2,target,target,1,8.757
8,51,perceptual,0.1,0.05,target,target,1,9.544
8,52,numeric,0.1,0.05,target,target,1,12.577
8,53,perceptual,0.03,0.05,competitor,competitor,0,10.148
8,54,perceptual,0.1,0.2,competitor,target,1,4.218
8,55,perceptual,0.1,0.2,competitor,target,1,5.528
8,56,perceptual,0.03,0.05,competitor,competitor,0,4.771
8,57,perceptual,0.1,0.05,target,target,1,5.026
8,58,perceptual,0.1,0.2,competitor,target,1,7.31
8,59,perceptual,0.03,0.2,target,target,1,6.576
8,60,perceptual,0.1,0.05,competitor,target,1,10.096
8,61,numeric,0.03,0.2,target,competitor,0,11.905
8,62,numeric,0.03,0.05,competitor,target,1,9.625
8,63,perceptual,0.1,0.05,competitor,target,1,10.419
8,64,numeric,0.03,0.2,competitor,target,1,15.343
8,65,perceptual,0.1,0.2,competitor,target,1,8.556
8,66,numeric,0.1,0.2,target,target,1,9.753
8,67,perceptual,0.03,0.05,competitor,competitor,0,16.547
8,68,perceptual,0.03,0.2,competitor,competitor,0,7.977
8,69,perceptual,0.03,0.05,competitor,target,1,13.3
8,70,numeric,0.1,0.05,competitor,target,1,10.795
8,71,numeric,0.03,0.2,target,competitor,0,17.819
8,72,numeric,0.1,0.05,competitor,target,1,8.475
8,73,numeric,0.03,0.05,competitor,target,1,13.065
8,74,numeric,0.1,0.05,competitor,target,1,14.088
8,75,perceptual,0.1,0.2,target,target,1,9.501
8,76,numeric,0.03,0.2,target,target,1,7.275
8,77,numeric,0.1,0.2,target,target,1,9.496
8,78,numeric,0.1,0.05,competitor,target,1,7.29
8,79,perceptual,0.1,0.05,target,target,1,12.075
8,80,perceptual,0.03,0.05,target,target,1,5.439
8,81,numeric,0.03,0.05,target,competitor,0,19.594
8,82,perceptual,0.1,0.2,target,target,1,4.861
8,83,numeric,0.1,0.05,target,target,1,11.302
8,84,numeric,0.1,0.05,target,target,1,12.193
8,85,perceptual,0.03,0.05,competitor,target,1,13.251
8,86,numeric,0.03,0.05,target,competitor,0,14.594
8,87,perceptual,0.1,0.2,target,target,1,12.924
8,88,perceptual,0.03,0.05,competitor,target,1,8.77
8,89,numeric,0.1,0.05,competitor,target,1,11.306
8,90,perceptual,0.03,0.2,competitor,target,1,7.897
8,91,perceptual,0.1,0.05,target,target,1,5.806
8,92,numeric,0.03,0.05,competitor,target,1,10.224
8,93,perceptual,0.1,0.2,target,target,1,6.284
8,94,numeric,0.1,0.2,target,competitor,0,16.764
8,95,perceptual,0.1,0.05,competitor,target,1,7.908
8,96,numeric,0.1,0.2,target,target,1,10.623
8,97,perceptual,0.03,0.05,target,target,1,8.796
8,98,perceptual,0.03,0.05,target,target,1,6.276
8,99,perceptual,0.03,0.2,target,target,1,12.812
8,100,perceptual,0.03,0.05,target,target,1,11.156
8,101,numeric,0.1,0.2,competitor,competitor,0,16.764
8,102,perceptual,0.1,0.2,competitor,target,1,8.504
8,103,perceptual,0.1,0.2,competitor,target,1,7.834
8,104,numeric,0.1,0.05,target,target,1,8.179
8,105,perceptual,0.03,0.2,competitor,target,1,7.304
8,106,perceptual,0.03,0.2,competitor,target,1,6.626
8,107,numeric,0.03,0.2,competitor,target,1,11.968
8,108,numeric,0.1,0.2,competitor,target,1,12.364
8,109,numeric,0.03,0.05,target,target,1,10.89
8,110,numeric,0.03,0.2,competitor,competitor,0,9.963
8,111,numeric,0.1,0.05,competitor,target,1,8.869
8,112,numeric,0.1,0.2,target,target,1,10.046
8,113,perceptual,0.1,0.05,target,target,1,7.533
8,114,numeric,0.03,0.2,competitor,competitor,0,10.029
8,115,numeric,0.1,0.2,target,target,1,15.274
8,116,numeric,0.1,0.05,target,target,1,13.723
8,117,numeric,0.03,0.2,target,competitor,0,12.826
8,118,numeric,0.03,0.2,target,target,1,13.333
8,119,perceptual,0.1,0.2,competitor,target,1,9.976
8,120,numeric,0.1,0.2,target,target,1,7.421
8,121,numeric,0.03,0.05,target,competitor,0,10.964
8,122,perceptual,0.1,0.05,competitor,competitor,0,5.636
8,123,perceptual,0.1,0.2,target,target,1,9.257
8,124,numeric,0.1,0.2,competitor,target,1,12.388
8,125,perceptual,0.1,0.05,competitor,target,1,9.643
8,126,numeric,0.03,0.2,competitor,target,1,8.58
8,127,perceptual,0.03,0.2,competitor,target,1,7.153
8,128,perceptual,0.03,0.05,target,target,1,5.7
8,129,numeric,0.03,0.2,target,target,1,13.239
8,130,perceptual,0.03,0.05,competitor,target,1,8.406
8,131,numeric,0.03,0.05,competitor,target,1,9.831
8,132,perceptual,0.1,0.05,competitor,target,1,7.26
8,133,perceptual,0.03,0.2,target,target,1,9.379
8,134,numeric,0.03,0.05,target,target,1,11.465
8,135,perceptual,0.03,0.05,competitor,target,1,5.467
8,136,perceptual,0.1,0.05,target,target,1,8.621
8,137,perceptual,0.03,0.2,competitor,target,1,7.373
8,138,perceptual,0.03,0.2,target,competitor,0,7.849
8,139,numeric,0.1,0.05,target,decoy,0,8.921
8,140,numeric,0.03,0.05,target,target,1,12.894
8,141,perceptual,0.03,0.05,competitor,target,1,11.384
8,142,numeric,0.1,0.05,competitor,target,1,11.875
8,143,numeric,0.03,0.2,target,target,1,15.178
8,144,numeric,0.1,0.2,competitor,target,1,8.712
8,145,numeric,0.1,0.2,target,target,1,7.706
8,146,numeric,0.1,0.2,competitor,target,1,9.192
8,147,numeric,0.03,0.05,competitor,target,1,9.54
8,148,perceptual,0.1,0.05,target,target,1,6.902
8,149,numeric,0.1,0.05,target,target,1,9.369
8,150,numeric,0.03,0.2,competitor,target,1,13.587
8,151,perceptual,0.03,0.2,target,target,1,6.691
8,152,perceptual,0.1,0.05,competitor,target,1,6.248
8,153,perceptual,0.1,0.05,competitor,target,1,5.921
8,154,numeric,0.03,0.2,competitor,competitor,0,6.155
8,155,perceptual,0.1,0.05,competitor,target,1,5.027
8,156,numeric,0.1,0.2,target,target,1,6.395
8,157,perceptual,0.1,0.2,competitor,competitor,0,6.621
8,158,numeric,0.1,0.2,target,competitor,0,8.489
8,159,perceptual,0.03,0.2,competitor,target,1,4.914
8,160,perceptual,0.1,0.05,competitor,decoy,0,4.752
8,161,perceptual,0.1,0.2,target,target,1,6.508
8,162,numeric,0.1,0.2,target,target,1,9.447
8,163,perceptual,0.1,0.2,competitor,target,1,5.883
8,164,numeric,0.03,0.2,competitor,target,1,6.013
8,165,perceptual,0.1,0.2,target,target,1,5.461
8,166,numeric,0.03,0.05,competitor,target,1,9.231
8,167,perceptual,0.1,0.05,target,target,1,4.622
8,168,perceptual,0.03,0.2,competitor,competitor,0,5.928
8,169,numeric,0.03,0.2,target,competitor,0,8.541
8,170,numeric,0.03,0.05,target,target,1,9.932
8,171,perceptual,0.03,0.2,target,target,1,4.473
8,172,perceptual,0.1,0.2,target,target,1,8.849
8,173,numeric,0.03,0.2,target,competitor,0,14.012
8,174,perceptual,0.03,0.05,target,decoy,0,13.08
8,175,perceptual,0.03,0.2,target,target,1,6.827
8,176,numeric,0.1,0.05,competitor,target,1,8.748
8,177,numeric,0.03,0.2,competitor,target,1,10.478
8,178,perceptual,0.03,0.05,target,competitor,0,9.62
8,179,numeric,0.1,0.05,target,target,1,13.257
8,180,perceptual,0.03,0.05,competitor,target,1,8.471
8,181,numeric,0.03,0.05,target,competitor,0,10.844
8,182,perceptual,0.1,0.05,target,target,1,8.882
8,183,perceptual,0.1,0.05,target,target,1,7.043
8,184,perceptual,0.03,0.2,target,competitor,0,8.857
8,185,numeric,0.1,0.05,target,decoy,0,12.846
8,186,numeric,0.1,0.2,target,target,1,14.124
8,187,perceptual,0.03,0.05,target,competitor,0,10.093
8,188,perceptual,0.03,0.2,target,competitor,0,6.063
8,189,perceptual,0.1,0.05,target,target,1,5.726
8,190,numeric,0.03,0.2,competitor,competitor,0,11.864
8,192,perceptual,0.1,0.2,competitor,target,1,6.297
9,1,perceptual,0.03,0.2,competitor,target,1,17.728
9,2,perceptual,0.1,0.2,target,target,1,3.961
9,3,numeric,0.03,0.2,target,target,1,5.274
9,4,numeric,0.1,0.05,target,target,1,8.485
9,5,perceptual,0.1,0.05,target,decoy,0,4.29
9,6,perceptual,0.03,0.2,target,target,1,4.299
9,7,perceptual,0.03,0.05,competitor,target,1,5.362
9,8,numeric,0.03,0.05,target,competitor,0,12.849
9,9,numeric,0.1,0.2,target,competitor,0,6.655
9,10,perceptual,0.03,0.05,target,target,1,6.202
9,11,perceptual,0.1,0.05,target,decoy,0,7.08
9,12,perceptual,0.03,0.05,target,target,1,6.301
9,13,numeric,0.03,0.05,target,competitor,0,9.566
9,14,perceptual,0.03,0.2,competitor,target,1,12.461
9,15,numeric,0.1,0.05,competitor,target,1,9.969
9,16,numeric,0.1,0.2,competitor,competitor,0,9.597
9,17,perceptual,0.03,0.05,target,competitor,0,7.187
9,18,numeric,0.1,0.05,competitor,target,1,8.749
9,19,perceptual,0.1,0.2,target,target,1,7.39
9,20,numeric,0.03,0.05,target,decoy,0,4.537
9,21,numeric,0.03,0.2,target,target,1,6.561
9,22,numeric,0.03,0.05,target,target,1,10.946
9,23,perceptual,0.1,0.2,competitor,target,1,4.183
9,24,perceptual,0.1,0.05,competitor,target,1,5.076
9,25,perceptual,0.1,0.2,target,target,1,6.639
9,26,perceptual,0.03,0.2,competitor,competitor,0,9.976
9,27,perceptual,0.03,0.05,competitor,competitor,0,5.95
9,28,numeric,0.03,0.05,competitor,target,1,9.478
9,29,numeric,0.1,0.05,target,decoy,0,8.875
9,30,perceptual,0.1,0.05,competitor,target,1,10.877
9,31,numeric,0.03,0.05,target,target,1,10.277
9,32,perceptual,0.1,0.2,target,target,1,8.718
9,33,perceptual,0.1,0.2,competitor,target,1,6.572
9,34,numeric,0.03,0.2,competitor,competitor,0,7.599
9,35,numeric,0.03,0.05,competitor,competitor,0,17.759
9,36,perceptual,0.03,0.05,competitor,competitor,0,0.019
9,37,numeric,0.03,0.2,target,competitor,0,11.49
9,38,perceptual,0.03,0.2,target,target,1,8.618
9,39,numeric,0.1,0.2,target,target,1,9.109
9,40,numeric,0.03,0.2,target,target,1,13.356
9,41,numeric,0.03,0.05,target,competitor,0,10.326
9,42,perceptual,0.03,0.2,target,target,1,10.005
9,43,numeric,0.1,0.2,target,target,1,6.395
9,44,numeric,0.1,0.05,competitor,target,1,12.203
9,45,numeric,0.03,0.2,competitor,target,1,11.093
9,46,numeric,0.03,0.05,competitor,competitor,0,17.961
9,48,numeric,0.1,0.05,target,competitor,0,10.369
9,49,numeric,0.1,0.2,target,target,1,7.779
9,50,perceptual,0.03,0.05,target,target,1,7.768
9,51,perceptual,0.1,0.05,competitor,target,1,3.968
9,52,numeric,0.1,0.2,competitor,target,1,5.609
9,53,perceptual,0.03,0.05,competitor,target,1,5.483
9,54,numeric,0.1,0.2,competitor,target,1,5.96
9,55,numeric,0.03,0.2,competitor,target,1,8.315
9,56,numeric,0.03,0.2,competitor,competitor,0,8.19
9,57,perceptual,0.1,0.2,competitor,target,1,4.337
9,58,perceptual,0.03,0.2,target,competitor,0,9.161
9,59,perceptual,0.1,0.05,competitor,target,1,7.277
9,60,perceptual,0.03,0.05,competitor,target,1,9.647
9,61,perceptual,0.1,0.2,target,target,1,6.516
9,62,perceptual,0.1,0.05,target,target,1,10.413
9,63,numeric,0.03,0.05,target,decoy,0,8.433
9,64,perceptual,0.1,0.2,target,competitor,0,12.211
9,65,perceptual,0.1,0.05,target,decoy,0,5.298
9,66,numeric,0.03,0.05,competitor,target,1,7.316
9,67,perceptual,0.1,0.2,competitor,target,1,6.271
9,68,perceptual,0.03,0.05,target,target,1,8.982
9,69,perceptual,0.03,0.05,competitor,target,1,4.681
9,70,numeric,0.1,0.2,target,target,1,9.38
9,71,perceptual,0.03,0.05,competitor,target,1,6.962
9,72,numeric,0.1,0.05,target,target,1,11.168
9,73,numeric,0.03,0.05,competitor,target,1,11.505
9,74,perceptual,0.1,0.05,competitor,decoy,0,11.416
9,75,numeric,0.1,0.2,competitor,target,1,9.236
9,76,perceptual,0.1,0.05,target,target,1,5.727
9,77,perceptual,0.1,0.2,target,competitor,0,9.75
9,78,perceptual,0.1,0.05,target,target,1,6.751
9,79,numeric,0.03,0.2,competitor,target,1,13.153
9,80,numeric,0.03,0.05,competitor,target,1,11.797
9,81,perceptual,0.1,0.05,target,target,1,7.821
9,82,numeric,0.1,0.2,target,target,1,7.246
9,83,perceptual,0.03,0.05,competitor,competitor,0,8.211
9,84,numeric,0.1,0.2,competitor,target,1,8.486
9,85,perceptual,0.1,0.05,competitor,target,1,7.942
9,86,numeric,0.1,0.2,target,target,1,9.771
9,87,numeric,0.1,0.05,target,target,1,7.468
9,88,numeric,0.1,0.05,target,target,1,10.067
9,89,numeric,0.03,0.2,competitor,target,1,8.362
9,90,perceptual,0.1,0.05,competitor,target,1,5.111
9,91,numeric,0.03,0.05,competitor,competitor,0,13.126
9,92,numeric,0.1,0.05,competitor,competitor,0,10.134
9,93,perceptual,0.1,0.2,competitor,target,1,11.645
9,94,perceptual,0.1,0.05,competitor,target,1,13.214
9,95,numeric,0.03,0.05,competitor,competitor,0,9.365
9,96,perceptual,0.1,0.2,competitor,competitor,0,11.001
9,97,numeric,0.1,0.05,target,target,1,9.102
9,98,numeric,0.03,0.2,target,target,1,14.277
9,99,perceptual,0.03,0.2,competitor,competitor,0,5.476
9,100,perceptual,0.03,0.05,competitor,competitor,0,8.863
9,101,numeric,0.1,0.05,target,decoy,0,12.648
9,102,perceptual,0.03,0.05,target,target,1,4.997
9,103,perceptual,0.03,0.2,competitor,target,1,6.028
9,104,perceptual,0.1,0.2,target,target,1,4.366
9,105,perceptual,0.03,0.2,target,target,1,13.411
9,106,numeric,0.1,0.2,competitor,target,1,13.298
9,107,numeric,0.1,0.05,competitor,target,1,9.534
9,108,perceptual,0.03,0.2,target,target,1,3.919
9,109,perceptual,0.03,0.2,competitor,target,1,3.412
9,110,numeric,0.1,0.2,target,competitor,0,5.546
9,111,numeric,0.1,0.2,competitor,target,1,7.553
9,112,numeric,0.03,0.05,competitor,target,1,15.959
9,113,numeric,0.03,0.05,competitor,target,1,6.268
9,114,numeric,0.03,0.05,competitor,target,1,7.748
9,115,perceptual,0.1,0.05,target,target,1,5.287
9,116,perceptual,0.1,0.2,competitor,target,1,5.9
9,117,numeric,0.1,0.05,target,target,1,5.942
9,118,numeric,0.03,0.05,target,target,1,6.084
9,119,perceptual,0.1,0.05,competitor,target,1,8.147
9,120,perceptual,0.03,0.2,target,competitor,0,7.8
9,121,perceptual,0.03,0.05,target,target,1,4.427
9,122,numeric,0.1,0.2,competitor,target,1,6.468
9,123,numeric,0.1,0.2,competitor,target,1,5.315
9,124,numeric,0.03,0.05,target,competitor,0,9.13
9,125,perceptual,0.1,0.05,target,target,1,10.196
9,126,perceptual,0.03,0.2,competitor,competitor,0,8.624
9,127,perceptual,0.1,0.05,target,competitor,0,9.118
9,128,numeric,0.1,0.05,competitor,target,1,7.948
9,129,numeric,0.03,0.2,target,target,1,5.79
9,130,perceptual,0.1,0.2,competitor,target,1,6.518
9,131,numeric,0.1,0.05,competitor,target,1,7.372
9,132,perceptual,0.03,0.2,competitor,target,1,4.055
9,133,perceptual,0.03,0.2,competitor,target,1,5.136
9,134,numeric,0.03,0.2,target,competitor,0,15.051
9,135,numeric,0.03,0.05,target,target,1,13.064
9,136,numeric,0.03,0.2,competitor,competitor,0,8.348
9,137,perceptual,0.03,0.05,target,target,1,9.743
9,138,perceptual,0.03,0.2,target,target,1,7.451
9,139,numeric,0.1,0.05,target,target,1,11.387
9,140,perceptual,0.1,0.2,competitor,target,1,8.113
9,141,numeric,0.1,0.05,target,target,1,11.158
9,142,numeric,0.1,0.2,competitor,target,1,9.596
9,143,numeric,0.1,0.05,competitor,target,1,11.343
9,144,perceptual,0.1,0.05,target,target,1,6.27
9,145,numeric,0.1,0.2,target,target,1,13.357
9,146,numeric,0.03,0.2,target,target,1,15.335
9,147,numeric,0.1,0.2,competitor,target,1,11.178
9,148,perceptual,0.03,0.2,competitor,competitor,0,5.663
9,149,perceptual,0.1,0.2,target,target,1,4.193
9,150,numeric,0.03,0.2,target,target,1,10.155
9,151,numeric,0.1,0.05,target,target,1,5.224
9,152,numeric,0.03,0.2,competitor,target,1,8.466
9,154,numeric,0.03,0.2,competitor,competitor,0,5.974
9,155,perceptual,0.03,0.05,competitor,target,1,5.94
9,156,perceptual,0.03,0.2,target,competitor,0,6.673
9,157,perceptual,0.1,0.05,target,decoy,0,4.436
9,158,numeric,0.03,0.2,competitor,target,1,5.1
9,159,numeric,0.03,0.2,target,target,1,12.684
9,160,numeric,0.03,0.2,target,competitor,0,10.92
9,161,perceptual,0.1,0.2,target,target,1,3.23
9,162,numeric,0.03,0.05,competitor,target,1,8.37
9,163,perceptual,0.1,0.2,competitor,target,1,3.793
9,164,perceptual,0.1,0.05,competitor,target,1,3.854
9,165,numeric,0.03,0.05,target,target,1,6.598
9,166,numeric,0.1,0.2,target,target,1,11.809
9,167,numeric,0.1,0.2,competitor,target,1,12.537
9,168,perceptual,0.1,0.2,target,target,1,6.906
9,169,numeric,0.1,0.05,competitor,target,1,10.009
9,170,perceptual,0.1,0.2,target,target,1,8.429
9,171,perceptual,0.03,0.05,competitor,target,1,9.439
9,172,perceptual,0.1,0.2,competitor,target,1,6.532
9,173,perceptual,0.03,0.2,target,target,1,3.433
9,174,perceptual,0.03,0.2,competitor,target,1,4.423
9,175,perceptual,0.1,0.2,competitor,target,1,7.133
9,176,perceptual,0.03,0.2,target,target,1,6.942
9,177,perceptual,0.03,0.2,target,competitor,0,3.081
9,178,perceptual,0.1,0.05,competitor,target,1,5.521
9,179,perceptual,0.03,0.05,competitor,target,1,8.889
9,180,perceptual,0.03,0.05,target,decoy,0,2.763
9,181,numeric,0.03,0.05,target,target,1,7.683
9,182,perceptual,0.03,0.05,target,decoy,0,9.508
9,183,numeric,0.1,0.2,target,target,1,11.363
9,184,perceptual,0.03,0.05,target,decoy,0,8.548
9,185,perceptual,0.03,0.05,target,target,1,10.198
9,186,numeric,0.03,0.2,target,target,1,7.512
9,187,numeric,0.03,0.2,competitor,target,1,10.12
9,188,numeric,0.1,0.05,competitor,target,1,9.999
9,189,numeric,0.1,0.05,competitor,target,1,10.238
9,190,perceptual,0.1,0.05,competitor,target,1,5.236
9,191,numeric,0.1,0.2,target,target,1,5.898
9,192,perceptual,0.03,0.2,competitor,target,1,3.49
10,1,numeric,0.03,0.05,target,competitor,0,12.137
10,2,numeric,0.03,0.05,target,competitor,0,6.2
10,3,perceptual,0.03,0.05,target,target,1,7.223
10,4,perceptual,0.1,0.05,competitor,target,1,6.204
10,5,perceptual,0.1,0.05,competitor,competitor,0,3.139
10,6,perceptual,0.03,0.05,competitor,target,1,5.551
10,7,numeric,0.03,0.2,competitor,target,1,9.738
10,8,perceptual,0.1,0.05,competitor,target,1,8.384
10,9,perceptual,0.1,0.2,target,target,1,7.132
10,10,numeric,0.1,0.2,target,decoy,0,9.09
10,11,numeric,0.03,0.2,target,target,1,5.208
10,12,perceptual,0.03,0.05,competitor,competitor,0,5.849
10,13,numeric,0.03,0.05,competitor,competitor,0,6.216
10,14,numeric,0.03,0.05,competitor,competitor,0,8.135
10,15,numeric,0.03,0.05,competitor,competitor,0,6.166
10,16,numeric,0.03,0.2,target,competitor,0,11.788
10,17,numeric,0.1,0.2,competitor,competitor,0,7.45
10,18,perceptual,0.03,0.05,competitor,target,1,8.334
10,19,numeric,0.03,0.05,competitor,target,1,7.116
10,20,perceptual,0.1,0.2,target,competitor,0,9.016
10,21,perceptual,0.03,0.05,target,decoy,0,8.535
10,22,perceptual,0.1,0.2,target,target,1,7.695
10,23,numeric,0.03,0.05,target,target,1,7.094
10,24,numeric,0.03,0.2,competitor,competitor,0,6.863
10,25,numeric,0.03,0.05,target,target,1,10.235
10,26,numeric,0.03,0.2,target,target,1,5.882
10,27,numeric,0.1,0.05,competitor,competitor,0,6.335
10,28,perceptual,0.1,0.2,competitor,target,1,5.118
10,29,numeric,0.03,0.05,target,target,1,7.266
10,30,numeric,0.1,0.05,target,target,1,5.484
10,31,perceptual,0.1,0.05,competitor,target,1,4.734
10,32,numeric,0.03,0.2,target,target,1,7.249
10,33,perceptual,0.03,0.2,competitor,target,1,8.557
10,34,perceptual,0.1,0.05,target,target,1,4.775
10,35,perceptual,0.1,0.05,target,decoy,0,10.499
10,36,numeric,0.1,0.05,competitor,competitor,0,7.156
10,37,perceptual,0.03,0.05,competitor,competitor,0,5.801
10,38,numeric,0.03,0.05,competitor,competitor,0,8.599
10,39,numeric,0.1,0.2,target,target,1,6.472
10,40,perceptual,0.03,0.05,competitor,decoy,0,4.091
10,41,perceptual,0.1,0.2,competitor,competitor,0,4.071
10,42,numeric,0.03,0.05,competitor,competitor,0,12.017
10,43,perceptual,0.03,0.2,competitor,competitor,0,5.837
10,44,numeric,0.1,0.05,competitor,target,1,7.449
10,45,perceptual,0.1,0.2,target,competitor,0,3.8
10,46,numeric,0.03,0.05,competitor,decoy,0,11.918
10,47,perceptual,0.1,0.2,competitor,target,1,3.588
10,48,numeric,0.1,0.2,target,target,1,6.933
10,49,numeric,0.03,0.2,competitor,target,1,6.452
10,50,perceptual,0.1,0.05,competitor,competitor,0,6.605
10,51,perceptual,0.1,0.05,target,competitor,0,4.554
10,52,numeric,0.1,0.05,competitor,target,1,7.059
10,53,perceptual,0.03,0.2,competitor,target,1,5.62
10,54,perceptual,0.03,0.2,target,competitor,0,4.652
10,55,perceptual,0.1,0.2,competitor,target,1,4.5
10,56,perceptual,0.1,0.05,competitor,competitor,0,6.303
10,57,perceptual,0.1,0.2,competitor,target,1,4.523
10,58,perceptual,0.03,0.05,competitor,decoy,0,5.305
10,59,numeric,0.03,0.05,target,target,1,8.556
10,60,numeric,0.1,0.05,target,target,1,8.781
10,61,numeric,0.03,0.2,competitor,competitor,0,8.979
10,62,perceptual,0.03,0.2,competitor,target,1,4.786
10,63,numeric,0.1,0.2,target,target,1,8.417
10,64,perceptual,0.1,0.05,target,target,1,2.95
10,65,perceptual,0.03,0.05,target,decoy,0,11.085
10,66,perceptual,0.1,0.05,competitor,target,1,5.784
10,67,perceptual,0.1,0.05,competitor,competitor,0,7.974
10,68,numeric,0.03,0.2,target,target,1,10.833
10,69,numeric,0.03,0.2,competitor,competitor,0,6.767
10,70,perceptual,0.03,0.2,competitor,competitor,0,5.519
10,71,numeric,0.1,0.05,target,target,1,4.337
10,72,perceptual,0.1,0.2,target,competitor,0,6.133
10,73,perceptual,0.1,0.05,target,decoy,0,5.166
10,74,numeric,0.1,0.2,target,target,1,5.4
10,75,perceptual,0.03,0.05,competitor,competitor,0,3.633
10,76,perceptual,0.1,0.2,competitor,target,1,2.988
10,77,perceptual,0.1,0.2,target,target,1,3.289
10,78,perceptual,0.03,0.05,target,target,1,6.572
10,79,perceptual,0.03,0.2,target,target,1,3.8
10,80,numeric,0.1,0.2,competitor,target,1,8.272
10,81,numeric,0.1,0.2,competitor,target,1,6.718
10,82,perceptual,0.1,0.2,target,target,1,7.183
10,83,perceptual,0.1,0.05,target,target,1,4.666
10,84,numeric,0.1,0.2,target,target,1,5.922
10,85,numeric,0.1,0.2,competitor,competitor,0,5.649
10,86,numeric,0.1,0.2,target,competitor,0,9.269
10,87,numeric,0.03,0.2,competitor,competitor,0,6.883
10,88,perceptual,0.03,0.2,target,target,1,3.921
10,89,perceptual,0.03,0.05,target,competitor,0,5.069
10,90,perceptual,0.03,0.2,target,competitor,0,4.733
10,91,numeric,0.03,0.2,target,target,1,6.22
10,92,perceptual,0.1,0.05,target,target,1,4.573
10,93,numeric,0.1,0.05,target,target,1,8.449
10,94,perceptual,0.1,0.05,competitor,competitor,0,4.823
10,95,numeric,0.1,0.05,target,target,1,9.819
10,96,perceptual,0.03,0.2,competitor,competitor,0,4.917
10,97,perceptual,0.03,0.2,competitor,target,1,4.521
10,98,numeric,0.1,0.05,target,target,1,7.148
10,99,perceptual,0.1,0.05,target,target,1,3.913
10,100,numeric,0.1,0.05,target,target,1,10.205
10,101,numeric,0.1,0.05,target,target,1,4.981
10,102,numeric,0.03,0.05,competitor,competitor,0,4.903
10,103,perceptual,0.1,0.05,target,competitor,0,3.818
10,104,perceptual,0.03,0.2,target,competitor,0,2.953
10,105,numeric,0.1,0.05,competitor,competitor,0,7.99
10,106,numeric,0.03,0.2,target,competitor,0,8.834
10,107,perceptual,0.03,0.05,target,competitor,0,5.42
10,108,perceptual,0.03,0.2,target,target,1,5.665
10,109,perceptual,0.03,0.2,competitor,competitor,0,3.349
10,110,numeric,0.03,0.2,target,decoy,0,3.412
10,111,perceptual,0.1,0.2,target,competitor,0,4.47
10,112,numeric,0.03,0.2,target,target,1,9.3
10,113,numeric,0.03,0.2,competitor,target,1,7.333
10,114,perceptual,0.1,0.2,competitor,target,1,3.072
10,115,numeric,0.03,0.05,target,target,1,4.866
10,116,numeric,0.03,0.05,target,target,1,8.18
10,117,perceptual,0.03,0.05,competitor,decoy,0,7.57
10,118,numeric,0.03,0.2,competitor,competitor,0,6.566
10,119,numeric,0.1,0.05,competitor,target,1,12.419
10,120,numeric,0.03,0.05,target,decoy,0,6.482
10,121,numeric,0.1,0.05,competitor,target,1,7.55
10,122,perceptual,0.1,0.2,competitor,target,1,3.449
10,123,numeric,0.03,0.2,competitor,target,1,5.817
10,124,numeric,0.03,0.05,competitor,target,1,4.849
10,125,numeric,0.1,0.05,competitor,decoy,0,6.342
10,126,numeric,0.1,0.05,competitor,competitor,0,6.705
10,127,perceptual,0.1,0.2,competitor,target,1,3.028
10,128,perceptual,0.1,0.2,competitor,target,1,2.663
10,129,perceptual,0.03,0.2,competitor,target,1,3.985
10,130,perceptual,0.1,0.2,target,target,1,3.052
10,131,perceptual,0.1,0.2,target,target,1,3.301
10,132,numeric,0.1,0.2,target,target,1,7.133
10,133,numeric,0.1,0.05,competitor,competitor,0,4.949
10,134,numeric,0.1,0.05,competitor,target,1,5.534
10,135,perceptual,0.03,0.05,target,competitor,0,1.216
10,136,perceptual,0.03,0.2,competitor,target,1,3.199
10,137,perceptual,0.03,0.05,competitor,target,1,3.55
10,138,numeric,0.1,0.05,competitor,target,1,6.45
10,139,perceptual,0.03,0.05,target,decoy,0,4.862
10,140,perceptual,0.03,0.05,competitor,decoy,0,3.513
10,141,numeric,0.1,0.2,competitor,target,1,8.1
10,142,numeric,0.1,0.05,target,target,1,9.849
10,143,numeric,0.1,0.2,target,target,1,4.085
10,144,numeric,0.1,0.2,competitor,target,1,6.7
10,145,numeric,0.1,0.2,competitor,competitor,0,5.752
10,146,numeric,0.03,0.05,competitor,competitor,0,10.552
10,147,perceptual,0.1,0.2,competitor,target,1,2.84
10,148,perceptual,0.1,0.2,target,target,1,3.618
10,149,perceptual,0.1,0.2,target,target,1,3.586
10,150,numeric,0.03,0.2,competitor,competitor,0,6.767
10,151,perceptual,0.03,0.2,competitor,target,1,3.341
10,152,perceptual,0.1,0.05,target,target,1,7.214
10,153,perceptual,0.03,0.05,target,target,1,3.98
10,154,perceptual,0.03,0.05,target,competitor,0,3.847
10,155,numeric,0.03,0.05,target,target,1,7.733
10,156,perceptual,0.03,0.05,target,competitor,0,5.437
10,157,perceptual,0.03,0.2,target,target,1,3.568
10,158,perceptual,0.1,0.05,competitor,decoy,0,6.634
10,159,perceptual,0.03,0.2,target,target,1,3.581
10,160,perceptual,0.1,0.2,competitor,target,1,2.737
10,161,numeric,0.03,0.05,competitor,competitor,0,5.211
10,162,numeric,0.1,0.2,competitor,competitor,0,6.795
10,163,numeric,0.1,0.2,competitor,competitor,0,7.896
10,164,perceptual,0.1,0.05,target,target,1,2.434
10,165,numeric,0.1,0.2,competitor,target,1,4.054
10,166,numeric,0.1,0.2,competitor,competitor,0,6.318
10,167,perceptual,0.03,0.05,target,target,1,5.451
10,168,perceptual,0.03,0.2,target,target,1,3.272
10,169,numeric,0.03,0.2,competitor,target,1,5.636
10,170,numeric,0.03,0.05,target,target,1,10.208
10,171,perceptual,0.03,0.2,target,target,1,3.732
10,172,perceptual,0.03,0.2,target,target,1,4.314
10,173,numeric,0.03,0.05,target,target,1,7.529
10,174,numeric,0.03,0.05,competitor,target,1,4.371
10,175,numeric,0.1,0.2,target,target,1,6.301
10,176,numeric,0.1,0.2,competitor,competitor,0,7.669
10,177,perceptual,0.1,0.05,target,target,1,5.477
10,178,numeric,0.03,0.2,target,target,1,5.168
10,179,numeric,0.1,0.2,target,target,1,4.33
10,180,numeric,0.1,0.05,target,target,1,7.139
10,181,perceptual,0.03,0.2,competitor,target,1,3.668
10,182,numeric,0.1,0.2,target,target,1,10.666
10,183,perceptual,0.03,0.05,competitor,decoy,0,3.651
10,184,numeric,0.03,0.2,target,competitor,0,11.42
10,185,perceptual,0.1,0.05,competitor,target,1,3.368
10,186,numeric,0.1,0.05,target,target,1,5.348
10,187,perceptual,0.03,0.05,competitor,competitor,0,5.62
10,188,perceptual,0.1,0.05,competitor,decoy,0,2.72
10,189,numeric,0.03,0.2,competitor,competitor,0,3.903
10,190,numeric,0.03,0.2,target,target,1,7.317
10,191,numeric,0.1,0.05,target,target,1,11.901
10,192,perceptual,0.03,0.2,target,target,1,3.42
11,1,numeric,0.1,0.05,target,decoy,0,17.251
11,2,numeric,0.1,0.2,target,target,1,10.023
11,3,perceptual,0.1,0.05,target,target,1,5.688
11,4,perceptual,0.1,0.05,target,target,1,8.87
11,5,numeric,0.1,0.2,target,competitor,0,8.052
11,6,numeric,0.03,0.2,competitor,target,1,12.814
11,7,numeric,0.1,0.2,competitor,target,1,6.044
11,8,numeric,0.03,0.2,competitor,decoy,0,9.863
11,9,perceptual,0.03,0.2,target,competitor,0,7.2
11,10,perceptual,0.1,0.05,competitor,target,1,5.344
11,11,numeric,0.03,0.05,competitor,target,1,12.064
11,12,perceptual,0.1,0.2,competitor,target,1,6.336
11,13,perceptual,0.1,0.2,competitor,competitor,0,4.116
11,14,numeric,0.03,0.05,target,decoy,0,9.206
11,15,numeric,0.1,0.05,competitor,target,1,8.693
11,16,numeric,0.03,0.05,target,target,1,7.244
11,17,numeric,0.03,0.05,competitor,target,1,3.152
11,18,numeric,0.03,0.05,target,competitor,0,1.558
11,19,perceptual,0.03,0.2,target,target,1,1.604
11,20,numeric,0.03,0.2,target,competitor,0,4.27
11,21,perceptual,0.03,0.05,competitor,decoy,0,3.862
11,22,perceptual,0.1,0.2,target,competitor,0,4.092
11,23,perceptual,0.1,0.2,target,target,1,4.556
11,24,numeric,0.1,0.05,target,decoy,0,7.326
11,25,perceptual,0.1,0.05,target,target,1,3.958
11,26,numeric,0.03,0.05,competitor,competitor,0,4.537
11,27,numeric,0.03,0.2,target,target,1,3.433
11,28,numeric,0.1,0.2,competitor,target,1,4.168
11,29,numeric,0.03,0.05,target,competitor,0,5.453
11,30,perceptual,0.03,0.05,target,target,1,4.462
11,31,perceptual,0.1,0.2,competitor,target,1,3.661
11,32,numeric,0.03,0.2,competitor,target,1,2.457
11,33,perceptual,0.03,0.2,competitor,decoy,0,2.313
11,34,perceptual,0.1,0.2,target,target,1,3.334
11,35,perceptual,0.03,0.2,target,competitor,0,3.409
11,36,perceptual,0.1,0.2,competitor,competitor,0,2.276
11,37,perceptual,0.03,0.05,target,decoy,0,3.401
11,38,numeric,0.1,0.05,competitor,competitor,0,3.035
11,39,perceptual,0.1,0.2,competitor,competitor,0,3.687
11,40,numeric,0.1,0.2,competitor,target,1,4.397
11,41,numeric,0.03,0.2,competitor,target,1,3.754
11,42,numeric,0.1,0.05,competitor,decoy,0,2.312
11,43,perceptual,0.03,0.2,target,competitor,0,2.393
11,44,perceptual,0.03,0.05,competitor,target,1,2.188
11,45,numeric,0.03,0.05,target,target,1,3.721
11,46,numeric,0.1,0.2,competitor,target,1,2.253
11,47,perceptual,0.1,0.2,competitor,target,1,2.322
11,48,numeric,0.03,0.05,competitor,target,1,2.308
11,49,numeric,0.03,0.05,competitor,decoy,0,3.176
11,50,perceptual,0.1,0.05,competitor,competitor,0,4.389
11,51,numeric,0.1,0.2,competitor,competitor,0,2.902
11,52,perceptual,0.1,0.2,target,target,1,2.597
11,53,numeric,0.03,0.2,target,competitor,0,3.107
11,54,numeric,0.1,0.2,target,competitor,0,2.589
11,55,numeric,0.03,0.2,competitor,decoy,0,2.291
11,56,numeric,0.1,0.05,target,decoy,0,3.074
11,57,perceptual,0.1,0.05,competitor,target,1,2.313
11,58,perceptual,0.03,0.05,competitor,target,1,3.036
11,59,perceptual,0.03,0.05,target,target,1,3.241
11,60,perceptual,0.03,0.05,target,decoy,0,3.036
11,61,numeric,0.03,0.2,competitor,competitor,0,2.104
11,62,numeric,0.1,0.05,competitor,target,1,4.929
11,63,numeric,0.03,0.05,target,target,1,2.077
11,64,numeric,0.1,0.05,competitor,target,1,3.398
11,65,perceptual,0.03,0.05,target,decoy,0,2.173
11,66,perceptual,0.03,0.2,target,competitor,0,2.607
11,67,perceptual,0.1,0.05,target,decoy,0,2.042
11,68,perceptual,0.03,0.05,competitor,competitor,0,2.195
11,69,perceptual,0.1,0.05,competitor,target,1,1.972
11,70,numeric,0.03,0.2,target,competitor,0,2.04
11,71,perceptual,0.1,0.2,competitor,competitor,0,2.98
11,72,perceptual,0.1,0.2,target,competitor,0,1.969
11,73,numeric,0.03,0.2,target,target,1,2.809
11,74,perceptual,0.1,0.05,target,target,1,2.163
11,75,numeric,0.1,0.2,competitor,competitor,0,2.507
11,76,numeric,0.03,0.2,target,decoy,0,2.016
11,77,numeric,0.03,0.2,competitor,target,1,1.977
11,78,perceptual,0.03,0.05,target,target,1,2.401
11,79,perceptual,0.03,0.2,target,target,1,2.114
11,80,numeric,0.1,0.05,target,decoy,0,1.906
11,81,perceptual,0.1,0.2,target,competitor,0,2.233
11,82,numeric,0.1,0.2,competitor,competitor,0,2.188
11,83,numeric,0.1,0.05,target,competitor,0,2.881
11,84,numeric,0.03,0.2,competitor,competitor,0,2.729
11,85,numeric,0.1,0.2,competitor,competitor,0,3.425
11,86,numeric,0.03,0.2,competitor,target,1,2.902
11,87,perceptual,0.1,0.05,target,target,1,6.455
11,88,perceptual,0.03,0.2,target,decoy,0,7.061
11,89,perceptual,0.1,0.05,competitor,target,1,3.902
11,90,numeric,0.03,0.05,competitor,competitor,0,2.609
11,91,numeric,0.03,0.2,target,target,1,3.863
11,92,numeric,0.03,0.2,target,target,1,3.568
11,93,perceptual,0.03,0.05,target,target,1,2.599
11,94,numeric,0.1,0.05,target,competitor,0,3.415
11,95,perceptual,0.03,0.2,competitor,decoy,0,2.018
11,96,numeric,0.1,0.05,target,decoy,0,2.195
11,97,perceptual,0.1,0.05,target,competitor,0,2.658
11,98,numeric,0.03,0.05,target,decoy,0,2.879
11,99,numeric,0.03,0.2,target,target,1,2.557
11,100,perceptual,0.1,0.2,target,competitor,0,2.685
11,101,perceptual,0.03,0.2,target,target,1,2.204
11,102,perceptual,0.1,0.2,target,target,1,5.649
11,103,perceptual,0.03,0.2,target,target,1,3.293
11,104,perceptual,0.03,0.05,competitor,target,1,7.047
11,105,numeric,0.1,0.2,target,competitor,0,4.251
11,106,perceptual,0.1,0.05,competitor,target,1,3.453
11,107,perceptual,0.03,0.2,competitor,competitor,0,3.936
11,108,numeric,0.03,0.05,competitor,target,1,2.216
11,109,numeric,0.1,0.2,competitor,target,1,2.077
11,110,perceptual,0.1,0.05,target,target,1,2.341
11,111,numeric,0.1,0.2,competitor,target,1,2.495
11,112,numeric,0.1,0.05,competitor,decoy,0,2.296
11,113,perceptual,0.03,0.05,competitor,competitor,0,2.02
11,114,perceptual,0.1,0.2,competitor,competitor,0,3.668
11,115,numeric,0.1,0.05,target,target,1,2.274
11,116,numeric,0.03,0.05,competitor,target,1,2.469
11,117,perceptual,0.1,0.05,target,decoy,0,2.151
11,118,perceptual,0.03,0.2,competitor,target,1,3.5
11,119,perceptual,0.1,0.05,competitor,target,1,7.563
11,120,perceptual,0.1,0.2,competitor,target,1,5.402
11,121,numeric,0.03,0.2,target,competitor,0,3.412
11,122,numeric,0.03,0.05,competitor,target,1,6.312
11,123,numeric,0.1,0.05,target,decoy,0,2.815
11,124,numeric,0.03,0.05,competitor,decoy,0,2.541
11,125,numeric,0.03,0.2,target,target,1,3.913
11,126,perceptual,0.03,0.05,competitor,target,1,2.98
11,127,numeric,0.03,0.05,target,target,1,2.832
11,128,numeric,0.1,0.2,target,target,1,4.061
11,129,numeric,0.03,0.05,target,target,1,2.617
11,130,numeric,0.1,0.05,target,decoy,0,3.31
11,131,perceptual,0.03,0.2,competitor,target,1,2.791
11,132,perceptual,0.03,0.05,target,decoy,0,3.971
11,133,perceptual,0.1,0.05,competitor,target,1,4.429
11,134,numeric,0.1,0.2,target,target,1,3.051
11,135,perceptual,0.1,0.05,target,decoy,0,2.996
11,136,numeric,0.03,0.2,competitor,target,1,2.297
11,137,perceptual,0.03,0.2,competitor,target,1,2.075
11,138,perceptual,0.1,0.05,competitor,target,1,2.776
11,139,perceptual,0.1,0.05,competitor,target,1,2.141
11,140,numeric,0.1,0.2,target,target,1,2.819
11,141,perceptual,0.1,0.05,competitor,target,1,3.451
11,142,numeric,0.1,0.2,target,target,1,3.639
11,143,perceptual,0.1,0.05,target,target,1,3.906
11,144,numeric,0.1,0.05,target,target,1,3.271
11,145,perceptual,0.03,0.05,competitor,target,1,3.78
11,146,numeric,0.1,0.2,competitor,target,1,2.391
11,147,numeric,0.03,0.05,competitor,target,1,3.394
11,148,perceptual,0.1,0.2,competitor,target,1,6.015
11,149,numeric,0.1,0.2,competitor,target,1,6.821
11,150,perceptual,0.03,0.2,competitor,competitor,0,5.44
11,151,numeric,0.1,0.05,competitor,target,1,5.687
11,152,numeric,0.03,0.2,target,target,1,4.307
11,153,numeric,0.03,0.2,competitor,target,1,4.104
11,154,perceptual,0.03,0.2,competitor,competitor,0,8.394
11,155,numeric,0.1,0.2,target,target,1,5.194
11,156,numeric,0.1,0.05,competitor,competitor,0,3.532
11,157,numeric,0.03,0.05,competitor,target,1,5.11
11,158,numeric,0.03,0.2,competitor,target,1,4.515
11,159,perceptual,0.1,0.2,target,target,1,4.158
11,160,perceptual,0.03,0.2,competitor,target,1,5.195
11,161,perceptual,0.1,0.05,target,target,1,2.692
11,162,numeric,0.1,0.2,target,target,1,3.764
11,163,perceptual,0.03,0.05,target,target,1,3.164
11,164,perceptual,0.03,0.2,competitor,competitor,0,3.381
11,165,numeric,0.03,0.05,target,competitor,0,3.639
11,166,perceptual,0.03,0.05,competitor,target,1,5.47
11,167,numeric,0.1,0.2,target,target,1,4.338
11,168,perceptual,0.03,0.2,competitor,target,1,8.166
11,169,numeric,0.1,0.05,competitor,target,1,5.472
11,170,perceptual,0.03,0.05,target,target,1,7.451
11,171,perceptual,0.1,0.2,target,decoy,0,5.004
11,172,perceptual,0.03,0.2,target,target,1,5.368
11,173,perceptual,0.03,0.05,target,target,1,4.69
11,174,numeric,0.1,0.2,target,competitor,0,6.825
11,175,perceptual,0.03,0.2,competitor,target,1,4.744
11,176,perceptual,0.1,0.2,target,competitor,0,4.73
11,177,perceptual,0.1,0.2,competitor,target,1,5.266
11,178,numeric,0.1,0.05,competitor,target,1,4.712
11,179,perceptual,0.03,0.05,competitor,competitor,0,5.012
11,180,perceptual,0.03,0.2,target,target,1,4.197
11,181,numeric,0.1,0.05,target,target,1,3.141
11,182,perceptual,0.1,0.2,target,target,1,3.333
11,183,perceptual,0.03,0.2,target,target,1,4.101
11,184,numeric,0.03,0.05,target,decoy,0,6.241
11,185,numeric,0.1,0.05,competitor,competitor,0,2.643
11,186,perceptual,0.03,0.05,competitor,target,1,2.762
11,187,perceptual,0.03,0.05,target,decoy,0,5.65
11,188,perceptual,0.1,0.05,competitor,target,1,4.257
11,189,numeric,0.1,0.05,competitor,target,1,4.78
11,190,numeric,0.03,0.05,target,decoy,0,6.374
11,191,perceptual,0.03,0.05,competitor,competitor,0,6.383
11,192,perceptual,0.1,0.2,competitor,target,1,5.096
12,1,numeric,0.03,0.05,target,target,1,6.345
12,2,numeric,0.03,0.05,competitor,competitor,0,7.18
12,3,numeric,0.1,0.2,target,target,1,4.658
12,4,perceptual,0.1,0.2,target,target,1,4.168
12,5,numeric,0.1,0.2,target,target,1,5.263
12,6,perceptual,0.03,0.2,target,target,1,3.46
12,7,perceptual,0.03,0.05,target,competitor,0,3.074
12,8,numeric,0.1,0.2,target,target,1,5.573
12,9,perceptual,0.1,0.2,competitor,target,1,3.103
12,10,numeric,0.03,0.05,competitor,competitor,0,5.253
12,11,numeric,0.03,0.2,competitor,competitor,0,8.617
12,12,perceptual,0.03,0.2,target,target,1,4.218
12,13,perceptual,0.03,0.05,competitor,target,1,3.058
12,14,numeric,0.1,0.05,competitor,target,1,9.478
12,15,perceptual,0.1,0.05,target,competitor,0,4.149
12,16,perceptual,0.03,0.05,target,target,1,2.892
12,17,perceptual,0.03,0.2,competitor,competitor,0,2.961
12,18,numeric,0.03,0.2,target,target,1,4.308
12,19,numeric,0.03,0.05,target,target,1,6.61
12,20,numeric,0.03,0.2,competitor,target,1,7.279
12,21,numeric,0.1,0.2,competitor,target,1,8.209
12,22,numeric,0.03,0.05,competitor,target,1,3.872
12,23,perceptual,0.1,0.05,competitor,target,1,4.308
12,24,numeric,0.1,0.05,target,target,1,7.569
12,25,perceptual,0.1,0.2,competitor,target,1,6.6
12,26,perceptual,0.03,0.05,competitor,competitor,0,4.301
12,27,perceptual,0.03,0.05,competitor,decoy,0,4.08
12,28,perceptual,0.03,0.2,competitor,competitor,0,2.912
12,29,perceptual,0.03,0.05,competitor,competitor,0,4.451
12,30,perceptual,0.03,0.2,target,competitor,0,3.295
12,31,perceptual,0.1,0.05,target,target,1,5.795
12,32,numeric,0.03,0.2,target,target,1,7.277
12,33,numeric,0.03,0.05,target,target,1,4.148
12,34,numeric,0.03,0.05,competitor,competitor,0,7.642
12,35,numeric,0.03,0.05,competitor,target,1,10.892
12,36,perceptual,0.03,0.05,target,decoy,0,4.518
12,37,numeric,0.1,0.2,target,target,1,5.065
12,38,numeric,0.1,0.05,target,competitor,0,13.343
12,39,numeric,0.03,0.05,competitor,target,1,7.13
12,40,perceptual,0.03,0.2,target,target,1,4.737
12,41,numeric,0.1,0.2,target,target,1,6.486
12,42,perceptual,0.1,0.2,target,target,1,3.408
12,43,perceptual,0.03,0.05,competitor,target,1,3.985
12,44,perceptual,0.03,0.2,target,competitor,0,3.529
12,45,perceptual,0.1,0.2,competitor,target,1,4.56
12,46,perceptual,0.1,0.05,competitor,target,1,3.158
12,47,perceptual,0.03,0.2,competitor,target,1,2.856
12,48,perceptual,0.1,0.05,target,target,1,5.713
12,49,numeric,0.1,0.2,competitor,target,1,5.818
12,50,numeric,0.03,0.2,target,competitor,0,6.392
12,51,perceptual,0.03,0.2,competitor,target,1,3.208
12,52,numeric,0.1,0.05,target,target,1,9.806
12,53,numeric,0.03,0.2,target,competitor,0,6.559
12,54,numeric,0.1,0.05,competitor,target,1,4.423
12,55,numeric,0.03,0.2,target,competitor,0,3.347
12,56,numeric,0.1,0.2,target,target,1,8.4
12,57,perceptual,0.03,0.05,target,target,1,5.637
12,58,numeric,0.03,0.05,target,competitor,0,6.771
12,59,numeric,0.1,0.2,competitor,target,1,7.667
12,60,numeric,0.1,0.05,target,target,1,7.357
12,61,numeric,0.1,0.05,competitor,target,1,8.947
12,62,perceptual,0.03,0.2,competitor,competitor,0,3.798
12,63,perceptual,0.03,0.2,competitor,competitor,0,2.857
12,64,numeric,0.1,0.05,target,target,1,5.992
12,65,perceptual,0.03,0.05,competitor,target,1,4.409
12,66,perceptual,0.1,0.05,competitor,target,1,5.318
12,67,numeric,0.03,0.2,competitor,target,1,6.255
12,68,numeric,0.1,0.05,competitor,target,1,4.573
12,69,perceptual,0.03,0.05,target,target,1,5.128
12,70,perceptual,0.1,0.2,target,target,1,4.307
12,71,perceptual,0.03,0.05,competitor,target,1,3.151
12,72,perceptual,0.03,0.2,competitor,target,1,5.027
12,73,numeric,0.1,0.2,target,target,1,8.835
12,74,perceptual,0.03,0.2,competitor,competitor,0,3.072
12,75,numeric,0.1,0.2,target,target,1,12.99
12,76,perceptual,0.1,0.05,competitor,target,1,3.265
12,77,numeric,0.1,0.2,target,target,1,6.917
12,78,numeric,0.03,0.05,target,target,1,6.308
12,79,perceptual,0.03,0.2,target,competitor,0,5.436
12,80,perceptual,0.03,0.05,target,decoy,0,4.589
12,81,numeric,0.03,0.05,target,target,1,7.436
12,82,numeric,0.03,0.2,competitor,target,1,6.173
12,83,perceptual,0.1,0.05,target,target,1,6.893
12,84,perceptual,0.1,0.05,target,target,1,3.451
12,85,numeric,0.1,0.2,competitor,target,1,7.064
12,86,perceptual,0.1,0.2,competitor,target,1,2.614
12,87,numeric,0.03,0.2,target,target,1,8.253
12,88,perceptual,0.1,0.05,competitor,target,1,3.836
12,89,perceptual,0.1,0.05,competitor,competitor,0,5.792
12,90,perceptual,0.1,0.2,target,target,1,4.101
12,91,perceptual,0.1,0.2,competitor,target,1,3.16
12,92,perceptual,0.03,0.05,target,competitor,0,4.209
12,93,numeric,0.1,0.2,target,target,1,6.581
12,94,perceptual,0.1,0.2,target,target,1,4.357
12,95,numeric,0.03,0.2,competitor,target,1,6.997
12,96,numeric,0.03,0.2,target,target,1,8.943
12,97,numeric,0.1,0.2,target,competitor,0,8.516
12,98,perceptual,0.03,0.05,competitor,target,1,6.114
12,99,numeric,0.1,0.2,competitor,target,1,5.262
12,100,numeric,0.03,0.2,competitor,competitor,0,10.726
12,101,numeric,0.03,0.2,target,target,1,10.633
12,102,numeric,0.1,0.2,competitor,target,1,6.816
12,103,perceptual,0.1,0.2,target,target,1,5.325
12,104,numeric,0.1,0.05,competitor,target,1,6.907
12,105,numeric,0.03,0.2,competitor,target,1,8.034
12,106,numeric,0.1,0.05,competitor,target,1,5.652
12,107,perceptual,0.03,0.2,target,target,1,5.1
12,108,perceptual,0.1,0.05,target,target,1,7.212
12,109,perceptual,0.03,0.2,target,target,1,5.835
12,110,perceptual,0.1,0.05,competitor,competitor,0,3.603
12,111,perceptual,0.1,0.05,target,decoy,0,4.16
12,112,perceptual,0.03,0.05,target,target,1,3.044
12,113,numeric,0.03,0.2,target,target,1,5.718
12,114,perceptual,0.1,0.05,competitor,target,1,5.55
12,115,numeric,0.1,0.2,competitor,target,1,5.333
12,116,numeric,0.1,0.2,competitor,target,1,4.341
12,117,numeric,0.03,0.05,target,target,1,7.886
12,118,perceptual,0.03,0.05,competitor,target,1,2.992
12,119,perceptual,0.1,0.05,target,target,1,3.056
12,120,perceptual,0.03,0.05,competitor,decoy,0,4.48
12,121,perceptual,0.03,0.05,target,target,1,4.215
12,122,perceptual,0.1,0.05,competitor,target,1,3.009
12,123,numeric,0.03,0.2,competitor,competitor,0,10.119
