participant,block,trial_index,center_x,center_y,time_elapsed,internal_node_id,t1_ori,t2_ori,t3_ori,target_position,cue_type,real_target_position,sound_file,resp_sound_file,start_ori,resp_ori,error,trial_number,abs_err,target_ori,diff_to_next,diff_to_prev,N_by_participant
1,0,6,400,400,397326,0.0-5.0-1.0,-9.77,39.31,11.72,3,valid,3,./sounds/normalized_sine_wave_1318_hz.wav,./sounds/normalized_sine_wave_1318_hz.wav,138,2,-9.72000000000003,1,9.72000000000003,11.72,,-27.59,165
1,0,11,400,400,449868,0.0-5.0-1.1,41.6,-80.05,44.91,2,valid,2,./sounds/normalized_sine_wave_784_hz.wav,./sounds/normalized_sine_wave_784_hz.wav,41,-53,27.05,2,27.05,-80.05,55.04,58.35,165
1,0,16,400,400,458075,0.0-5.0-1.2,-23.4,11.89,-4.71,3,valid,3,./sounds/normalized_sine_wave_1318_hz.wav,./sounds/normalized_sine_wave_1318_hz.wav,22,-27,-22.29,3,22.29,-4.71,,-16.6,165
1,0,21,400,400,476284,0.0-5.0-1.3,-0.68,-45.41,-43.35,2,invalid,3,./sounds/normalized_sine_wave_784_hz.wav,./sounds/normalized_sine_wave_1318_hz.wav,83,-6,37.35,4,37.35,-43.35,,2.06,165
1,0,26,400,400,483199,0.0-5.0-1.4,7.44,-9.86,78.38,3,valid,3,./sounds/normalized_sine_wave_1318_hz.wav,./sounds/normalized_sine_wave_1318_hz.wav,32,69,-9.38,5,9.38,78.38,,88.24,165
1,0,31,400,400,490192,0.0-5.0-1.5,40.49,53.74,78.14,3,neutral,3,./sounds/normalized_overlay_sine_waves.wav,./sounds/normalized_sine_wave_1318_hz.wav,35,46,-32.14,6,32.14,78.14,,24.4,165
1,0,36,400,400,497290,0.0-5.0-1.6,-85.4,-79.18,-77.96,2,valid,2,./sounds/normalized_sine_wave_784_hz.wav,./sounds/normalized_sine_wave_784_hz.wav,4,-75,4.18000000000001,7,4.18000000000001,-79.18,-1.22000000000003,6.21999999999999,165
1,0,41,400,400,504242,0.0-5.0-1.7,6.16,66.59,8.99,2,invalid,1,./sounds/normalized_sine_wave_784_hz.wav,./sounds/normalized_sine_wave_330_hz.wav,163,43,36.84,8,36.84,6.16,-60.43,,165
1,0,46,400,400,510720,0.0-5.0-1.8,-1.84,63.35,-69.24,3,valid,3,./sounds/normalized_sine_wave_1318_hz.wav,./sounds/normalized_sine_wave_1318_hz.wav,169,49,-61.76,9,61.76,-69.24,,47.41,165
1,0,51,400,400,517276,0.0-5.0-1.9,-79.19,15.66,43.69,1,valid,1,./sounds/normalized_sine_wave_330_hz.wav,./sounds/normalized_sine_wave_330_hz.wav,128,-46,33.19,10,33.19,-79.19,85.15,,165
1,0,56,400,400,524988,0.0-5.0-1.10,66.97,5.98,-73.29,2,neutral,1,./sounds/normalized_overlay_sine_waves.wav,./sounds/normalized_sine_wave_330_hz.wav,161,-47,66.03,11,66.03,66.97,60.99,,165
1,0,61,400,400,534477,0.0-5.0-1.11,-33.84,52.88,-24.57,2,invalid,1,./sounds/normalized_sine_wave_784_hz.wav,./sounds/normalized_sine_wave_330_hz.wav,167,35,68.84,12,68.84,-33.84,-86.72,,165
1,0,66,400,400,541360,0.0-5.0-1.12,-3.4,-60.15,64.11,2,valid,2,./sounds/normalized_sine_wave_784_hz.wav,./sounds/normalized_sine_wave_784_hz.wav,118,-50,10.15,13,10.15,-60.15,55.74,-56.75,165
1,0,71,400,400,547991,0.0-5.0-1.13,23.03,71.24,82.96,2,neutral,2,./sounds/normalized_overlay_sine_waves.wav,./sounds/normalized_sine_wave_784_hz.wav,3,44,-27.24,14,27.24,71.24,-11.72,48.21,165
1,0,76,400,400,554920,0.0-5.0-1.14,-4.04,70.06,24.99,1,invalid,2,./sounds/normalized_sine_wave_330_hz.wav,./sounds/normalized_sine_wave_784_hz.wav,131,-19,-89.06,15,89.06,70.06,45.07,74.1,165
1,1,4,400,400,16820,0.0-3.0-1.0,79.15,83.86,-72.15,2,valid,2,./sounds/normalized_sine_wave_784_hz.wav,./sounds/normalized_sine_wave_784_hz.wav,100,73,-10.86,1,10.86,83.86,-23.99,4.71,165
1,1,9,400,400,23278,0.0-3.0-1.1,-62.88,-39.12,-76.66,3,neutral,1,./sounds/normalized_overlay_sine_waves.wav,./sounds/normalized_sine_wave_330_hz.wav,179,-25,37.88,2,37.88,-62.88,-23.76,,165
1,1,14,400,400,30343,0.0-3.0-1.2,-56.16,-17.27,-63.16,2,valid,2,./sounds/normalized_sine_wave_784_hz.wav,./sounds/normalized_sine_wave_784_hz.wav,8,-20,-2.73000000000002,3,2.73000000000002,-17.27,45.89,38.89,165
1,1,19,400,400,36750,0.0-3.0-1.3,78.2,-64.78,-62.74,1,valid,1,./sounds/normalized_sine_wave_330_hz.wav,./sounds/normalized_sine_wave_330_hz.wav,144,47,-31.2,4,31.2,78.2,-37.02,,165
1,1,24,400,400,44153,0.0-3.0-1.4,59.41,-67.34,18.76,3,valid,3,./sounds/normalized_sine_wave_1318_hz.wav,./sounds/normalized_sine_wave_1318_hz.wav,94,16,-2.75999999999999,5,2.75999999999999,18.76,,86.1,165
1,1,29,400,400,52116,0.0-3.0-1.5,82.37,-45.51,82.04,2,invalid,3,./sounds/normalized_sine_wave_784_hz.wav,./sounds/normalized_sine_wave_1318_hz.wav,112,52,-30.04,6,30.04,82.04,,-52.45,165
1,1,34,400,400,59019,0.0-3.0-1.6,-36.38,-47,10.6,1,valid,1,./sounds/normalized_sine_wave_330_hz.wav,./sounds/normalized_sine_wave_330_hz.wav,41,-16,20.38,7,20.38,-36.38,10.62,,165
1,1,39,400,400,66035,0.0-3.0-1.7,-75.4,65.76,12.13,2,invalid,3,./sounds/normalized_sine_wave_784_hz.wav,./sounds/normalized_sine_wave_1318_hz.wav,161,17,4.87000000000001,8,4.87000000000001,12.13,,-53.63,165
1,1,44,400,400,86464,0.0-3.0-1.8,-44.69,40.46,30.12,3,valid,3,./sounds/normalized_sine_wave_1318_hz.wav,./sounds/normalized_sine_wave_1318_hz.wav,163,32,1.88,9,1.88,30.12,,-10.34,165
1,1,49,400,400,96496,0.0-3.0-1.9,65,-76.38,-81.47,3,neutral,1,./sounds/normalized_overlay_sine_waves.wav,./sounds/normalized_sine_wave_330_hz.wav,104,-69,46,10,46,65,-38.62,,165
1,1,54,400,400,102883,0.0-3.0-1.10,-9.79,-52.76,-12.71,2,valid,2,./sounds/normalized_sine_wave_784_hz.wav,./sounds/normalized_sine_wave_784_hz.wav,42,-39,13.76,11,13.76,-52.76,-40.05,-42.97,165
1,1,59,400,400,109174,0.0-3.0-1.11,47.76,0.99,-47.81,1,neutral,1,./sounds/normalized_overlay_sine_waves.wav,./sounds/normalized_sine_wave_330_hz.wav,98,1,-46.76,12,46.76,47.76,46.77,,165
1,1,64,400,400,115858,0.0-3.0-1.12,-66.6,-76.56,-4.38,2,valid,2,./sounds/normalized_sine_wave_784_hz.wav,./sounds/normalized_sine_wave_784_hz.wav,118,-46,30.56,13,30.56,-76.56,-72.18,-9.95999999999999,165
1,1,69,400,400,125870,0.0-3.0-1.13,-83.27,48.28,68.65,1,neutral,1,./sounds/normalized_overlay_sine_waves.wav,./sounds/normalized_sine_wave_330_hz.wav,26,-50,33.27,14,33.27,-83.27,48.45,,165
1,1,74,400,400,135833,0.0-3.0-1.14,-50.98,-25.51,-46.53,1,valid,1,./sounds/normalized_sine_wave_330_hz.wav,./sounds/normalized_sine_wave_330_hz.wav,58,-47,3.98000000000002,15,3.98000000000002,-50.98,-25.47,,165
1,1,79,400,400,142790,0.0-3.0-1.15,35.21,11.85,70.71,3,valid,3,./sounds/normalized_sine_wave_1318_hz.wav,./sounds/normalized_sine_wave_1318_hz.wav,99,55,-15.71,16,15.71,70.71,,58.86,165
1,1,84,400,400,149531,0.0-3.0-1.16,-17.08,-12.99,-13.9,2,valid,2,./sounds/normalized_sine_wave_784_hz.wav,./sounds/normalized_sine_wave_784_hz.wav,46,-29,-16.01,17,16.01,-12.99,0.909999999999994,4.09,165
1,1,89,400,400,156594,0.0-3.0-1.17,56.07,-5.91,-44.41,1,neutral,1,./sounds/normalized_overlay_sine_waves.wav,./sounds/normalized_sine_wave_330_hz.wav,147,20,-36.07,18,36.07,56.07,61.98,,165
1,1,94,400,400,163582,0.0-3.0-1.18,-10.89,-37.76,30.81,3,valid,3,./sounds/normalized_sine_wave_1318_hz.wav,./sounds/normalized_sine_wave_1318_hz.wav,70,31,0.189999999999998,19,0.189999999999998,30.81,,68.57,165
1,1,99,400,400,170580,0.0-3.0-1.19,-1.74,11.31,19.22,2,neutral,2,./sounds/normalized_overlay_sine_waves.wav,./sounds/normalized_sine_wave_784_hz.wav,96,11,-0.310000000000002,20,0.310000000000002,11.31,-7.91,13.05,165
1,1,104,400,400,177513,0.0-3.0-1.20,54.47,-5.68,20,1,valid,1,./sounds/normalized_sine_wave_330_hz.wav,./sounds/normalized_sine_wave_330_hz.wav,88,51,-3.47000000000003,21,3.47000000000003,54.47,60.15,,165
1,1,109,400,400,183865,0.0-3.0-1.21,-3.81,-28.95,24.2,3,valid,3,./sounds/normalized_sine_wave_1318_hz.wav,./sounds/normalized_sine_wave_1318_hz.wav,9,31,6.80000000000001,22,6.80000000000001,24.2,,53.15,165
1,1,114,400,400,190488,0.0-3.0-1.22,0.49,78.09,49.59,3,valid,3,./sounds/normalized_sine_wave_1318_hz.wav,./sounds/normalized_sine_wave_1318_hz.wav,147,34,-15.59,23,15.59,49.59,,-28.5,165
1,1,119,400,400,197262,0.0-3.0-1.23,-59.96,-18.01,-86.18,3,valid,3,./sounds/normalized_sine_wave_1318_hz.wav,./sounds/normalized_sine_wave_1318_hz.wav,44,-71,15.18,24,15.18,-86.18,,-68.17,165
1,1,124,400,400,204312,0.0-3.0-1.24,-38.74,82.25,29.19,1,valid,1,./sounds/normalized_sine_wave_330_hz.wav,./sounds/normalized_sine_wave_330_hz.wav,115,-42,-3.25999999999999,25,3.25999999999999,-38.74,59.01,,165
1,1,129,400,400,212776,0.0-3.0-1.25,-72.68,-54.35,-7.06,3,valid,3,./sounds/normalized_sine_wave_1318_hz.wav,./sounds/normalized_sine_wave_1318_hz.wav,149,-20,-12.94,26,12.94,-7.06,,47.29,165
1,1,134,400,400,220324,0.0-3.0-1.26,-55.93,-37.77,-60.28,3,valid,3,./sounds/normalized_sine_wave_1318_hz.wav,./sounds/normalized_sine_wave_1318_hz.wav,103,-53,7.27999999999997,27,7.27999999999997,-60.28,,-22.51,165
1,1,139,400,400,226531,0.0-3.0-1.27,-42.24,80.19,-59.35,2,neutral,3,./sounds/normalized_overlay_sine_waves.wav,./sounds/normalized_sine_wave_1318_hz.wav,158,-52,7.35000000000002,28,7.35000000000002,-59.35,,40.46,165
1,1,144,400,400,232817,0.0-3.0-1.28,-43.87,-35.35,13.36,3,valid,3,./sounds/normalized_sine_wave_1318_hz.wav,./sounds/normalized_sine_wave_1318_hz.wav,171,-20,-33.36,29,33.36,13.36,,48.71,165
1,1,149,400,400,239016,0.0-3.0-1.29,61.87,60.44,-55.25,1,valid,1,./sounds/normalized_sine_wave_330_hz.wav,./sounds/normalized_sine_wave_330_hz.wav,39,49,-12.87,30,12.87,61.87,1.42999999999999,,165
1,1,154,400,400,245758,0.0-3.0-1.30,65.81,86.08,4.88,3,valid,3,./sounds/normalized_sine_wave_1318_hz.wav,./sounds/normalized_sine_wave_1318_hz.wav,93,14,9.12,31,9.12,4.88,,-81.2,165
1,1,159,400,400,252350,0.0-3.0-1.31,-35.23,82.91,-81.68,2,valid,2,./sounds/normalized_sine_wave_784_hz.wav,./sounds/normalized_sine_wave_784_hz.wav,144,-62,35.09,32,35.09,82.91,-15.41,-61.86,165
1,1,164,400,400,260381,0.0-3.0-1.32,-54.08,82.29,8.59,3,neutral,2,./sounds/normalized_overlay_sine_waves.wav,./sounds/normalized_sine_wave_784_hz.wav,45,72,-10.29,33,10.29,82.29,73.7,-43.63,165
1,1,169,400,400,266778,0.0-3.0-1.33,40.02,80.9,-69.53,3,invalid,2,./sounds/normalized_sine_wave_1318_hz.wav,./sounds/normalized_sine_wave_784_hz.wav,105,71,-9.89999999999998,34,9.89999999999998,80.9,-29.57,40.88,165
1,1,174,400,400,273152,0.0-3.0-1.34,74.5,19.14,-23.86,2,invalid,1,./sounds/normalized_sine_wave_784_hz.wav,./sounds/normalized_sine_wave_330_hz.wav,8,58,-16.5,35,16.5,74.5,55.36,,165
1,1,179,400,400,279192,0.0-3.0-1.35,-70.17,-7.63,25.83,3,valid,3,./sounds/normalized_sine_wave_1318_hz.wav,./sounds/normalized_sine_wave_1318_hz.wav,153,36,10.17,36,10.17,25.83,,33.46,165
1,1,184,400,400,286528,0.0-3.0-1.36,-50.29,19.33,-23.74,3,invalid,2,./sounds/normalized_sine_wave_1318_hz.wav,./sounds/normalized_sine_wave_784_hz.wav,113,33,13.67,37,13.67,19.33,43.07,69.62,165
1,1,189,400,400,293409,0.0-3.0-1.37,33.18,-43.72,-72.59,3,valid,3,./sounds/normalized_sine_wave_1318_hz.wav,./sounds/normalized_sine_wave_1318_hz.wav,161,-64,8.59000000000003,38,8.59000000000003,-72.59,,-28.87,165
1,1,194,400,400,299749,0.0-3.0-1.38,-49.42,1.87,24.14,3,valid,3,./sounds/normalized_sine_wave_1318_hz.wav,./sounds/normalized_sine_wave_1318_hz.wav,17,25,0.860000000000014,39,0.860000000000014,24.14,,22.27,165
1,1,199,400,400,306599,0.0-3.0-1.39,-15.88,-55.49,-54.01,1,valid,1,./sounds/normalized_sine_wave_330_hz.wav,./sounds/normalized_sine_wave_330_hz.wav,171,-29,-13.12,40,13.12,-15.88,39.61,,165
1,1,204,400,400,313050,0.0-3.0-1.40,-62.31,49.48,76.68,3,neutral,3,./sounds/normalized_overlay_sine_waves.wav,./sounds/normalized_sine_wave_1318_hz.wav,13,66,-10.68,41,10.68,76.68,,27.2,165
1,1,209,400,400,320104,0.0-3.0-1.41,23.89,-18.05,88.62,2,valid,2,./sounds/normalized_sine_wave_784_hz.wav,./sounds/normalized_sine_wave_784_hz.wav,163,-35,-16.95,42,16.95,-18.05,73.33,-41.94,165
1,1,214,400,400,326721,0.0-3.0-1.42,58.66,-24.54,-10.43,1,valid,1,./sounds/normalized_sine_wave_330_hz.wav,./sounds/normalized_sine_wave_330_hz.wav,40,60,1.34000000000003,43,1.34000000000003,58.66,83.2,,165
1,1,219,400,400,333428,0.0-3.0-1.43,-87.85,60.79,-63.42,1,valid,1,./sounds/normalized_sine_wave_330_hz.wav,./sounds/normalized_sine_wave_330_hz.wav,110,-89,-1.14999999999998,44,1.14999999999998,-87.85,31.36,,165
1,1,224,400,400,339783,0.0-3.0-1.44,1.47,-83.13,41.12,2,neutral,2,./sounds/normalized_overlay_sine_waves.wav,./sounds/normalized_sine_wave_784_hz.wav,146,-63,20.13,45,20.13,-83.13,55.75,-84.6,165
1,1,229,400,400,346256,0.0-3.0-1.45,63.45,78.47,64.3,2,valid,2,./sounds/normalized_sine_wave_784_hz.wav,./sounds/normalized_sine_wave_784_hz.wav,92,68,-10.47,46,10.47,78.47,14.17,15.02,165
1,1,234,400,400,352504,0.0-3.0-1.46,13.05,-51.51,44.67,3,valid,3,./sounds/normalized_sine_wave_1318_hz.wav,./sounds/normalized_sine_wave_1318_hz.wav,110,59,14.33,47,14.33,44.67,,-83.82,165
1,1,239,400,400,359308,0.0-3.0-1.47,-67.36,72.75,27.17,1,valid,1,./sounds/normalized_sine_wave_330_hz.wav,./sounds/normalized_sine_wave_330_hz.wav,74,80,-32.64,48,32.64,-67.36,39.89,,165
1,1,244,400,400,366184,0.0-3.0-1.48,-76.12,-52.19,-60.6,3,neutral,2,./sounds/normalized_overlay_sine_waves.wav,./sounds/normalized_sine_wave_784_hz.wav,57,-80,-27.81,49,27.81,-52.19,8.41,23.93,165
1,1,249,400,400,372364,0.0-3.0-1.49,-85.04,73.31,-71.31,3,valid,3,./sounds/normalized_sine_wave_1318_hz.wav,./sounds/normalized_sine_wave_1318_hz.wav,104,-72,-0.689999999999998,50,0.689999999999998,-71.31,,35.38,165
1,1,254,400,400,379631,0.0-3.0-1.50,34.43,-33.17,50.14,3,valid,3,./sounds/normalized_sine_wave_1318_hz.wav,./sounds/normalized_sine_wave_1318_hz.wav,113,68,17.86,51,17.86,50.14,,83.31,165
1,1,259,400,400,386533,0.0-3.0-1.51,-63.38,80.95,89.38,1,invalid,3,./sounds/normalized_sine_wave_330_hz.wav,./sounds/normalized_sine_wave_1318_hz.wav,50,68,-21.38,52,21.38,89.38,,8.43,165
1,1,264,400,400,392807,0.0-3.0-1.52,17.9,54.2,-75.95,1,neutral,1,./sounds/normalized_overlay_sine_waves.wav,./sounds/normalized_sine_wave_330_hz.wav,92,58,40.1,53,40.1,17.9,-36.3,,165
1,1,269,400,400,399467,0.0-3.0-1.53,-41.54,-68.46,-40.25,2,valid,2,./sounds/normalized_sine_wave_784_hz.wav,./sounds/normalized_sine_wave_784_hz.wav,2,-66,2.45999999999998,54,2.45999999999998,-68.46,-28.21,-26.92,165
1,1,274,400,400,406072,0.0-3.0-1.54,-79.18,85.29,51.65,1,invalid,3,./sounds/normalized_sine_wave_330_hz.wav,./sounds/normalized_sine_wave_1318_hz.wav,55,64,12.35,55,12.35,51.65,,-33.64,165
1,1,279,400,400,412997,0.0-3.0-1.55,25.44,-58.15,67.44,2,valid,2,./sounds/normalized_sine_wave_784_hz.wav,./sounds/normalized_sine_wave_784_hz.wav,160,-58,0.149999999999977,56,0.149999999999977,-58.15,54.41,-83.59,165
1,1,284,400,400,420412,0.0-3.0-1.56,20.08,89.87,-56.17,1,valid,1,./sounds/normalized_sine_wave_330_hz.wav,./sounds/normalized_sine_wave_330_hz.wav,72,28,7.92000000000002,57,7.92000000000002,20.08,-69.79,,165
1,1,289,400,400,428180,0.0-3.0-1.57,-74.03,13.85,49.33,1,invalid,3,./sounds/normalized_sine_wave_330_hz.wav,./sounds/normalized_sine_wave_1318_hz.wav,119,54,4.67000000000002,58,4.67000000000002,49.33,,35.48,165
1,1,294,400,400,434884,0.0-3.0-1.58,-13.09,12.62,-62.33,2,valid,2,./sounds/normalized_sine_wave_784_hz.wav,./sounds/normalized_sine_wave_784_hz.wav,19,21,8.38,59,8.38,12.62,74.95,25.71,165
1,1,299,400,400,441478,0.0-3.0-1.59,8.4,-81.1,39.22,2,invalid,3,./sounds/normalized_sine_wave_784_hz.wav,./sounds/normalized_sine_wave_1318_hz.wav,62,67,27.78,60,27.78,39.22,,-59.68,165
1,1,304,400,400,447895,0.0-3.0-1.60,-59.2,5.73,-70.69,3,invalid,2,./sounds/normalized_sine_wave_1318_hz.wav,./sounds/normalized_sine_wave_784_hz.wav,175,27,21.27,61,21.27,5.73,76.42,64.93,165
1,1,309,400,400,455558,0.0-3.0-1.61,15.04,40.93,-68.95,2,invalid,3,./sounds/normalized_sine_wave_784_hz.wav,./sounds/normalized_sine_wave_1318_hz.wav,65,-75,-6.05000000000001,62,6.05000000000001,-68.95,,70.12,165
1,1,314,400,400,461864,0.0-3.0-1.62,74.95,74.39,55.57,2,valid,2,./sounds/normalized_sine_wave_784_hz.wav,./sounds/normalized_sine_wave_784_hz.wav,126,48,-26.39,63,26.39,74.39,18.82,-0.560000000000003,165
1,1,319,400,400,469477,0.0-3.0-1.63,19.46,-19.94,-76.94,3,valid,3,./sounds/normalized_sine_wave_1318_hz.wav,./sounds/normalized_sine_wave_1318_hz.wav,118,-68,8.94,64,8.94,-76.94,,-57,165
1,1,324,400,400,476436,0.0-3.0-1.64,7.91,41.96,-5.2,2,invalid,3,./sounds/normalized_sine_wave_784_hz.wav,./sounds/normalized_sine_wave_1318_hz.wav,9,-59,-53.8,65,53.8,-5.2,,-47.16,165
1,1,329,400,400,482939,0.0-3.0-1.65,-70.58,-78.82,-63.33,2,valid,2,./sounds/normalized_sine_wave_784_hz.wav,./sounds/normalized_sine_wave_784_hz.wav,73,-61,17.82,66,17.82,-78.82,-15.49,-8.23999999999998,165
1,1,334,400,400,489752,0.0-3.0-1.66,-32.4,77.97,-28.2,2,valid,2,./sounds/normalized_sine_wave_784_hz.wav,./sounds/normalized_sine_wave_784_hz.wav,127,51,-26.97,67,26.97,77.97,-73.83,-69.63,165
1,1,339,400,400,497027,0.0-3.0-1.67,46.21,18.64,-89.99,3,valid,3,./sounds/normalized_sine_wave_1318_hz.wav,./sounds/normalized_sine_wave_1318_hz.wav,139,54,-36.01,68,36.01,-89.99,,71.37,165
1,1,344,400,400,503470,0.0-3.0-1.68,56.02,63.41,30.96,1,valid,1,./sounds/normalized_sine_wave_330_hz.wav,./sounds/normalized_sine_wave_330_hz.wav,157,62,5.98000000000002,69,5.98000000000002,56.02,-7.39,,165
1,1,349,400,400,510376,0.0-3.0-1.69,19.79,38.11,88.97,1,valid,1,./sounds/normalized_sine_wave_330_hz.wav,./sounds/normalized_sine_wave_330_hz.wav,169,32,12.21,70,12.21,19.79,-18.32,,165
1,1,354,400,400,517296,0.0-3.0-1.70,4.4,87.05,-83.04,2,neutral,1,./sounds/normalized_overlay_sine_waves.wav,./sounds/normalized_sine_wave_330_hz.wav,106,11,6.60000000000002,71,6.60000000000002,4.4,-82.65,,165
1,1,359,400,400,524118,0.0-3.0-1.71,30.38,21.07,31.2,2,neutral,3,./sounds/normalized_overlay_sine_waves.wav,./sounds/normalized_sine_wave_1318_hz.wav,131,21,-10.2,72,10.2,31.2,,10.13,165
1,1,364,400,400,532265,0.0-3.0-1.72,35.9,67.38,69.42,1,neutral,2,./sounds/normalized_overlay_sine_waves.wav,./sounds/normalized_sine_wave_784_hz.wav,146,40,-27.38,73,27.38,67.38,-2.04,31.48,165
1,1,369,400,400,539563,0.0-3.0-1.73,-52.48,-38.47,25.87,3,valid,3,./sounds/normalized_sine_wave_1318_hz.wav,./sounds/normalized_sine_wave_1318_hz.wav,135,31,5.13,74,5.13,25.87,,64.34,165
1,1,374,400,400,546237,0.0-3.0-1.74,12.72,66.96,40.25,1,valid,1,./sounds/normalized_sine_wave_330_hz.wav,./sounds/normalized_sine_wave_330_hz.wav,99,38,25.28,75,25.28,12.72,-54.24,,165
1,1,379,400,400,553327,0.0-3.0-1.75,59.97,45.69,-75.03,2,invalid,3,./sounds/normalized_sine_wave_784_hz.wav,./sounds/normalized_sine_wave_1318_hz.wav,164,-39,36.03,76,36.03,-75.03,,59.28,165
1,1,384,400,400,560204,0.0-3.0-1.76,54.34,-32.29,-19.12,3,valid,3,./sounds/normalized_sine_wave_1318_hz.wav,./sounds/normalized_sine_wave_1318_hz.wav,67,-38,-18.88,77,18.88,-19.12,,13.17,165
1,1,389,400,400,567013,0.0-3.0-1.77,89.02,-24.02,3.68,2,valid,2,./sounds/normalized_sine_wave_784_hz.wav,./sounds/normalized_sine_wave_784_hz.wav,132,-31,-6.98000000000002,78,6.98000000000002,-24.02,-27.7,66.96,165
1,1,394,400,400,573288,0.0-3.0-1.78,-5.34,7.8,-19.25,2,valid,2,./sounds/normalized_sine_wave_784_hz.wav,./sounds/normalized_sine_wave_784_hz.wav,106,14,6.19999999999999,79,6.19999999999999,7.8,27.05,13.14,165
1,1,399,400,400,580642,0.0-3.0-1.79,36.9,-19.62,47.2,2,valid,2,./sounds/normalized_sine_wave_784_hz.wav,./sounds/normalized_sine_wave_784_hz.wav,131,30,49.62,80,49.62,-19.62,-66.82,-56.52,165
1,1,404,400,400,587734,0.0-3.0-1.80,67.17,-34.52,-73.76,2,valid,2,./sounds/normalized_sine_wave_784_hz.wav,./sounds/normalized_sine_wave_784_hz.wav,128,-43,-8.48000000000002,81,8.48000000000002,-34.52,39.24,78.31,165
1,1,409,400,400,594428,0.0-3.0-1.81,-54.06,56.05,43.27,2,neutral,1,./sounds/normalized_overlay_sine_waves.wav,./sounds/normalized_sine_wave_330_hz.wav,52,-40,14.06,82,14.06,-54.06,69.89,,165
1,1,414,400,400,600966,0.0-3.0-1.82,31.42,1,60.09,2,neutral,2,./sounds/normalized_overlay_sine_waves.wav,./sounds/normalized_sine_wave_784_hz.wav,42,27,26,83,26,1,-59.09,-30.42,165
1,1,419,400,400,607462,0.0-3.0-1.83,13.77,66.35,39.48,1,invalid,3,./sounds/normalized_sine_wave_330_hz.wav,./sounds/normalized_sine_wave_1318_hz.wav,164,34,-5.48000000000002,84,5.48000000000002,39.48,,-26.87,165
1,1,424,400,400,614299,0.0-3.0-1.84,54.87,16.15,-79.59,2,valid,2,./sounds/normalized_sine_wave_784_hz.wav,./sounds/normalized_sine_wave_784_hz.wav,3,-50,-66.15,85,66.15,16.15,-84.26,-38.72,165
1,1,429,400,400,621167,0.0-3.0-1.85,-49.94,-32.21,-76.56,3,invalid,2,./sounds/normalized_sine_wave_1318_hz.wav,./sounds/normalized_sine_wave_784_hz.wav,29,-33,-0.789999999999964,86,0.789999999999964,-32.21,44.35,17.73,165
1,1,434,400,400,628771,0.0-3.0-1.86,1.01,9.49,17.69,3,valid,3,./sounds/normalized_sine_wave_1318_hz.wav,./sounds/normalized_sine_wave_1318_hz.wav,31,20,2.31,87,2.31,17.69,,8.2,165
1,1,439,400,400,635479,0.0-3.0-1.87,23.55,-47.51,36.21,1,valid,1,./sounds/normalized_sine_wave_330_hz.wav,./sounds/normalized_sine_wave_330_hz.wav,74,11,-12.55,88,12.55,23.55,71.06,,165
1,1,444,400,400,641934,0.0-3.0-1.88,12.6,51.12,-56.33,3,valid,3,./sounds/normalized_sine_wave_1318_hz.wav,./sounds/normalized_sine_wave_1318_hz.wav,147,-27,29.33,89,29.33,-56.33,,72.55,165
1,1,449,400,400,649950,0.0-3.0-1.89,-69.92,73.58,-16.02,1,neutral,1,./sounds/normalized_overlay_sine_waves.wav,./sounds/normalized_sine_wave_330_hz.wav,58,-34,35.92,90,35.92,-69.92,36.5,,165
1,1,454,400,400,659081,0.0-3.0-1.90,37.81,-65.65,89.57,1,valid,1,./sounds/normalized_sine_wave_330_hz.wav,./sounds/normalized_sine_wave_330_hz.wav,43,-34,-71.81,91,71.81,37.81,-76.54,,165
1,1,459,400,400,665179,0.0-3.0-1.91,-39.73,20.9,61,1,valid,1,./sounds/normalized_sine_wave_330_hz.wav,./sounds/normalized_sine_wave_330_hz.wav,50,-24,15.73,92,15.73,-39.73,-60.63,,165
1,1,464,400,400,671483,0.0-3.0-1.92,-49.64,-71.75,54.44,1,valid,1,./sounds/normalized_sine_wave_330_hz.wav,./sounds/normalized_sine_wave_330_hz.wav,146,-26,23.64,93,23.64,-49.64,22.11,,165
1,1,469,400,400,678344,0.0-3.0-1.93,34.55,83.43,-63.13,3,valid,3,./sounds/normalized_sine_wave_1318_hz.wav,./sounds/normalized_sine_wave_1318_hz.wav,90,-45,18.13,94,18.13,-63.13,,33.44,165
1,1,474,400,400,684915,0.0-3.0-1.94,-81.05,-0.21,-69.84,2,valid,2,./sounds/normalized_sine_wave_784_hz.wav,./sounds/normalized_sine_wave_784_hz.wav,133,-19,-18.79,95,18.79,-0.21,69.63,80.84,165
1,1,479,400,400,691780,0.0-3.0-1.95,71.96,-49.15,-46.38,3,neutral,1,./sounds/normalized_overlay_sine_waves.wav,./sounds/normalized_sine_wave_330_hz.wav,26,44,-27.96,96,27.96,71.96,-58.89,,165
1,1,484,400,400,698648,0.0-3.0-1.96,-35.82,-65.98,58.6,3,valid,3,./sounds/normalized_sine_wave_1318_hz.wav,./sounds/normalized_sine_wave_1318_hz.wav,158,45,-13.6,97,13.6,58.6,,-55.42,165
1,1,489,400,400,705476,0.0-3.0-1.97,-40.64,66.27,-4.2,2,valid,2,./sounds/normalized_sine_wave_784_hz.wav,./sounds/normalized_sine_wave_784_hz.wav,150,52,-14.27,98,14.27,66.27,70.47,-73.09,165
1,1,494,400,400,712303,0.0-3.0-1.98,-29.93,-70.6,-13.69,3,valid,3,./sounds/normalized_sine_wave_1318_hz.wav,./sounds/normalized_sine_wave_1318_hz.wav,127,-29,-15.31,99,15.31,-13.69,,56.91,165
1,1,499,400,400,718773,0.0-3.0-1.99,67.14,-83.16,-80.24,1,valid,1,./sounds/normalized_sine_wave_330_hz.wav,./sounds/normalized_sine_wave_330_hz.wav,85,51,-16.14,100,16.14,67.14,-29.7,,165
1,1,504,400,400,726581,0.0-3.0-1.100,-75.61,14.56,-10.29,2,neutral,2,./sounds/normalized_overlay_sine_waves.wav,./sounds/normalized_sine_wave_784_hz.wav,143,24,9.44,101,9.44,14.56,24.85,-89.83,165
1,1,509,400,400,733476,0.0-3.0-1.101,-77.73,-79.89,29.49,3,invalid,2,./sounds/normalized_sine_wave_1318_hz.wav,./sounds/normalized_sine_wave_784_hz.wav,67,-68,11.89,102,11.89,-79.89,70.62,-2.16000000000001,165
1,1,514,400,400,740235,0.0-3.0-1.102,89.68,-12.71,13.19,1,valid,1,./sounds/normalized_sine_wave_330_hz.wav,./sounds/normalized_sine_wave_330_hz.wav,149,88,-1.68000000000001,103,1.68000000000001,89.68,-77.61,,165
1,1,519,400,400,747336,0.0-3.0-1.103,10.1,16.38,3.36,2,valid,2,./sounds/normalized_sine_wave_784_hz.wav,./sounds/normalized_sine_wave_784_hz.wav,64,25,8.62000000000001,104,8.62000000000001,16.38,13.02,6.28,165
1,1,524,400,400,753580,0.0-3.0-1.104,85.61,33.49,82.7,1,neutral,2,./sounds/normalized_overlay_sine_waves.wav,./sounds/normalized_sine_wave_784_hz.wav,48,37,3.50999999999999,105,3.50999999999999,33.49,-49.21,-52.12,165
1,1,529,400,400,760900,0.0-3.0-1.105,43.21,-13.76,-60.8,1,valid,1,./sounds/normalized_sine_wave_330_hz.wav,./sounds/normalized_sine_wave_330_hz.wav,142,32,-11.21,106,11.21,43.21,56.97,,165
1,1,534,400,400,767241,0.0-3.0-1.106,27.54,-21.2,79.66,1,neutral,1,./sounds/normalized_overlay_sine_waves.wav,./sounds/normalized_sine_wave_330_hz.wav,60,-26,-53.54,107,53.54,27.54,48.74,,165
1,1,539,400,400,774045,0.0-3.0-1.107,-33.44,-82.84,35.92,3,neutral,2,./sounds/normalized_overlay_sine_waves.wav,./sounds/normalized_sine_wave_784_hz.wav,44,-83,-0.159999999999968,108,0.159999999999968,-82.84,61.24,-49.4,165
1,1,544,400,400,781341,0.0-3.0-1.108,71.79,34.79,-69.66,1,valid,1,./sounds/normalized_sine_wave_330_hz.wav,./sounds/normalized_sine_wave_330_hz.wav,176,25,-46.79,109,46.79,71.79,37,,165
1,1,549,400,400,788468,0.0-3.0-1.109,43.63,19.43,-8.84,3,neutral,2,./sounds/normalized_overlay_sine_waves.wav,./sounds/normalized_sine_wave_784_hz.wav,18,-6,-25.43,110,25.43,19.43,28.27,-24.2,165
1,1,554,400,400,796331,0.0-3.0-1.110,27.33,-58.26,-74.81,3,valid,3,./sounds/normalized_sine_wave_1318_hz.wav,./sounds/normalized_sine_wave_1318_hz.wav,179,-60,14.81,111,14.81,-74.81,,-16.55,165
1,1,559,400,400,803430,0.0-3.0-1.111,57.92,-28.02,52.16,3,invalid,2,./sounds/normalized_sine_wave_1318_hz.wav,./sounds/normalized_sine_wave_784_hz.wav,31,-52,-23.98,112,23.98,-28.02,-80.18,-85.94,165
1,1,564,400,400,810754,0.0-3.0-1.112,29.17,77.41,72.58,3,invalid,1,./sounds/normalized_sine_wave_1318_hz.wav,./sounds/normalized_sine_wave_330_hz.wav,57,-63,87.83,113,87.83,29.17,-48.24,,165
1,1,569,400,400,817148,0.0-3.0-1.113,-22.95,36.91,-48.22,3,valid,3,./sounds/normalized_sine_wave_1318_hz.wav,./sounds/normalized_sine_wave_1318_hz.wav,125,-60,-11.78,114,11.78,-48.22,,-85.13,165
1,1,574,400,400,823520,0.0-3.0-1.114,-51.35,6.89,89.61,1,invalid,2,./sounds/normalized_sine_wave_330_hz.wav,./sounds/normalized_sine_wave_784_hz.wav,169,42,35.11,115,35.11,6.89,-82.72,58.24,165
1,1,579,400,400,830031,0.0-3.0-1.115,68.93,-80.76,66.18,2,invalid,1,./sounds/normalized_sine_wave_784_hz.wav,./sounds/normalized_sine_wave_330_hz.wav,72,59,-9.93000000000001,116,9.93000000000001,68.93,-30.31,,165
1,1,584,400,400,836550,0.0-3.0-1.116,43.53,73.68,-71,3,valid,3,./sounds/normalized_sine_wave_1318_hz.wav,./sounds/normalized_sine_wave_1318_hz.wav,80,-61,10,117,10,-71,,35.32,165
1,1,589,400,400,843204,0.0-3.0-1.117,-87.27,87.33,-6.76,3,valid,3,./sounds/normalized_sine_wave_1318_hz.wav,./sounds/normalized_sine_wave_1318_hz.wav,65,-18,-11.24,118,11.24,-6.76,,85.91,165
1,1,594,400,400,850131,0.0-3.0-1.118,58.83,83.28,-80.89,2,neutral,3,./sounds/normalized_overlay_sine_waves.wav,./sounds/normalized_sine_wave_1318_hz.wav,106,-57,23.89,119,23.89,-80.89,,15.83,165
1,1,599,400,400,857049,0.0-3.0-1.119,15.65,67.48,44.89,2,invalid,3,./sounds/normalized_sine_wave_784_hz.wav,./sounds/normalized_sine_wave_1318_hz.wav,81,43,-1.88999999999999,120,1.88999999999999,44.89,,-22.59,165
1,1,604,400,400,863469,0.0-3.0-1.120,-75.27,-45.97,-17.87,1,invalid,2,./sounds/normalized_sine_wave_330_hz.wav,./sounds/normalized_sine_wave_784_hz.wav,128,-41,4.97000000000003,121,4.97000000000003,-45.97,-28.1,29.3,165
1,1,609,400,400,869918,0.0-3.0-1.121,26.91,58.16,-12.81,2,valid,2,./sounds/normalized_sine_wave_784_hz.wav,./sounds/normalized_sine_wave_784_hz.wav,100,67,8.84000000000003,122,8.84000000000003,58.16,70.97,31.25,165
1,1,614,400,400,876151,0.0-3.0-1.122,-64.03,-25.77,77.35,1,valid,1,./sounds/normalized_sine_wave_330_hz.wav,./sounds/normalized_sine_wave_330_hz.wav,41,-51,13.03,123,13.03,-64.03,-38.26,,165
1,1,619,400,400,882473,0.0-3.0-1.123,-25.23,73.56,-34.94,2,valid,2,./sounds/normalized_sine_wave_784_hz.wav,./sounds/normalized_sine_wave_784_hz.wav,103,57,-16.56,124,16.56,73.56,-71.5,-81.21,165
1,1,624,400,400,889433,0.0-3.0-1.124,-52.27,-35.64,-38.92,1,valid,1,./sounds/normalized_sine_wave_330_hz.wav,./sounds/normalized_sine_wave_330_hz.wav,173,-38,14.27,125,14.27,-52.27,-16.63,,165
1,1,629,400,400,895517,0.0-3.0-1.125,6.14,-81.66,-42.7,2,valid,2,./sounds/normalized_sine_wave_784_hz.wav,./sounds/normalized_sine_wave_784_hz.wav,32,-68,13.66,126,13.66,-81.66,-38.96,-87.8,165
1,1,634,400,400,901681,0.0-3.0-1.126,64.33,52.54,-82.04,2,valid,2,./sounds/normalized_sine_wave_784_hz.wav,./sounds/normalized_sine_wave_784_hz.wav,138,46,-6.53999999999996,127,6.53999999999996,52.54,-45.42,-11.79,165
1,1,639,400,400,907889,0.0-3.0-1.127,-12.77,-82.3,-22.93,1,valid,1,./sounds/normalized_sine_wave_330_hz.wav,./sounds/normalized_sine_wave_330_hz.wav,120,-35,-22.23,128,22.23,-12.77,69.53,,165
1,1,644,400,400,914714,0.0-3.0-1.128,52.94,81.93,-48.38,2,valid,2,./sounds/normalized_sine_wave_784_hz.wav,./sounds/normalized_sine_wave_784_hz.wav,153,-57,41.07,129,41.07,81.93,-49.69,28.99,165
1,1,649,400,400,922509,0.0-3.0-1.129,-78.46,-50.25,12.56,1,valid,1,./sounds/normalized_sine_wave_330_hz.wav,./sounds/normalized_sine_wave_330_hz.wav,5,-52,26.46,130,26.46,-78.46,-28.21,,165
1,1,654,400,400,928861,0.0-3.0-1.130,-85.59,79.35,-19.84,1,neutral,1,./sounds/normalized_overlay_sine_waves.wav,./sounds/normalized_sine_wave_330_hz.wav,15,-74,11.59,131,11.59,-85.59,15.06,,165
1,1,659,400,400,936670,0.0-3.0-1.131,-67.21,-80.08,-86.57,3,invalid,1,./sounds/normalized_sine_wave_1318_hz.wav,./sounds/normalized_sine_wave_330_hz.wav,75,-65,2.20999999999998,132,2.20999999999998,-67.21,12.87,,165
1,1,664,400,400,943637,0.0-3.0-1.132,2.84,-44.1,85.35,1,invalid,3,./sounds/normalized_sine_wave_330_hz.wav,./sounds/normalized_sine_wave_1318_hz.wav,82,-64,30.65,133,30.65,85.35,,-50.55,165
1,1,669,400,400,950005,0.0-3.0-1.133,10.53,-75.95,-65.15,1,neutral,1,./sounds/normalized_overlay_sine_waves.wav,./sounds/normalized_sine_wave_330_hz.wav,137,36,25.47,134,25.47,10.53,86.48,,165
1,1,674,400,400,961438,0.0-3.0-1.134,0.18,67.53,7.65,3,neutral,2,./sounds/normalized_overlay_sine_waves.wav,./sounds/normalized_sine_wave_784_hz.wav,85,52,-15.53,135,15.53,67.53,59.88,67.35,165
1,1,679,400,400,967718,0.0-3.0-1.135,-35.35,7.44,81.54,2,neutral,1,./sounds/normalized_overlay_sine_waves.wav,./sounds/normalized_sine_wave_330_hz.wav,145,30,65.35,136,65.35,-35.35,-42.79,,165
1,1,684,400,400,974043,0.0-3.0-1.136,-48.95,78.73,-61.46,1,valid,1,./sounds/normalized_sine_wave_330_hz.wav,./sounds/normalized_sine_wave_330_hz.wav,80,-40,8.94999999999999,137,8.94999999999999,-48.95,52.32,,165
1,1,689,400,400,982481,0.0-3.0-1.137,-13.06,-89.55,86.75,3,neutral,2,./sounds/normalized_overlay_sine_waves.wav,./sounds/normalized_sine_wave_784_hz.wav,120,-86,3.55000000000001,138,3.55000000000001,-89.55,3.7,-76.49,165
1,1,694,400,400,990129,0.0-3.0-1.138,62.15,-50.16,-32.01,1,invalid,2,./sounds/normalized_sine_wave_330_hz.wav,./sounds/normalized_sine_wave_784_hz.wav,149,-50,0.159999999999968,139,0.159999999999968,-50.16,-18.15,67.69,165
1,1,699,400,400,996723,0.0-3.0-1.139,77.73,-0.21,89.29,2,invalid,1,./sounds/normalized_sine_wave_784_hz.wav,./sounds/normalized_sine_wave_330_hz.wav,72,81,3.26999999999998,140,3.26999999999998,77.73,77.94,,165
1,1,704,400,400,1003446,0.0-3.0-1.140,-4.23,-87.29,32.52,1,invalid,2,./sounds/normalized_sine_wave_330_hz.wav,./sounds/normalized_sine_wave_784_hz.wav,4,-74,13.29,141,13.29,-87.29,60.19,-83.06,165
1,1,709,400,400,1009744,0.0-3.0-1.141,-12.32,-40.07,66.47,3,invalid,2,./sounds/normalized_sine_wave_1318_hz.wav,./sounds/normalized_sine_wave_784_hz.wav,46,-64,-23.93,142,23.93,-40.07,73.46,-27.75,165
1,1,714,400,400,1016700,0.0-3.0-1.142,34.52,11.09,-52.02,1,invalid,3,./sounds/normalized_sine_wave_330_hz.wav,./sounds/normalized_sine_wave_1318_hz.wav,144,-66,-13.98,143,13.98,-52.02,,-63.11,165
1,1,719,400,400,1023605,0.0-3.0-1.143,73.14,-29.87,-33.88,1,valid,1,./sounds/normalized_sine_wave_330_hz.wav,./sounds/normalized_sine_wave_330_hz.wav,109,78,4.86000000000001,144,4.86000000000001,73.14,-76.99,,165
1,1,724,400,400,1030309,0.0-3.0-1.144,-75.19,-14.24,8.67,2,valid,2,./sounds/normalized_sine_wave_784_hz.wav,./sounds/normalized_sine_wave_784_hz.wav,42,-24,-9.75999999999999,145,9.75999999999999,-14.24,-22.91,60.95,165
1,1,729,400,400,1037045,0.0-3.0-1.145,8.03,31.61,23.49,1,valid,1,./sounds/normalized_sine_wave_330_hz.wav,./sounds/normalized_sine_wave_330_hz.wav,16,14,5.97000000000003,146,5.97000000000003,8.03,-23.58,,165
1,1,734,400,400,1043481,0.0-3.0-1.146,43.15,-81.15,46.18,2,valid,2,./sounds/normalized_sine_wave_784_hz.wav,./sounds/normalized_sine_wave_784_hz.wav,97,-62,19.15,147,19.15,-81.15,52.67,55.7,165
1,1,739,400,400,1049766,0.0-3.0-1.147,2.99,-65.88,9.96,2,valid,2,./sounds/normalized_sine_wave_784_hz.wav,./sounds/normalized_sine_wave_784_hz.wav,5,-58,7.88,148,7.88,-65.88,-75.84,-68.87,165
1,1,744,400,400,1055961,0.0-3.0-1.148,68.31,-22.42,-78.86,1,valid,1,./sounds/normalized_sine_wave_330_hz.wav,./sounds/normalized_sine_wave_330_hz.wav,92,76,7.69,149,7.69,68.31,-89.27,,165
1,1,749,400,400,1062704,0.0-3.0-1.149,2.66,-42.22,2.97,3,invalid,1,./sounds/normalized_sine_wave_1318_hz.wav,./sounds/normalized_sine_wave_330_hz.wav,77,-4,-6.65999999999997,150,6.65999999999997,2.66,44.88,,165
2,0,6,400,400,25385,0.0-5.0-1.0,17.26,-11.59,55.28,3,neutral,2,./sounds/normalized_overlay_sine_waves.wav,./sounds/normalized_sine_wave_784_hz.wav,15,-83,-71.41,1,71.41,-11.59,-66.87,-28.85,165
2,0,11,400,400,50323,0.0-5.0-1.1,57.07,39.04,58.91,2,valid,2,./sounds/normalized_sine_wave_784_hz.wav,./sounds/normalized_sine_wave_784_hz.wav,83,0,-39.04,2,39.04,39.04,-19.87,-18.03,165
2,0,16,400,400,74223,0.0-5.0-1.2,64.75,35.18,-2.86,2,valid,2,./sounds/normalized_sine_wave_784_hz.wav,./sounds/normalized_sine_wave_784_hz.wav,40,-40,-75.18,3,75.18,35.18,38.04,-29.57,165
2,0,21,400,400,80076,0.0-5.0-1.3,-61.42,50.48,-84.2,1,valid,1,./sounds/normalized_sine_wave_330_hz.wav,./sounds/normalized_sine_wave_330_hz.wav,171,-81,-19.58,4,19.58,-61.42,68.1,,165
2,0,26,400,400,95404,0.0-5.0-1.4,77.83,-9.83,-34.14,1,valid,1,./sounds/normalized_sine_wave_330_hz.wav,./sounds/normalized_sine_wave_330_hz.wav,170,6,-71.83,5,71.83,77.83,87.66,,165
2,0,31,400,400,101591,0.0-5.0-1.5,-7.26,-15.47,-11.93,1,neutral,2,./sounds/normalized_overlay_sine_waves.wav,./sounds/normalized_sine_wave_784_hz.wav,59,-170,25.47,6,25.47,-15.47,-3.54,-8.21,165
2,0,36,400,400,107100,0.0-5.0-1.6,81.14,-43.34,-80.16,1,valid,1,./sounds/normalized_sine_wave_330_hz.wav,./sounds/normalized_sine_wave_330_hz.wav,91,-62,36.86,7,36.86,81.14,-55.52,,165
2,0,41,400,400,112925,0.0-5.0-1.7,-40.39,-61.06,-64.63,1,valid,1,./sounds/normalized_sine_wave_330_hz.wav,./sounds/normalized_sine_wave_330_hz.wav,82,-30,10.39,8,10.39,-40.39,20.67,,165
2,0,46,400,400,121269,0.0-5.0-1.8,-75.28,40.02,70.88,1,neutral,3,./sounds/normalized_overlay_sine_waves.wav,./sounds/normalized_sine_wave_1318_hz.wav,11,-41,68.12,9,68.12,70.88,,30.86,165
2,0,51,400,400,130125,0.0-5.0-1.9,28.35,24.22,-19.21,3,neutral,2,./sounds/normalized_overlay_sine_waves.wav,./sounds/normalized_sine_wave_784_hz.wav,6,52,27.78,10,27.78,24.22,43.43,-4.13,165
2,0,56,400,400,136751,0.0-5.0-1.10,-36.89,-59.62,-1.43,3,valid,3,./sounds/normalized_sine_wave_1318_hz.wav,./sounds/normalized_sine_wave_1318_hz.wav,104,65,66.43,11,66.43,-1.43,,58.19,165
2,0,61,400,400,143641,0.0-5.0-1.11,-12.82,64.13,58.78,3,valid,3,./sounds/normalized_sine_wave_1318_hz.wav,./sounds/normalized_sine_wave_1318_hz.wav,3,-3,-61.78,12,61.78,58.78,,-5.35,165
2,0,66,400,400,150919,0.0-5.0-1.12,-81.55,-81.14,-53.31,1,valid,1,./sounds/normalized_sine_wave_330_hz.wav,./sounds/normalized_sine_wave_330_hz.wav,14,82,-16.45,13,16.45,-81.55,-0.41,,165
2,0,71,400,400,157341,0.0-5.0-1.13,-41.7,-23.99,41.4,1,valid,1,./sounds/normalized_sine_wave_330_hz.wav,./sounds/normalized_sine_wave_330_hz.wav,59,-2,39.7,14,39.7,-41.7,-17.71,,165
2,0,76,400,400,163452,0.0-5.0-1.14,15.18,18.22,63.55,1,invalid,2,./sounds/normalized_sine_wave_330_hz.wav,./sounds/normalized_sine_wave_784_hz.wav,109,-31,-49.22,15,49.22,18.22,-45.33,3.04,165
2,1,4,400,400,15236,0.0-3.0-1.0,-68.35,-56.33,-21.16,1,valid,1,./sounds/normalized_sine_wave_330_hz.wav,./sounds/normalized_sine_wave_330_hz.wav,120,58,-53.65,1,53.65,-68.35,-12.02,,165
2,1,9,400,400,24308,0.0-3.0-1.1,-29.83,51.14,-58.39,3,neutral,2,./sounds/normalized_overlay_sine_waves.wav,./sounds/normalized_sine_wave_784_hz.wav,111,-14,-65.14,2,65.14,51.14,-70.47,80.97,165
2,1,14,400,400,31090,0.0-3.0-1.2,38.99,-41.53,76.65,3,neutral,3,./sounds/normalized_overlay_sine_waves.wav,./sounds/normalized_sine_wave_1318_hz.wav,28,-86,17.35,3,17.35,76.65,,-61.82,165
2,1,19,400,400,37944,0.0-3.0-1.3,10.22,61,-44.27,2,valid,2,./sounds/normalized_sine_wave_784_hz.wav,./sounds/normalized_sine_wave_784_hz.wav,62,79,18,4,18,61,-74.73,50.78,165
2,1,24,400,400,44457,0.0-3.0-1.4,-75.14,-68.93,67.48,3,valid,3,./sounds/normalized_sine_wave_1318_hz.wav,./sounds/normalized_sine_wave_1318_hz.wav,77,-3,-70.48,5,70.48,67.48,,-43.59,165
2,1,29,400,400,52228,0.0-3.0-1.5,-52.76,2.63,20.12,3,valid,3,./sounds/normalized_sine_wave_1318_hz.wav,./sounds/normalized_sine_wave_1318_hz.wav,154,34,13.88,6,13.88,20.12,,17.49,165
2,1,34,400,400,58605,0.0-3.0-1.6,11.73,36.61,-80.31,3,valid,3,./sounds/normalized_sine_wave_1318_hz.wav,./sounds/normalized_sine_wave_1318_hz.wav,132,85,-14.69,7,14.69,-80.31,,63.08,165
2,1,39,400,400,65194,0.0-3.0-1.7,37.08,-47.28,-55.55,1,invalid,2,./sounds/normalized_sine_wave_330_hz.wav,./sounds/normalized_sine_wave_784_hz.wav,63,17,64.28,8,64.28,-47.28,8.26999999999999,-84.36,165
2,1,44,400,400,71573,0.0-3.0-1.8,22.42,4.93,61.45,2,neutral,3,./sounds/normalized_overlay_sine_waves.wav,./sounds/normalized_sine_wave_1318_hz.wav,110,7,-54.45,9,54.45,61.45,,56.52,165
2,1,49,400,400,78995,0.0-3.0-1.9,63.53,-39.42,-38.4,2,valid,2,./sounds/normalized_sine_wave_784_hz.wav,./sounds/normalized_sine_wave_784_hz.wav,117,-83,-43.58,10,43.58,-39.42,-1.02,77.05,165
2,1,54,400,400,86440,0.0-3.0-1.10,-85.54,-68.55,54.15,3,valid,3,./sounds/normalized_sine_wave_1318_hz.wav,./sounds/normalized_sine_wave_1318_hz.wav,99,88,33.85,11,33.85,54.15,,-57.3,165
2,1,59,400,400,94211,0.0-3.0-1.11,14.34,-47.76,-88.97,3,invalid,2,./sounds/normalized_sine_wave_1318_hz.wav,./sounds/normalized_sine_wave_784_hz.wav,42,-1,46.76,12,46.76,-47.76,41.21,-62.1,165
2,1,64,400,400,100938,0.0-3.0-1.12,-12.65,78.06,-33.26,1,invalid,3,./sounds/normalized_sine_wave_330_hz.wav,./sounds/normalized_sine_wave_1318_hz.wav,65,-35,-1.74000000000001,13,1.74000000000001,-33.26,,68.68,165
2,1,69,400,400,107098,0.0-3.0-1.13,3.71,37.26,23.93,2,valid,2,./sounds/normalized_sine_wave_784_hz.wav,./sounds/normalized_sine_wave_784_hz.wav,30,64,26.74,14,26.74,37.26,13.33,33.55,165
2,1,74,400,400,114256,0.0-3.0-1.14,-17.6,66.55,48.65,2,valid,2,./sounds/normalized_sine_wave_784_hz.wav,./sounds/normalized_sine_wave_784_hz.wav,63,-89,24.45,15,24.45,66.55,17.9,84.15,165
2,1,79,400,400,123878,0.0-3.0-1.15,48.44,-70.07,-46.42,2,neutral,1,./sounds/normalized_overlay_sine_waves.wav,./sounds/normalized_sine_wave_330_hz.wav,68,43,-5.44,16,5.44,48.44,-61.49,,165
2,1,84,400,400,131026,0.0-3.0-1.16,-21.83,39.86,29.51,3,invalid,1,./sounds/normalized_sine_wave_1318_hz.wav,./sounds/normalized_sine_wave_330_hz.wav,14,55,76.83,17,76.83,-21.83,-61.69,,165
2,1,89,400,400,137712,0.0-3.0-1.17,-79.71,-15.16,-28.71,1,valid,1,./sounds/normalized_sine_wave_330_hz.wav,./sounds/normalized_sine_wave_330_hz.wav,97,7,86.71,18,86.71,-79.71,-64.55,,165
2,1,94,400,400,144989,0.0-3.0-1.18,-57.52,20.85,-38.77,3,invalid,1,./sounds/normalized_sine_wave_1318_hz.wav,./sounds/normalized_sine_wave_330_hz.wav,66,-8,49.52,19,49.52,-57.52,-78.37,,165
2,1,99,400,400,151712,0.0-3.0-1.19,77.74,49.58,41.5,3,valid,3,./sounds/normalized_sine_wave_1318_hz.wav,./sounds/normalized_sine_wave_1318_hz.wav,18,3,-38.5,20,38.5,41.5,,-8.08000000000001,165
2,1,104,400,400,158106,0.0-3.0-1.20,30.79,-29.56,11.57,1,valid,1,./sounds/normalized_sine_wave_330_hz.wav,./sounds/normalized_sine_wave_330_hz.wav,73,-38,-68.79,21,68.79,30.79,60.35,,165
2,1,109,400,400,174488,0.0-3.0-1.21,89.66,49.22,84.44,3,valid,3,./sounds/normalized_sine_wave_1318_hz.wav,./sounds/normalized_sine_wave_1318_hz.wav,80,-22,73.56,22,73.56,84.44,,35.22,165
2,1,114,400,400,180678,0.0-3.0-1.22,-51.82,-78.9,-19.76,2,valid,2,./sounds/normalized_sine_wave_784_hz.wav,./sounds/normalized_sine_wave_784_hz.wav,131,-80,-1.10000000000002,23,1.10000000000002,-78.9,-59.14,-27.08,165
2,1,119,400,400,243102,0.0-3.0-1.23,-60.06,31.72,-46.62,2,neutral,1,./sounds/normalized_overlay_sine_waves.wav,./sounds/normalized_sine_wave_330_hz.wav,143,-46,14.06,24,14.06,-60.06,88.22,,165
2,1,124,400,400,250637,0.0-3.0-1.24,-49.86,-89.03,-52.53,1,valid,1,./sounds/normalized_sine_wave_330_hz.wav,./sounds/normalized_sine_wave_330_hz.wav,1,70,-60.14,25,60.14,-49.86,39.17,,165
2,1,129,400,400,261752,0.0-3.0-1.25,39.75,-69.79,35.66,2,valid,2,./sounds/normalized_sine_wave_784_hz.wav,./sounds/normalized_sine_wave_784_hz.wav,165,53,-57.21,26,57.21,-69.79,74.55,70.46,165
2,1,134,400,400,269260,0.0-3.0-1.26,-69.71,-40.99,0.79,3,neutral,2,./sounds/normalized_overlay_sine_waves.wav,./sounds/normalized_sine_wave_784_hz.wav,6,-3,37.99,27,37.99,-40.99,-41.78,28.72,165
2,1,139,400,400,277754,0.0-3.0-1.27,75.44,-58.1,-79.42,3,invalid,1,./sounds/normalized_sine_wave_1318_hz.wav,./sounds/normalized_sine_wave_330_hz.wav,142,36,-39.44,28,39.44,75.44,-46.46,,165
2,1,144,400,400,284826,0.0-3.0-1.28,-0.26,-56.73,-61.21,2,valid,2,./sounds/normalized_sine_wave_784_hz.wav,./sounds/normalized_sine_wave_784_hz.wav,173,-45,11.73,29,11.73,-56.73,4.48,-56.47,165
2,1,149,400,400,291753,0.0-3.0-1.29,32.53,-65.91,-64.75,3,valid,3,./sounds/normalized_sine_wave_1318_hz.wav,./sounds/normalized_sine_wave_1318_hz.wav,45,51,-64.25,30,64.25,-64.75,,1.15999999999999,165
2,1,154,400,400,298307,0.0-3.0-1.30,-2.04,7.77,89.24,2,valid,2,./sounds/normalized_sine_wave_784_hz.wav,./sounds/normalized_sine_wave_784_hz.wav,156,88,80.23,31,80.23,7.77,-81.47,9.81,165
2,1,159,400,400,304653,0.0-3.0-1.31,3.38,-9.06,42.67,1,valid,1,./sounds/normalized_sine_wave_330_hz.wav,./sounds/normalized_sine_wave_330_hz.wav,140,13,9.62,32,9.62,3.38,12.44,,165
2,1,164,400,400,311886,0.0-3.0-1.32,-74.2,-53.4,-64.42,3,invalid,1,./sounds/normalized_sine_wave_1318_hz.wav,./sounds/normalized_sine_wave_330_hz.wav,110,-1,73.2,33,73.2,-74.2,-20.8,,165
2,1,169,400,400,318141,0.0-3.0-1.33,68.59,-28.24,18.74,1,valid,1,./sounds/normalized_sine_wave_330_hz.wav,./sounds/normalized_sine_wave_330_hz.wav,10,83,14.41,34,14.41,68.59,-83.17,,165
2,1,174,400,400,325385,0.0-3.0-1.34,-65.99,-12.97,63.36,2,valid,2,./sounds/normalized_sine_wave_784_hz.wav,./sounds/normalized_sine_wave_784_hz.wav,111,32,44.97,35,44.97,-12.97,-76.33,53.02,165
2,1,179,400,400,331707,0.0-3.0-1.35,19.99,79.87,-14.25,2,invalid,1,./sounds/normalized_sine_wave_784_hz.wav,./sounds/normalized_sine_wave_330_hz.wav,132,-111,49.01,36,49.01,19.99,-59.88,,165
2,1,184,400,400,338036,0.0-3.0-1.36,-13.3,11.69,-87.54,1,valid,1,./sounds/normalized_sine_wave_330_hz.wav,./sounds/normalized_sine_wave_330_hz.wav,52,-33,-19.7,37,19.7,-13.3,-24.99,,165
2,1,189,400,400,345024,0.0-3.0-1.37,40.28,18,-42.74,2,valid,2,./sounds/normalized_sine_wave_784_hz.wav,./sounds/normalized_sine_wave_784_hz.wav,10,-80,82,38,82,18,60.74,-22.28,165
2,1,194,400,400,351235,0.0-3.0-1.38,-78.24,-87.07,58.44,1,valid,1,./sounds/normalized_sine_wave_330_hz.wav,./sounds/normalized_sine_wave_330_hz.wav,99,-3,75.24,39,75.24,-78.24,8.83,,165
2,1,199,400,400,358025,0.0-3.0-1.39,64.09,-37,62.66,2,invalid,3,./sounds/normalized_sine_wave_784_hz.wav,./sounds/normalized_sine_wave_1318_hz.wav,73,1,-61.66,40,61.66,62.66,,-80.34,165
2,1,204,400,400,367702,0.0-3.0-1.40,45.86,55.15,-68.55,2,valid,2,./sounds/normalized_sine_wave_784_hz.wav,./sounds/normalized_sine_wave_784_hz.wav,21,-1,-56.15,41,56.15,55.15,-56.3,9.29000000000001,165
2,1,209,400,400,375240,0.0-3.0-1.41,-8.57,-44.92,66.53,1,invalid,3,./sounds/normalized_sine_wave_330_hz.wav,./sounds/normalized_sine_wave_1318_hz.wav,144,45,-21.53,42,21.53,66.53,,-68.55,165
2,1,214,400,400,381767,0.0-3.0-1.42,-66.92,-65.89,44.78,3,valid,3,./sounds/normalized_sine_wave_1318_hz.wav,./sounds/normalized_sine_wave_1318_hz.wav,42,-144,-8.78,43,8.78,44.78,,-69.33,165
2,1,219,400,400,389190,0.0-3.0-1.43,3.38,-21.87,-6.03,1,neutral,1,./sounds/normalized_overlay_sine_waves.wav,./sounds/normalized_sine_wave_330_hz.wav,37,73,69.62,44,69.62,3.38,25.25,,165
2,1,224,400,400,395934,0.0-3.0-1.44,-14.2,54.11,88.5,3,valid,3,./sounds/normalized_sine_wave_1318_hz.wav,./sounds/normalized_sine_wave_1318_hz.wav,111,-58,33.5,45,33.5,88.5,,34.39,165
2,1,229,400,400,404823,0.0-3.0-1.45,-31.66,42.36,69.21,3,valid,3,./sounds/normalized_sine_wave_1318_hz.wav,./sounds/normalized_sine_wave_1318_hz.wav,176,-84,26.79,46,26.79,69.21,,26.85,165
2,1,234,400,400,411017,0.0-3.0-1.46,23.77,29.9,-63.23,1,valid,1,./sounds/normalized_sine_wave_330_hz.wav,./sounds/normalized_sine_wave_330_hz.wav,98,-2,-25.77,47,25.77,23.77,-6.13,,165
2,1,239,400,400,418841,0.0-3.0-1.47,17.46,51.3,-37.48,3,invalid,2,./sounds/normalized_sine_wave_1318_hz.wav,./sounds/normalized_sine_wave_784_hz.wav,152,-27,-78.3,48,78.3,51.3,88.78,33.84,165
2,1,244,400,400,425200,0.0-3.0-1.48,17.58,38.73,78.66,3,invalid,2,./sounds/normalized_sine_wave_1318_hz.wav,./sounds/normalized_sine_wave_784_hz.wav,85,18,-20.73,49,20.73,38.73,-39.93,21.15,165
2,1,249,400,400,432073,0.0-3.0-1.49,-11.83,-27.13,61.54,3,valid,3,./sounds/normalized_sine_wave_1318_hz.wav,./sounds/normalized_sine_wave_1318_hz.wav,114,-62,56.46,50,56.46,61.54,,88.67,165
2,1,254,400,400,438489,0.0-3.0-1.50,-54.67,-71.98,-63.24,3,valid,3,./sounds/normalized_sine_wave_1318_hz.wav,./sounds/normalized_sine_wave_1318_hz.wav,137,0,63.24,51,63.24,-63.24,,8.74,165
2,1,259,400,400,445133,0.0-3.0-1.51,-34.08,59.37,-21.14,3,valid,3,./sounds/normalized_sine_wave_1318_hz.wav,./sounds/normalized_sine_wave_1318_hz.wav,86,87,-71.86,52,71.86,-21.14,,-80.51,165
2,1,264,400,400,451805,0.0-3.0-1.52,25.43,-87.67,-81.13,2,valid,2,./sounds/normalized_sine_wave_784_hz.wav,./sounds/normalized_sine_wave_784_hz.wav,120,56,-36.33,53,36.33,-87.67,-6.54000000000001,66.9,165
2,1,269,400,400,458250,0.0-3.0-1.53,11.53,-66.18,-12.51,3,neutral,1,./sounds/normalized_overlay_sine_waves.wav,./sounds/normalized_sine_wave_330_hz.wav,29,88,76.47,54,76.47,11.53,77.71,,165
2,1,274,400,400,464656,0.0-3.0-1.54,72.02,4.22,25.83,3,valid,3,./sounds/normalized_sine_wave_1318_hz.wav,./sounds/normalized_sine_wave_1318_hz.wav,132,-29,-54.83,55,54.83,25.83,,21.61,165
2,1,279,400,400,470983,0.0-3.0-1.55,-7.99,81.92,30.23,1,valid,1,./sounds/normalized_sine_wave_330_hz.wav,./sounds/normalized_sine_wave_330_hz.wav,91,-1,6.99000000000001,56,6.99000000000001,-7.99,-89.91,,165
2,1,284,400,400,478439,0.0-3.0-1.56,-47.23,-53.13,10.45,2,valid,2,./sounds/normalized_sine_wave_784_hz.wav,./sounds/normalized_sine_wave_784_hz.wav,179,30,83.13,57,83.13,-53.13,-63.58,-5.9,165
2,1,289,400,400,485633,0.0-3.0-1.57,59.98,-50.72,-8.3,1,neutral,1,./sounds/normalized_overlay_sine_waves.wav,./sounds/normalized_sine_wave_330_hz.wav,60,29,-30.98,58,30.98,59.98,-69.3,,165
2,1,294,400,400,492373,0.0-3.0-1.58,-5.45,-71.01,-60.83,1,neutral,3,./sounds/normalized_overlay_sine_waves.wav,./sounds/normalized_sine_wave_1318_hz.wav,126,-28,32.83,59,32.83,-60.83,,10.18,165
2,1,299,400,400,498531,0.0-3.0-1.59,61.64,83.36,-67.51,1,valid,1,./sounds/normalized_sine_wave_330_hz.wav,./sounds/normalized_sine_wave_330_hz.wav,69,-50,68.36,60,68.36,61.64,-21.72,,165
2,1,304,400,400,504869,0.0-3.0-1.60,-85.55,-31.15,26.85,3,valid,3,./sounds/normalized_sine_wave_1318_hz.wav,./sounds/normalized_sine_wave_1318_hz.wav,85,3,-23.85,61,23.85,26.85,,58,165
2,1,309,400,400,511431,0.0-3.0-1.61,54.05,-11.32,43.11,1,invalid,3,./sounds/normalized_sine_wave_330_hz.wav,./sounds/normalized_sine_wave_1318_hz.wav,76,-24,-67.11,62,67.11,43.11,,54.43,165
2,1,314,400,400,517554,0.0-3.0-1.62,-22.74,-0.62,58.45,2,valid,2,./sounds/normalized_sine_wave_784_hz.wav,./sounds/normalized_sine_wave_784_hz.wav,103,-82,-81.38,63,81.38,-0.62,-59.07,22.12,165
2,1,319,400,400,523782,0.0-3.0-1.63,14.54,27.76,33.75,1,valid,1,./sounds/normalized_sine_wave_330_hz.wav,./sounds/normalized_sine_wave_330_hz.wav,0,44,29.46,64,29.46,14.54,-13.22,,165
2,1,324,400,400,530255,0.0-3.0-1.64,58.43,-35.82,67.14,3,neutral,3,./sounds/normalized_overlay_sine_waves.wav,./sounds/normalized_sine_wave_1318_hz.wav,80,15,-52.14,65,52.14,67.14,,-77.04,165
2,1,329,400,400,536615,0.0-3.0-1.65,83.85,84.03,60.5,2,valid,2,./sounds/normalized_sine_wave_784_hz.wav,./sounds/normalized_sine_wave_784_hz.wav,144,-89,6.97,66,6.97,84.03,23.53,0.180000000000002,165
2,1,334,400,400,543403,0.0-3.0-1.66,-88.7,22.53,11.78,1,valid,1,./sounds/normalized_sine_wave_330_hz.wav,./sounds/normalized_sine_wave_330_hz.wav,42,-73,15.7,67,15.7,-88.7,68.77,,165
2,1,339,400,400,550064,0.0-3.0-1.67,61.39,-63.36,20.7,1,valid,1,./sounds/normalized_sine_wave_330_hz.wav,./sounds/normalized_sine_wave_330_hz.wav,49,83,21.61,68,21.61,61.39,-55.25,,165
2,1,344,400,400,556487,0.0-3.0-1.68,60.64,-14.37,-45.75,2,neutral,2,./sounds/normalized_overlay_sine_waves.wav,./sounds/normalized_sine_wave_784_hz.wav,165,-86,-71.63,69,71.63,-14.37,31.38,-75.01,165
2,1,349,400,400,563033,0.0-3.0-1.69,11.61,31.35,-56.3,3,valid,3,./sounds/normalized_sine_wave_1318_hz.wav,./sounds/normalized_sine_wave_1318_hz.wav,94,38,-85.7,70,85.7,-56.3,,-87.65,165
2,1,354,400,400,569297,0.0-3.0-1.70,-17.61,64.42,-66.91,3,invalid,2,./sounds/normalized_sine_wave_1318_hz.wav,./sounds/normalized_sine_wave_784_hz.wav,104,-45,70.58,71,70.58,64.42,-48.67,82.03,165
2,1,359,400,400,575721,0.0-3.0-1.71,-36.69,2.16,61.48,1,invalid,2,./sounds/normalized_sine_wave_330_hz.wav,./sounds/normalized_sine_wave_784_hz.wav,168,44,41.84,72,41.84,2.16,-59.32,38.85,165
2,1,364,400,400,581981,0.0-3.0-1.72,-15.11,63.09,48.43,2,valid,2,./sounds/normalized_sine_wave_784_hz.wav,./sounds/normalized_sine_wave_784_hz.wav,119,38,-25.09,73,25.09,63.09,14.66,78.2,165
2,1,369,400,400,588419,0.0-3.0-1.73,80.56,-62.88,-16.68,1,invalid,2,./sounds/normalized_sine_wave_330_hz.wav,./sounds/normalized_sine_wave_784_hz.wav,46,38,-79.12,74,79.12,-62.88,-46.2,36.56,165
2,1,374,400,400,594448,0.0-3.0-1.74,69.07,-74.69,36.16,1,neutral,2,./sounds/normalized_overlay_sine_waves.wav,./sounds/normalized_sine_wave_784_hz.wav,36,-3,71.69,75,71.69,-74.69,69.15,36.24,165
2,1,379,400,400,600640,0.0-3.0-1.75,-78.87,69.36,-37.17,1,valid,1,./sounds/normalized_sine_wave_330_hz.wav,./sounds/normalized_sine_wave_330_hz.wav,27,23,-78.13,76,78.13,-78.87,31.77,,165
2,1,384,400,400,607215,0.0-3.0-1.76,45.15,0.66,41.29,3,valid,3,./sounds/normalized_sine_wave_1318_hz.wav,./sounds/normalized_sine_wave_1318_hz.wav,9,-8,-49.29,77,49.29,41.29,,40.63,165
2,1,389,400,400,613206,0.0-3.0-1.77,-15.9,27.24,45.13,2,invalid,1,./sounds/normalized_sine_wave_784_hz.wav,./sounds/normalized_sine_wave_330_hz.wav,69,50,65.9,78,65.9,-15.9,-43.14,,165
2,1,394,400,400,619947,0.0-3.0-1.78,55.46,33.18,-19.92,3,neutral,3,./sounds/normalized_overlay_sine_waves.wav,./sounds/normalized_sine_wave_1318_hz.wav,125,-76,-56.08,79,56.08,-19.92,,-53.1,165
2,1,399,400,400,626186,0.0-3.0-1.79,-46.18,-59.92,-73.9,2,valid,2,./sounds/normalized_sine_wave_784_hz.wav,./sounds/normalized_sine_wave_784_hz.wav,38,9,68.92,80,68.92,-59.92,13.98,-13.74,165
2,1,404,400,400,632148,0.0-3.0-1.80,-85.84,9.12,-39.45,2,invalid,3,./sounds/normalized_sine_wave_784_hz.wav,./sounds/normalized_sine_wave_1318_hz.wav,129,29,68.45,81,68.45,-39.45,,-48.57,165
2,1,409,400,400,638251,0.0-3.0-1.81,-7.06,-52.42,8.85,3,valid,3,./sounds/normalized_sine_wave_1318_hz.wav,./sounds/normalized_sine_wave_1318_hz.wav,86,70,61.15,82,61.15,8.85,,61.27,165
2,1,414,400,400,644696,0.0-3.0-1.82,-69,-14.7,-7.21,2,neutral,2,./sounds/normalized_overlay_sine_waves.wav,./sounds/normalized_sine_wave_784_hz.wav,16,61,75.7,83,75.7,-14.7,-7.48999999999999,54.3,165
2,1,419,400,400,651285,0.0-3.0-1.83,9.2,-73.92,-81.03,2,valid,2,./sounds/normalized_sine_wave_784_hz.wav,./sounds/normalized_sine_wave_784_hz.wav,116,-56,17.92,84,17.92,-73.92,7.10999999999999,-83.12,165
2,1,424,400,400,657514,0.0-3.0-1.84,20.75,-6.72,25.71,2,invalid,3,./sounds/normalized_sine_wave_784_hz.wav,./sounds/normalized_sine_wave_1318_hz.wav,2,-16,-41.71,85,41.71,25.71,,32.43,165
2,1,429,400,400,664151,0.0-3.0-1.85,85.1,-9.91,65.8,2,neutral,2,./sounds/normalized_overlay_sine_waves.wav,./sounds/normalized_sine_wave_784_hz.wav,17,-86,-76.09,86,76.09,-9.91,-75.71,84.99,165
2,1,434,400,400,673197,0.0-3.0-1.86,76.01,-34.19,87.96,2,invalid,1,./sounds/normalized_sine_wave_784_hz.wav,./sounds/normalized_sine_wave_330_hz.wav,9,-3,-79.01,87,79.01,76.01,-69.8,,165
2,1,439,400,400,679718,0.0-3.0-1.87,-28.92,36.01,-81.58,1,neutral,3,./sounds/normalized_overlay_sine_waves.wav,./sounds/normalized_sine_wave_1318_hz.wav,67,-86,-4.42000000000002,88,4.42000000000002,-81.58,,62.41,165
2,1,444,400,400,686312,0.0-3.0-1.88,59.79,31.99,-72.51,1,valid,1,./sounds/normalized_sine_wave_330_hz.wav,./sounds/normalized_sine_wave_330_hz.wav,147,76,16.21,89,16.21,59.79,27.8,,165
2,1,449,400,400,692768,0.0-3.0-1.89,38.82,-70.75,-63.67,2,invalid,3,./sounds/normalized_sine_wave_784_hz.wav,./sounds/normalized_sine_wave_1318_hz.wav,55,19,82.67,90,82.67,-63.67,,7.08000000000001,165
2,1,454,400,400,700330,0.0-3.0-1.90,-32.68,64.48,-2.17,1,invalid,3,./sounds/normalized_sine_wave_330_hz.wav,./sounds/normalized_sine_wave_1318_hz.wav,167,9,11.17,91,11.17,-2.17,,-66.65,165
2,1,459,400,400,706868,0.0-3.0-1.91,43.64,-62.54,-11.52,3,valid,3,./sounds/normalized_sine_wave_1318_hz.wav,./sounds/normalized_sine_wave_1318_hz.wav,4,-48,-36.48,92,36.48,-11.52,,51.02,165
2,1,464,400,400,713463,0.0-3.0-1.92,57.39,89.69,86.49,3,valid,3,./sounds/normalized_sine_wave_1318_hz.wav,./sounds/normalized_sine_wave_1318_hz.wav,49,-60,33.51,93,33.51,86.49,,-3.19999999999999,165
2,1,469,400,400,719818,0.0-3.0-1.93,-66.71,-63.78,89.32,3,valid,3,./sounds/normalized_sine_wave_1318_hz.wav,./sounds/normalized_sine_wave_1318_hz.wav,94,-68,22.68,94,22.68,89.32,,-26.9,165
2,1,474,400,400,726146,0.0-3.0-1.94,-6.33,-53.65,83.84,2,valid,2,./sounds/normalized_sine_wave_784_hz.wav,./sounds/normalized_sine_wave_784_hz.wav,136,-94,-40.35,95,40.35,-53.65,42.51,-47.32,165
2,1,479,400,400,732401,0.0-3.0-1.95,-8.07,-43.21,-48.26,1,invalid,3,./sounds/normalized_sine_wave_330_hz.wav,./sounds/normalized_sine_wave_1318_hz.wav,154,-136,-87.74,96,87.74,-48.26,,-5.04999999999999,165
2,1,484,400,400,743279,0.0-3.0-1.96,-0.87,-21.45,47.47,2,neutral,2,./sounds/normalized_overlay_sine_waves.wav,./sounds/normalized_sine_wave_784_hz.wav,147,4,25.45,97,25.45,-21.45,-68.92,-20.58,165
2,1,489,400,400,749404,0.0-3.0-1.97,-21.1,82.7,79.55,1,valid,1,./sounds/normalized_sine_wave_330_hz.wav,./sounds/normalized_sine_wave_330_hz.wav,150,-14,7.10000000000002,98,7.10000000000002,-21.1,76.2,,165
2,1,494,400,400,755545,0.0-3.0-1.98,23.07,-81.33,-45.66,2,neutral,3,./sounds/normalized_overlay_sine_waves.wav,./sounds/normalized_sine_wave_1318_hz.wav,55,87,-47.34,99,47.34,-45.66,,35.67,165
2,1,499,400,400,762833,0.0-3.0-1.99,-42.03,82.55,-82.15,1,neutral,1,./sounds/normalized_overlay_sine_waves.wav,./sounds/normalized_sine_wave_330_hz.wav,15,-55,-12.97,100,12.97,-42.03,55.42,,165
2,1,504,400,400,769346,0.0-3.0-1.100,77.57,6.31,-0.69,1,neutral,2,./sounds/normalized_overlay_sine_waves.wav,./sounds/normalized_sine_wave_784_hz.wav,115,70,63.69,101,63.69,6.31,7,-71.26,165
2,1,509,400,400,775454,0.0-3.0-1.101,36.51,53.3,-51.19,1,valid,1,./sounds/normalized_sine_wave_330_hz.wav,./sounds/normalized_sine_wave_330_hz.wav,123,60,23.49,102,23.49,36.51,-16.79,,165
2,1,514,400,400,781695,0.0-3.0-1.102,-42.58,32.04,-76.55,1,valid,1,./sounds/normalized_sine_wave_330_hz.wav,./sounds/normalized_sine_wave_330_hz.wav,8,55,-82.42,103,82.42,-42.58,-74.62,,165
2,1,519,400,400,787966,0.0-3.0-1.103,-78.53,-21.27,13.64,1,valid,1,./sounds/normalized_sine_wave_330_hz.wav,./sounds/normalized_sine_wave_330_hz.wav,170,88,-13.47,104,13.47,-78.53,-57.26,,165
2,1,524,400,400,794111,0.0-3.0-1.104,38.4,17.72,33.42,3,valid,3,./sounds/normalized_sine_wave_1318_hz.wav,./sounds/normalized_sine_wave_1318_hz.wav,176,59,25.58,105,25.58,33.42,,15.7,165
2,1,529,400,400,800349,0.0-3.0-1.105,-28.12,-24.45,62.94,2,valid,2,./sounds/normalized_sine_wave_784_hz.wav,./sounds/normalized_sine_wave_784_hz.wav,47,57,81.45,106,81.45,-24.45,-87.39,3.67,165
2,1,534,400,400,806678,0.0-3.0-1.106,11.86,-76.72,52.51,3,neutral,2,./sounds/normalized_overlay_sine_waves.wav,./sounds/normalized_sine_wave_784_hz.wav,167,-1,75.72,107,75.72,-76.72,50.77,-88.58,165
2,1,539,400,400,813533,0.0-3.0-1.107,-44.93,-85.52,30.98,3,valid,3,./sounds/normalized_sine_wave_1318_hz.wav,./sounds/normalized_sine_wave_1318_hz.wav,173,23,-7.98000000000002,108,7.98000000000002,30.98,,-63.5,165
2,1,544,400,400,820961,0.0-3.0-1.108,-6.8,-42.13,-15.69,2,neutral,2,./sounds/normalized_overlay_sine_waves.wav,./sounds/normalized_sine_wave_784_hz.wav,164,39,81.13,109,81.13,-42.13,-26.44,-35.33,165
2,1,549,400,400,827614,0.0-3.0-1.109,74.36,71.07,65.81,1,invalid,2,./sounds/normalized_sine_wave_330_hz.wav,./sounds/normalized_sine_wave_784_hz.wav,159,47,-24.07,110,24.07,71.07,5.25999999999999,-3.29,165
2,1,554,400,400,837578,0.0-3.0-1.110,38.4,80.62,-64.46,2,valid,2,./sounds/normalized_sine_wave_784_hz.wav,./sounds/normalized_sine_wave_784_hz.wav,51,57,-23.62,111,23.62,80.62,-34.92,42.22,165
2,1,559,400,400,844094,0.0-3.0-1.111,-30.8,-31.28,-45.98,1,neutral,2,./sounds/normalized_overlay_sine_waves.wav,./sounds/normalized_sine_wave_784_hz.wav,25,67,-81.72,112,81.72,-31.28,14.7,-0.479999999999996,165
2,1,564,400,400,852099,0.0-3.0-1.112,-37.19,-68.53,-54.06,1,invalid,2,./sounds/normalized_sine_wave_330_hz.wav,./sounds/normalized_sine_wave_784_hz.wav,8,73,-38.47,113,38.47,-68.53,-14.47,-31.34,165
2,1,569,400,400,861293,0.0-3.0-1.113,62.17,-66.61,68.77,1,valid,1,./sounds/normalized_sine_wave_330_hz.wav,./sounds/normalized_sine_wave_330_hz.wav,176,71,8.82999999999998,114,8.82999999999998,62.17,-51.22,,165
2,1,574,400,400,867402,0.0-3.0-1.114,5.35,76.82,78.21,3,neutral,1,./sounds/normalized_overlay_sine_waves.wav,./sounds/normalized_sine_wave_330_hz.wav,179,-67,-72.35,115,72.35,5.35,-71.47,,165
2,1,579,400,400,874076,0.0-3.0-1.115,88.72,-50.96,40.99,1,valid,1,./sounds/normalized_sine_wave_330_hz.wav,./sounds/normalized_sine_wave_330_hz.wav,101,57,-31.72,116,31.72,88.72,-40.32,,165
2,1,584,400,400,880948,0.0-3.0-1.116,-52.24,59.97,-59.74,1,valid,1,./sounds/normalized_sine_wave_330_hz.wav,./sounds/normalized_sine_wave_330_hz.wav,99,61,-66.76,117,66.76,-52.24,67.79,,165
2,1,589,400,400,887760,0.0-3.0-1.117,44.8,23.28,-17.31,2,valid,2,./sounds/normalized_sine_wave_784_hz.wav,./sounds/normalized_sine_wave_784_hz.wav,88,54,30.72,118,30.72,23.28,40.59,-21.52,165
2,1,594,400,400,894449,0.0-3.0-1.118,-84.21,38.25,34.93,1,valid,1,./sounds/normalized_sine_wave_330_hz.wav,./sounds/normalized_sine_wave_330_hz.wav,19,63,-32.79,119,32.79,-84.21,57.54,,165
2,1,599,400,400,900677,0.0-3.0-1.119,-18.97,87.59,-43.45,1,valid,1,./sounds/normalized_sine_wave_330_hz.wav,./sounds/normalized_sine_wave_330_hz.wav,113,65,83.97,120,83.97,-18.97,73.44,,165
2,1,604,400,400,906681,0.0-3.0-1.120,20.25,-77.81,-38.24,3,invalid,1,./sounds/normalized_sine_wave_1318_hz.wav,./sounds/normalized_sine_wave_330_hz.wav,68,69,48.75,121,48.75,20.25,-81.94,,165
2,1,609,400,400,912692,0.0-3.0-1.121,-89.13,-44.34,61.11,2,invalid,3,./sounds/normalized_sine_wave_784_hz.wav,./sounds/normalized_sine_wave_1318_hz.wav,46,69,7.88999999999999,122,7.88999999999999,61.11,,-74.55,165
2,1,614,400,400,918713,0.0-3.0-1.122,-3.5,42.37,-6.14,1,valid,1,./sounds/normalized_sine_wave_330_hz.wav,./sounds/normalized_sine_wave_330_hz.wav,0,15,18.5,123,18.5,-3.5,-45.87,,165
2,1,619,400,400,925176,0.0-3.0-1.123,-39.4,63.28,86.17,2,valid,2,./sounds/normalized_sine_wave_784_hz.wav,./sounds/normalized_sine_wave_784_hz.wav,152,80,16.72,124,16.72,63.28,-22.89,-77.32,165
2,1,624,400,400,931964,0.0-3.0-1.124,-66.83,0.46,-46.79,1,neutral,2,./sounds/normalized_overlay_sine_waves.wav,./sounds/normalized_sine_wave_784_hz.wav,23,89,88.54,125,88.54,0.46,47.25,67.29,165
2,1,629,400,400,939925,0.0-3.0-1.125,2.44,-88.99,47.08,3,valid,3,./sounds/normalized_sine_wave_1318_hz.wav,./sounds/normalized_sine_wave_1318_hz.wav,16,-56,76.92,126,76.92,47.08,,-43.93,165
2,1,634,400,400,945980,0.0-3.0-1.126,82.97,-88.86,85.83,1,valid,1,./sounds/normalized_sine_wave_330_hz.wav,./sounds/normalized_sine_wave_330_hz.wav,142,66,-16.97,127,16.97,82.97,-8.17,,165
2,1,639,400,400,951958,0.0-3.0-1.127,25.58,2.79,21.93,1,neutral,3,./sounds/normalized_overlay_sine_waves.wav,./sounds/normalized_sine_wave_1318_hz.wav,13,67,45.07,128,45.07,21.93,,19.14,165
2,1,644,400,400,958018,0.0-3.0-1.128,68.55,-1.95,67.84,2,valid,2,./sounds/normalized_sine_wave_784_hz.wav,./sounds/normalized_sine_wave_784_hz.wav,111,89,-89.05,129,89.05,-1.95,-69.79,-70.5,165
2,1,649,400,400,964442,0.0-3.0-1.129,-17.98,-66,43.52,3,valid,3,./sounds/normalized_sine_wave_1318_hz.wav,./sounds/normalized_sine_wave_1318_hz.wav,73,-35,-78.52,130,78.52,43.52,,-70.48,165
2,1,654,400,400,970812,0.0-3.0-1.130,37.3,-16.63,68.7,3,valid,3,./sounds/normalized_sine_wave_1318_hz.wav,./sounds/normalized_sine_wave_1318_hz.wav,143,20,-48.7,131,48.7,68.7,,85.33,165
2,1,659,400,400,976758,0.0-3.0-1.131,-47.38,41.64,-45.71,1,valid,1,./sounds/normalized_sine_wave_330_hz.wav,./sounds/normalized_sine_wave_330_hz.wav,39,22,69.38,132,69.38,-47.38,-89.02,,165
2,1,664,400,400,982861,0.0-3.0-1.132,-72.61,18.58,46.69,2,valid,2,./sounds/normalized_sine_wave_784_hz.wav,./sounds/normalized_sine_wave_784_hz.wav,3,39,20.42,133,20.42,18.58,-28.11,-88.81,165
2,1,669,400,400,989241,0.0-3.0-1.133,-8.7,-66.9,0.44,3,valid,3,./sounds/normalized_sine_wave_1318_hz.wav,./sounds/normalized_sine_wave_1318_hz.wav,153,17,16.56,134,16.56,0.44,,67.34,165
2,1,674,400,400,995830,0.0-3.0-1.134,6.94,29.38,-37.56,2,valid,2,./sounds/normalized_sine_wave_784_hz.wav,./sounds/normalized_sine_wave_784_hz.wav,3,42,12.62,135,12.62,29.38,66.94,22.44,165
2,1,679,400,400,1002323,0.0-3.0-1.135,86.36,56.25,-61.75,1,valid,1,./sounds/normalized_sine_wave_330_hz.wav,./sounds/normalized_sine_wave_330_hz.wav,103,-3,-89.36,136,89.36,86.36,30.11,,165
2,1,684,400,400,1008547,0.0-3.0-1.136,37.96,88.8,52.9,2,invalid,3,./sounds/normalized_sine_wave_784_hz.wav,./sounds/normalized_sine_wave_1318_hz.wav,6,-103,24.1,137,24.1,52.9,,-35.9,165
2,1,689,400,400,1014640,0.0-3.0-1.137,-69.91,-51.3,-35.29,3,neutral,1,./sounds/normalized_overlay_sine_waves.wav,./sounds/normalized_sine_wave_330_hz.wav,29,-6,63.91,138,63.91,-69.91,-18.61,,165
2,1,694,400,400,1020748,0.0-3.0-1.138,46.47,-3.52,6.99,3,invalid,1,./sounds/normalized_sine_wave_1318_hz.wav,./sounds/normalized_sine_wave_330_hz.wav,41,-29,-75.47,139,75.47,46.47,49.99,,165
2,1,699,400,400,1027108,0.0-3.0-1.139,-15.35,-65.4,17.61,3,valid,3,./sounds/normalized_sine_wave_1318_hz.wav,./sounds/normalized_sine_wave_1318_hz.wav,148,-41,-58.61,140,58.61,17.61,,83.01,165
2,1,704,400,400,1033098,0.0-3.0-1.140,-33.81,7.74,-85.98,3,neutral,2,./sounds/normalized_overlay_sine_waves.wav,./sounds/normalized_sine_wave_784_hz.wav,47,-148,24.26,141,24.26,7.74,-86.28,41.55,165
2,1,709,400,400,1039107,0.0-3.0-1.141,-35.47,-32.38,-87.96,3,valid,3,./sounds/normalized_sine_wave_1318_hz.wav,./sounds/normalized_sine_wave_1318_hz.wav,145,-88,-0.0400000000000205,142,0.0400000000000205,-87.96,,-55.58,165
2,1,714,400,400,1045294,0.0-3.0-1.142,-75.06,-23.8,-19.46,2,valid,2,./sounds/normalized_sine_wave_784_hz.wav,./sounds/normalized_sine_wave_784_hz.wav,128,-145,58.8,143,58.8,-23.8,-4.34,51.26,165
2,1,719,400,400,1051255,0.0-3.0-1.143,-34.63,-27.2,-75.06,2,invalid,1,./sounds/normalized_sine_wave_784_hz.wav,./sounds/normalized_sine_wave_330_hz.wav,22,89,-56.37,144,56.37,-34.63,-7.43,,165
2,1,724,400,400,1057946,0.0-3.0-1.144,72,-43.74,-34.65,2,neutral,3,./sounds/normalized_overlay_sine_waves.wav,./sounds/normalized_sine_wave_1318_hz.wav,177,-72,-37.35,145,37.35,-34.65,,9.08999999999999,165
2,1,729,400,400,1064641,0.0-3.0-1.145,10.91,48.34,16.87,2,valid,2,./sounds/normalized_sine_wave_784_hz.wav,./sounds/normalized_sine_wave_784_hz.wav,138,-177,-45.34,146,45.34,48.34,31.47,37.43,165
2,1,734,400,400,1070814,0.0-3.0-1.146,-50.4,13.65,65.71,2,valid,2,./sounds/normalized_sine_wave_784_hz.wav,./sounds/normalized_sine_wave_784_hz.wav,60,86,72.35,147,72.35,13.65,-52.06,64.05,165
2,1,739,400,400,1076740,0.0-3.0-1.147,-35.67,-68.9,-82.46,1,valid,1,./sounds/normalized_sine_wave_330_hz.wav,./sounds/normalized_sine_wave_330_hz.wav,171,-60,-24.33,148,24.33,-35.67,33.23,,165
2,1,744,400,400,1082743,0.0-3.0-1.148,-12.27,-80.44,4.93,2,valid,2,./sounds/normalized_sine_wave_784_hz.wav,./sounds/normalized_sine_wave_784_hz.wav,25,-171,89.44,149,89.44,-80.44,-85.37,-68.17,165
2,1,749,400,400,1088991,0.0-3.0-1.149,-27.64,-80.24,-24.84,3,valid,3,./sounds/normalized_sine_wave_1318_hz.wav,./sounds/normalized_sine_wave_1318_hz.wav,62,86,-69.16,150,69.16,-24.84,,55.4,165
3,0,6,400,400,118103,0.0-5.0-1.0,1.59,16.92,49.44,1,valid,1,./sounds/normalized_sine_wave_330_hz.wav,./sounds/normalized_sine_wave_330_hz.wav,28,0,-1.59000000000003,1,1.59000000000003,1.59,-15.33,,165
3,0,11,400,400,146144,0.0-5.0-1.1,38.84,-12.16,25.95,3,valid,3,./sounds/normalized_sine_wave_1318_hz.wav,./sounds/normalized_sine_wave_1318_hz.wav,119,87,61.05,2,61.05,25.95,,38.11,165
3,0,16,400,400,163498,0.0-5.0-1.2,40.72,-37.1,74.27,3,valid,3,./sounds/normalized_sine_wave_1318_hz.wav,./sounds/normalized_sine_wave_1318_hz.wav,122,14,-60.27,3,60.27,74.27,,-68.63,165
3,0,21,400,400,170728,0.0-5.0-1.3,-89.46,72.88,-47.75,2,valid,2,./sounds/normalized_sine_wave_784_hz.wav,./sounds/normalized_sine_wave_784_hz.wav,123,14,-58.88,4,58.88,72.88,-59.37,-17.66,165
3,0,26,400,400,177029,0.0-5.0-1.4,-10.82,-62.48,-49.34,3,neutral,1,./sounds/normalized_overlay_sine_waves.wav,./sounds/normalized_sine_wave_330_hz.wav,20,2,12.82,5,12.82,-10.82,51.66,,165
3,0,31,400,400,184412,0.0-5.0-1.5,0.4,-18.04,-65.3,1,valid,1,./sounds/normalized_sine_wave_330_hz.wav,./sounds/normalized_sine_wave_330_hz.wav,125,14,13.6,6,13.6,0.4,18.44,,165
3,0,36,400,400,190882,0.0-5.0-1.6,-22.83,-80.4,51.56,1,valid,1,./sounds/normalized_sine_wave_330_hz.wav,./sounds/normalized_sine_wave_330_hz.wav,13,-3,19.83,7,19.83,-22.83,57.57,,165
3,0,41,400,400,198363,0.0-5.0-1.7,89.28,-75.8,71.29,1,valid,1,./sounds/normalized_sine_wave_330_hz.wav,./sounds/normalized_sine_wave_330_hz.wav,63,36,-53.28,8,53.28,89.28,-14.92,,165
3,0,46,400,400,206433,0.0-5.0-1.8,-31.82,56.16,-73.88,1,neutral,1,./sounds/normalized_overlay_sine_waves.wav,./sounds/normalized_sine_wave_330_hz.wav,136,-10,21.82,9,21.82,-31.82,-87.98,,165
3,0,51,400,400,216131,0.0-5.0-1.9,72.74,-62.75,-74.04,3,neutral,3,./sounds/normalized_overlay_sine_waves.wav,./sounds/normalized_sine_wave_1318_hz.wav,76,-74,0.0400000000000205,10,0.0400000000000205,-74.04,,-11.29,165
3,0,56,400,400,222813,0.0-5.0-1.10,68.64,25.22,-25.69,3,invalid,1,./sounds/normalized_sine_wave_1318_hz.wav,./sounds/normalized_sine_wave_330_hz.wav,63,40,-28.64,11,28.64,68.64,43.42,,165
3,0,61,400,400,229747,0.0-5.0-1.11,-89.65,-21.58,53.43,1,valid,1,./sounds/normalized_sine_wave_330_hz.wav,./sounds/normalized_sine_wave_330_hz.wav,85,38,-52.35,12,52.35,-89.65,-68.07,,165
3,0,66,400,400,236495,0.0-5.0-1.12,-86.21,-59.44,29.73,3,valid,3,./sounds/normalized_sine_wave_1318_hz.wav,./sounds/normalized_sine_wave_1318_hz.wav,43,-85,65.27,13,65.27,29.73,,89.17,165
3,0,71,400,400,243981,0.0-5.0-1.13,-57.54,-19.54,-73.33,1,valid,1,./sounds/normalized_sine_wave_330_hz.wav,./sounds/normalized_sine_wave_330_hz.wav,53,-43,14.54,14,14.54,-57.54,-38,,165
3,0,76,400,400,249979,0.0-5.0-1.14,-57.55,-47.49,69.73,1,valid,1,./sounds/normalized_sine_wave_330_hz.wav,./sounds/normalized_sine_wave_330_hz.wav,52,5,62.55,15,62.55,-57.55,-10.06,,165
3,1,4,400,400,21710,0.0-3.0-1.0,-22.61,19.28,74.14,2,valid,2,./sounds/normalized_sine_wave_784_hz.wav,./sounds/normalized_sine_wave_784_hz.wav,4,6,-13.28,1,13.28,19.28,-54.86,41.89,165
3,1,9,400,400,27988,0.0-3.0-1.1,-6.38,-76.02,-61.88,1,invalid,3,./sounds/normalized_sine_wave_330_hz.wav,./sounds/normalized_sine_wave_1318_hz.wav,124,-82,-20.12,2,20.12,-61.88,,14.14,165
3,1,14,400,400,34096,0.0-3.0-1.2,-24.03,-35.81,-39.69,2,invalid,1,./sounds/normalized_sine_wave_784_hz.wav,./sounds/normalized_sine_wave_330_hz.wav,97,-48,-23.97,3,23.97,-24.03,11.78,,165
3,1,19,400,400,40238,0.0-3.0-1.3,-40.98,-23.57,36.54,3,valid,3,./sounds/normalized_sine_wave_1318_hz.wav,./sounds/normalized_sine_wave_1318_hz.wav,42,-66,77.46,4,77.46,36.54,,60.11,165
3,1,24,400,400,50297,0.0-3.0-1.4,-16.37,8.21,-73.16,1,valid,1,./sounds/normalized_sine_wave_330_hz.wav,./sounds/normalized_sine_wave_330_hz.wav,94,-63,-46.63,5,46.63,-16.37,-24.58,,165
3,1,29,400,400,56738,0.0-3.0-1.5,-47.37,35.56,-63.4,2,neutral,1,./sounds/normalized_overlay_sine_waves.wav,./sounds/normalized_sine_wave_330_hz.wav,23,-30,17.37,6,17.37,-47.37,-82.93,,165
3,1,34,400,400,62898,0.0-3.0-1.6,57.73,44.78,-6.78,3,neutral,1,./sounds/normalized_overlay_sine_waves.wav,./sounds/normalized_sine_wave_330_hz.wav,14,47,-10.73,7,10.73,57.73,12.95,,165
3,1,39,400,400,69405,0.0-3.0-1.7,-61.74,80.01,85,3,valid,3,./sounds/normalized_sine_wave_1318_hz.wav,./sounds/normalized_sine_wave_1318_hz.wav,165,12,-73,8,73,85,,4.99,165
3,1,44,400,400,75551,0.0-3.0-1.8,80.28,71.69,-26.22,1,valid,1,./sounds/normalized_sine_wave_330_hz.wav,./sounds/normalized_sine_wave_330_hz.wav,50,18,-62.28,9,62.28,80.28,8.59,,165
3,1,49,400,400,81923,0.0-3.0-1.9,64.27,-41.37,-87.66,2,valid,2,./sounds/normalized_sine_wave_784_hz.wav,./sounds/normalized_sine_wave_784_hz.wav,63,21,62.37,10,62.37,-41.37,46.29,74.36,165
3,1,54,400,400,87950,0.0-3.0-1.10,-1.25,-45.91,61.12,3,invalid,1,./sounds/normalized_sine_wave_1318_hz.wav,./sounds/normalized_sine_wave_330_hz.wav,42,-63,-61.75,11,61.75,-1.25,44.66,,165
3,1,59,400,400,93857,0.0-3.0-1.11,22.16,83.19,-24.55,1,valid,1,./sounds/normalized_sine_wave_330_hz.wav,./sounds/normalized_sine_wave_330_hz.wav,24,-42,-64.16,12,64.16,22.16,-61.03,,165
3,1,64,400,400,99819,0.0-3.0-1.12,21.66,-59.82,29.58,2,valid,2,./sounds/normalized_sine_wave_784_hz.wav,./sounds/normalized_sine_wave_784_hz.wav,78,-24,35.82,13,35.82,-59.82,-89.4,-81.48,165
3,1,69,400,400,106457,0.0-3.0-1.13,-14.52,69.41,-39.42,1,valid,1,./sounds/normalized_sine_wave_330_hz.wav,./sounds/normalized_sine_wave_330_hz.wav,74,-78,-63.48,14,63.48,-14.52,-83.93,,165
3,1,74,400,400,113249,0.0-3.0-1.14,-84.09,38.68,48.95,3,valid,3,./sounds/normalized_sine_wave_1318_hz.wav,./sounds/normalized_sine_wave_1318_hz.wav,63,-74,57.05,15,57.05,48.95,,10.27,165
3,1,79,400,400,119961,0.0-3.0-1.15,-40.75,-86.22,-25.18,1,invalid,3,./sounds/normalized_sine_wave_330_hz.wav,./sounds/normalized_sine_wave_1318_hz.wav,45,-63,-37.82,16,37.82,-25.18,,61.04,165
3,1,84,400,400,127354,0.0-3.0-1.16,-66.96,-50.43,-78.92,2,valid,2,./sounds/normalized_sine_wave_784_hz.wav,./sounds/normalized_sine_wave_784_hz.wav,159,15,65.43,17,65.43,-50.43,28.49,16.53,165
3,1,89,400,400,133862,0.0-3.0-1.17,-37.03,-0.32,46.72,3,valid,3,./sounds/normalized_sine_wave_1318_hz.wav,./sounds/normalized_sine_wave_1318_hz.wav,65,15,-31.72,18,31.72,46.72,,47.04,165
3,1,94,400,400,141038,0.0-3.0-1.18,83.33,-56.81,36.95,3,valid,3,./sounds/normalized_sine_wave_1318_hz.wav,./sounds/normalized_sine_wave_1318_hz.wav,56,-65,78.05,19,78.05,36.95,,-86.24,165
3,1,99,400,400,147622,0.0-3.0-1.19,83.35,63.72,10.08,1,neutral,2,./sounds/normalized_overlay_sine_waves.wav,./sounds/normalized_sine_wave_784_hz.wav,98,-56,60.28,20,60.28,63.72,53.64,-19.63,165
3,1,104,400,400,153689,0.0-3.0-1.20,-17.46,56.77,-26.67,3,valid,3,./sounds/normalized_sine_wave_1318_hz.wav,./sounds/normalized_sine_wave_1318_hz.wav,165,-98,-71.33,21,71.33,-26.67,,-83.44,165
3,1,109,400,400,160173,0.0-3.0-1.21,-35.64,70.08,24.44,1,neutral,2,./sounds/normalized_overlay_sine_waves.wav,./sounds/normalized_sine_wave_784_hz.wav,2,-165,-55.08,22,55.08,70.08,45.64,-74.28,165
3,1,114,400,400,168172,0.0-3.0-1.22,3.99,-8.82,-20.43,2,invalid,1,./sounds/normalized_sine_wave_784_hz.wav,./sounds/normalized_sine_wave_330_hz.wav,43,15,11.01,23,11.01,3.99,12.81,,165
3,1,119,400,400,175305,0.0-3.0-1.23,3.4,33.02,-1.65,1,neutral,3,./sounds/normalized_overlay_sine_waves.wav,./sounds/normalized_sine_wave_1318_hz.wav,177,-43,-41.35,24,41.35,-1.65,,-34.67,165
3,1,124,400,400,182704,0.0-3.0-1.24,-40.99,-87.28,-74.62,2,valid,2,./sounds/normalized_sine_wave_784_hz.wav,./sounds/normalized_sine_wave_784_hz.wav,111,-177,-89.72,25,89.72,-87.28,-12.66,-46.29,165
3,1,129,400,400,191254,0.0-3.0-1.25,-82.51,-67.57,26.76,1,valid,1,./sounds/normalized_sine_wave_330_hz.wav,./sounds/normalized_sine_wave_330_hz.wav,80,-111,-28.49,26,28.49,-82.51,-14.94,,165
3,1,134,400,400,199839,0.0-3.0-1.26,-16.81,58.39,-3.17,3,valid,3,./sounds/normalized_sine_wave_1318_hz.wav,./sounds/normalized_sine_wave_1318_hz.wav,142,17,20.17,27,20.17,-3.17,,-61.56,165
3,1,139,400,400,208423,0.0-3.0-1.27,-84.4,17.19,-10.67,3,neutral,2,./sounds/normalized_overlay_sine_waves.wav,./sounds/normalized_sine_wave_784_hz.wav,76,-142,20.81,28,20.81,17.19,27.86,-78.41,165
3,1,144,400,400,214772,0.0-3.0-1.28,61.92,-70.23,-81.83,3,valid,3,./sounds/normalized_sine_wave_1318_hz.wav,./sounds/normalized_sine_wave_1318_hz.wav,66,15,-83.17,29,83.17,-81.83,,-11.6,165
3,1,149,400,400,225341,0.0-3.0-1.29,83.45,-53.47,-60.3,2,valid,2,./sounds/normalized_sine_wave_784_hz.wav,./sounds/normalized_sine_wave_784_hz.wav,51,0,53.47,30,53.47,-53.47,6.82999999999998,43.08,165
3,1,154,400,400,231406,0.0-3.0-1.30,34.08,44.24,-80.32,1,valid,1,./sounds/normalized_sine_wave_330_hz.wav,./sounds/normalized_sine_wave_330_hz.wav,89,-51,-85.08,31,85.08,34.08,-10.16,,165
3,1,159,400,400,239674,0.0-3.0-1.31,-86.57,-9.73,1.24,1,valid,1,./sounds/normalized_sine_wave_330_hz.wav,./sounds/normalized_sine_wave_330_hz.wav,110,-89,-2.43000000000001,32,2.43000000000001,-86.57,-76.84,,165
3,1,164,400,400,246057,0.0-3.0-1.32,-63.17,-84.93,-3.19,3,invalid,2,./sounds/normalized_sine_wave_1318_hz.wav,./sounds/normalized_sine_wave_784_hz.wav,160,-110,-25.07,33,25.07,-84.93,-81.74,-21.76,165
3,1,169,400,400,253157,0.0-3.0-1.33,-33.75,-47.45,60.85,3,neutral,2,./sounds/normalized_overlay_sine_waves.wav,./sounds/normalized_sine_wave_784_hz.wav,168,-160,67.45,34,67.45,-47.45,71.7,-13.7,165
3,1,174,400,400,259088,0.0-3.0-1.34,38.04,-15.31,72.97,1,valid,1,./sounds/normalized_sine_wave_330_hz.wav,./sounds/normalized_sine_wave_330_hz.wav,141,0,-38.04,35,38.04,38.04,53.35,,165
3,1,179,400,400,267273,0.0-3.0-1.35,-79.14,-10.44,-70.74,1,valid,1,./sounds/normalized_sine_wave_330_hz.wav,./sounds/normalized_sine_wave_330_hz.wav,177,1,80.14,36,80.14,-79.14,-68.7,,165
3,1,184,400,400,273807,0.0-3.0-1.36,78.71,43.02,26.9,2,invalid,3,./sounds/normalized_sine_wave_784_hz.wav,./sounds/normalized_sine_wave_1318_hz.wav,70,-177,-23.9,37,23.9,26.9,,-16.12,165
3,1,189,400,400,279890,0.0-3.0-1.37,61.97,-72.67,-30.35,3,valid,3,./sounds/normalized_sine_wave_1318_hz.wav,./sounds/normalized_sine_wave_1318_hz.wav,176,-70,-39.65,38,39.65,-30.35,,42.32,165
3,1,194,400,400,286174,0.0-3.0-1.38,52.17,-1.52,-55.85,2,valid,2,./sounds/normalized_sine_wave_784_hz.wav,./sounds/normalized_sine_wave_784_hz.wav,99,-176,5.52000000000001,39,5.52000000000001,-1.52,54.33,-53.69,165
3,1,199,400,400,292609,0.0-3.0-1.39,82.78,-33.19,82.13,1,valid,1,./sounds/normalized_sine_wave_330_hz.wav,./sounds/normalized_sine_wave_330_hz.wav,150,1,-81.78,40,81.78,82.78,-64.03,,165
3,1,204,400,400,301058,0.0-3.0-1.40,55.37,-16.46,25.43,1,valid,1,./sounds/normalized_sine_wave_330_hz.wav,./sounds/normalized_sine_wave_330_hz.wav,120,-150,-25.37,41,25.37,55.37,71.83,,165
3,1,209,400,400,307057,0.0-3.0-1.41,30.68,68.75,39.13,2,valid,2,./sounds/normalized_sine_wave_784_hz.wav,./sounds/normalized_sine_wave_784_hz.wav,165,-120,-8.75,42,8.75,68.75,29.62,38.07,165
3,1,214,400,400,316473,0.0-3.0-1.42,-17.37,1.39,16.65,2,valid,2,./sounds/normalized_sine_wave_784_hz.wav,./sounds/normalized_sine_wave_784_hz.wav,177,-165,13.61,43,13.61,1.39,-15.26,18.76,165
3,1,219,400,400,325025,0.0-3.0-1.43,85.76,-57.95,-12.57,1,valid,1,./sounds/normalized_sine_wave_330_hz.wav,./sounds/normalized_sine_wave_330_hz.wav,139,-177,-82.76,44,82.76,85.76,-36.29,,165
3,1,224,400,400,333375,0.0-3.0-1.44,-2,57.8,-23.23,2,valid,2,./sounds/normalized_sine_wave_784_hz.wav,./sounds/normalized_sine_wave_784_hz.wav,155,-139,-16.8,45,16.8,57.8,81.03,59.8,165
3,1,229,400,400,343209,0.0-3.0-1.45,-63.25,36.73,8.54,3,invalid,1,./sounds/normalized_sine_wave_1318_hz.wav,./sounds/normalized_sine_wave_330_hz.wav,62,-155,88.25,46,88.25,-63.25,80.02,,165
3,1,234,400,400,354242,0.0-3.0-1.46,-10.26,84.11,41.59,1,valid,1,./sounds/normalized_sine_wave_330_hz.wav,./sounds/normalized_sine_wave_330_hz.wav,154,-62,-51.74,47,51.74,-10.26,85.63,,165
3,1,239,400,400,360125,0.0-3.0-1.47,87.89,-87.57,-65.16,1,invalid,3,./sounds/normalized_sine_wave_330_hz.wav,./sounds/normalized_sine_wave_1318_hz.wav,7,-154,-88.84,48,88.84,-65.16,,22.41,165
3,1,244,400,400,367609,0.0-3.0-1.48,24.43,-14.84,29.47,3,neutral,2,./sounds/normalized_overlay_sine_waves.wav,./sounds/normalized_sine_wave_784_hz.wav,103,-7,7.84000000000003,49,7.84000000000003,-14.84,-44.31,-39.27,165
3,1,249,400,400,374426,0.0-3.0-1.49,-25.13,-89.66,61.46,2,valid,2,./sounds/normalized_sine_wave_784_hz.wav,./sounds/normalized_sine_wave_784_hz.wav,93,-103,-13.34,50,13.34,-89.66,28.88,-64.53,165
3,1,254,400,400,382392,0.0-3.0-1.50,14.44,29.16,-6.11,1,invalid,3,./sounds/normalized_sine_wave_330_hz.wav,./sounds/normalized_sine_wave_1318_hz.wav,14,-93,-86.89,51,86.89,-6.11,,-35.27,165
3,1,259,400,400,388825,0.0-3.0-1.51,42.71,10.72,49.88,3,valid,3,./sounds/normalized_sine_wave_1318_hz.wav,./sounds/normalized_sine_wave_1318_hz.wav,8,-14,-63.88,52,63.88,49.88,,39.16,165
3,1,264,400,400,402924,0.0-3.0-1.52,-21.26,89.81,-73.81,3,invalid,2,./sounds/normalized_sine_wave_1318_hz.wav,./sounds/normalized_sine_wave_784_hz.wav,125,-8,82.19,53,82.19,89.81,-16.38,-68.93,165
3,1,269,400,400,417693,0.0-3.0-1.53,18.57,44.44,8.35,1,valid,1,./sounds/normalized_sine_wave_330_hz.wav,./sounds/normalized_sine_wave_330_hz.wav,34,-125,36.43,54,36.43,18.57,-25.87,,165
3,1,274,400,400,424460,0.0-3.0-1.54,-30.94,-66.21,48.94,2,invalid,3,./sounds/normalized_sine_wave_784_hz.wav,./sounds/normalized_sine_wave_1318_hz.wav,67,-34,-82.94,55,82.94,48.94,,-64.85,165
3,1,279,400,400,436977,0.0-3.0-1.55,13.54,-45.28,69.97,3,neutral,2,./sounds/normalized_overlay_sine_waves.wav,./sounds/normalized_sine_wave_784_hz.wav,27,-67,-21.72,56,21.72,-45.28,64.75,-58.82,165
3,1,284,400,400,443093,0.0-3.0-1.56,-24.6,-68.84,-70.52,3,valid,3,./sounds/normalized_sine_wave_1318_hz.wav,./sounds/normalized_sine_wave_1318_hz.wav,87,-17,53.52,57,53.52,-70.52,,-1.68,165
3,1,289,400,400,450345,0.0-3.0-1.57,-35.49,84.23,1.4,2,neutral,1,./sounds/normalized_overlay_sine_waves.wav,./sounds/normalized_sine_wave_330_hz.wav,123,-87,-51.51,58,51.51,-35.49,60.28,,165
3,1,294,400,400,457074,0.0-3.0-1.58,-3,-17.29,52.06,1,valid,1,./sounds/normalized_sine_wave_330_hz.wav,./sounds/normalized_sine_wave_330_hz.wav,167,-123,60,59,60,-3,14.29,,165
3,1,299,400,400,463527,0.0-3.0-1.59,17.93,-36.22,-26.62,3,valid,3,./sounds/normalized_sine_wave_1318_hz.wav,./sounds/normalized_sine_wave_1318_hz.wav,56,-167,39.62,60,39.62,-26.62,,9.6,165
3,1,304,400,400,470025,0.0-3.0-1.60,17.54,-63.53,69.24,1,valid,1,./sounds/normalized_sine_wave_330_hz.wav,./sounds/normalized_sine_wave_330_hz.wav,142,-56,-73.54,61,73.54,17.54,81.07,,165
3,1,309,400,400,475877,0.0-3.0-1.61,-72.5,-18.09,-61.1,3,valid,3,./sounds/normalized_sine_wave_1318_hz.wav,./sounds/normalized_sine_wave_1318_hz.wav,123,-142,-80.9,62,80.9,-61.1,,-43.01,165
3,1,314,400,400,481776,0.0-3.0-1.62,-73.06,-0.75,-75.11,1,invalid,2,./sounds/normalized_sine_wave_330_hz.wav,./sounds/normalized_sine_wave_784_hz.wav,131,-123,57.75,63,57.75,-0.75,74.36,72.31,165
3,1,319,400,400,488627,0.0-3.0-1.63,-9.99,-29.27,81.61,3,neutral,1,./sounds/normalized_overlay_sine_waves.wav,./sounds/normalized_sine_wave_330_hz.wav,110,-14,-4.00999999999999,64,4.00999999999999,-9.99,19.28,,165
3,1,324,400,400,494792,0.0-3.0-1.64,44.85,-57.31,-26.84,3,valid,3,./sounds/normalized_sine_wave_1318_hz.wav,./sounds/normalized_sine_wave_1318_hz.wav,36,-110,-83.16,65,83.16,-26.84,,30.47,165
3,1,329,400,400,503343,0.0-3.0-1.65,-73.79,-0.73,-32.8,1,invalid,3,./sounds/normalized_sine_wave_330_hz.wav,./sounds/normalized_sine_wave_1318_hz.wav,106,-36,-3.19999999999999,66,3.19999999999999,-32.8,,-32.07,165
3,1,334,400,400,510529,0.0-3.0-1.66,-8.78,18.9,-63.02,3,valid,3,./sounds/normalized_sine_wave_1318_hz.wav,./sounds/normalized_sine_wave_1318_hz.wav,2,69,-47.98,67,47.98,-63.02,,-81.92,165
3,1,339,400,400,518526,0.0-3.0-1.67,60.5,16.17,-45.62,2,neutral,3,./sounds/normalized_overlay_sine_waves.wav,./sounds/normalized_sine_wave_1318_hz.wav,142,-2,43.62,68,43.62,-45.62,,-61.79,165
3,1,344,400,400,525012,0.0-3.0-1.68,86.93,2.15,86.67,1,valid,1,./sounds/normalized_sine_wave_330_hz.wav,./sounds/normalized_sine_wave_330_hz.wav,55,-142,-48.93,69,48.93,86.93,84.78,,165
3,1,349,400,400,531575,0.0-3.0-1.69,69.93,3.66,-65.12,1,neutral,1,./sounds/normalized_overlay_sine_waves.wav,./sounds/normalized_sine_wave_330_hz.wav,125,-55,55.07,70,55.07,69.93,66.27,,165
3,1,354,400,400,539459,0.0-3.0-1.70,36.16,-45.51,-54.95,3,neutral,3,./sounds/normalized_overlay_sine_waves.wav,./sounds/normalized_sine_wave_1318_hz.wav,71,-125,-70.05,71,70.05,-54.95,,-9.44000000000001,165
3,1,359,400,400,552361,0.0-3.0-1.71,1.08,54.09,-81.94,3,invalid,1,./sounds/normalized_sine_wave_1318_hz.wav,./sounds/normalized_sine_wave_330_hz.wav,74,-71,-72.08,72,72.08,1.08,-53.01,,165
3,1,364,400,400,560129,0.0-3.0-1.72,3.17,68.58,-61.79,3,neutral,1,./sounds/normalized_overlay_sine_waves.wav,./sounds/normalized_sine_wave_330_hz.wav,45,-74,-77.17,73,77.17,3.17,-65.41,,165
3,1,369,400,400,567079,0.0-3.0-1.73,-14.13,-75.34,8.88,3,valid,3,./sounds/normalized_sine_wave_1318_hz.wav,./sounds/normalized_sine_wave_1318_hz.wav,8,-45,-53.88,74,53.88,8.88,,84.22,165
3,1,374,400,400,573912,0.0-3.0-1.74,-1.12,-59.64,-22.25,2,valid,2,./sounds/normalized_sine_wave_784_hz.wav,./sounds/normalized_sine_wave_784_hz.wav,33,-8,51.64,75,51.64,-59.64,-37.39,-58.52,165
3,1,379,400,400,580096,0.0-3.0-1.75,31.76,-74.18,27.98,3,invalid,2,./sounds/normalized_sine_wave_1318_hz.wav,./sounds/normalized_sine_wave_784_hz.wav,91,70,-35.82,76,35.82,-74.18,77.84,74.06,165
3,1,384,400,400,586864,0.0-3.0-1.76,-48.41,13.8,69.59,3,valid,3,./sounds/normalized_sine_wave_1318_hz.wav,./sounds/normalized_sine_wave_1318_hz.wav,146,-91,19.41,77,19.41,69.59,,55.79,165
3,1,389,400,400,593444,0.0-3.0-1.77,82.92,49.81,-46.51,1,valid,1,./sounds/normalized_sine_wave_330_hz.wav,./sounds/normalized_sine_wave_330_hz.wav,173,-146,-48.92,78,48.92,82.92,33.11,,165
3,1,394,400,400,601212,0.0-3.0-1.78,38.29,-38.29,-80.54,2,valid,2,./sounds/normalized_sine_wave_784_hz.wav,./sounds/normalized_sine_wave_784_hz.wav,65,-173,45.29,79,45.29,-38.29,42.25,-76.58,165
3,1,399,400,400,609029,0.0-3.0-1.79,33.36,78.58,-48.58,2,valid,2,./sounds/normalized_sine_wave_784_hz.wav,./sounds/normalized_sine_wave_784_hz.wav,80,-65,36.42,80,36.42,78.58,-52.84,45.22,165
3,1,404,400,400,616747,0.0-3.0-1.80,46.22,-20.95,5.09,1,neutral,2,./sounds/normalized_overlay_sine_waves.wav,./sounds/normalized_sine_wave_784_hz.wav,106,-80,-59.05,81,59.05,-20.95,-26.04,-67.17,165
3,1,409,400,400,628381,0.0-3.0-1.81,-9.55,-35.12,-69.47,3,valid,3,./sounds/normalized_sine_wave_1318_hz.wav,./sounds/normalized_sine_wave_1318_hz.wav,95,-106,-36.53,82,36.53,-69.47,,-34.35,165
3,1,414,400,400,636180,0.0-3.0-1.82,87.75,-61.07,39.93,1,valid,1,./sounds/normalized_sine_wave_330_hz.wav,./sounds/normalized_sine_wave_330_hz.wav,109,-95,-2.75,83,2.75,87.75,-31.18,,165
3,1,419,400,400,645012,0.0-3.0-1.83,-68.84,65.74,-78.11,3,valid,3,./sounds/normalized_sine_wave_1318_hz.wav,./sounds/normalized_sine_wave_1318_hz.wav,63,-109,-30.89,84,30.89,-78.11,,36.15,165
3,1,424,400,400,651298,0.0-3.0-1.84,-51.01,81.11,-72.21,3,neutral,2,./sounds/normalized_overlay_sine_waves.wav,./sounds/normalized_sine_wave_784_hz.wav,82,-63,35.89,85,35.89,81.11,-26.68,-47.88,165
3,1,429,400,400,661496,0.0-3.0-1.85,61.83,27.37,-62.43,1,valid,1,./sounds/normalized_sine_wave_330_hz.wav,./sounds/normalized_sine_wave_330_hz.wav,19,-82,36.17,86,36.17,61.83,34.46,,165
3,1,434,400,400,671464,0.0-3.0-1.86,51.19,37.68,34.53,1,valid,1,./sounds/normalized_sine_wave_330_hz.wav,./sounds/normalized_sine_wave_330_hz.wav,51,-19,-70.19,87,70.19,51.19,13.51,,165
3,1,439,400,400,681413,0.0-3.0-1.87,-58.1,74.19,-6.89,1,neutral,2,./sounds/normalized_overlay_sine_waves.wav,./sounds/normalized_sine_wave_784_hz.wav,6,-51,54.81,88,54.81,74.19,81.08,-47.71,165
3,1,444,400,400,689949,0.0-3.0-1.88,15.07,81.28,-66.49,3,valid,3,./sounds/normalized_sine_wave_1318_hz.wav,./sounds/normalized_sine_wave_1318_hz.wav,60,-6,60.49,89,60.49,-66.49,,32.23,165
3,1,449,400,400,698195,0.0-3.0-1.89,-16.81,-25.99,74.67,2,neutral,3,./sounds/normalized_overlay_sine_waves.wav,./sounds/normalized_sine_wave_1318_hz.wav,77,-60,45.33,90,45.33,74.67,,-79.34,165
3,1,454,400,400,705264,0.0-3.0-1.90,-1.42,-79.15,-45.11,1,invalid,2,./sounds/normalized_sine_wave_330_hz.wav,./sounds/normalized_sine_wave_784_hz.wav,92,31,-69.85,91,69.85,-79.15,-34.04,-77.73,165
3,1,459,400,400,716237,0.0-3.0-1.91,-70.19,-56.9,82.17,1,valid,1,./sounds/normalized_sine_wave_330_hz.wav,./sounds/normalized_sine_wave_330_hz.wav,13,-92,-21.81,92,21.81,-70.19,-13.29,,165
3,1,464,400,400,724824,0.0-3.0-1.92,-39.62,20.31,-30.12,2,valid,2,./sounds/normalized_sine_wave_784_hz.wav,./sounds/normalized_sine_wave_784_hz.wav,92,-13,-33.31,93,33.31,20.31,50.43,59.93,165
3,1,469,400,400,731486,0.0-3.0-1.93,60.79,43.91,-46.52,2,valid,2,./sounds/normalized_sine_wave_784_hz.wav,./sounds/normalized_sine_wave_784_hz.wav,134,-92,44.09,94,44.09,43.91,-89.57,-16.88,165
3,1,474,400,400,739849,0.0-3.0-1.94,-58.89,-24.64,-64.32,1,valid,1,./sounds/normalized_sine_wave_330_hz.wav,./sounds/normalized_sine_wave_330_hz.wav,83,-134,-75.11,95,75.11,-58.89,-34.25,,165
3,1,479,400,400,747114,0.0-3.0-1.95,10.82,-80.37,35.94,2,neutral,1,./sounds/normalized_overlay_sine_waves.wav,./sounds/normalized_sine_wave_330_hz.wav,81,-83,86.18,96,86.18,10.82,-88.81,,165
3,1,484,400,400,754995,0.0-3.0-1.96,-63.05,32.41,58.11,2,valid,2,./sounds/normalized_sine_wave_784_hz.wav,./sounds/normalized_sine_wave_784_hz.wav,135,-81,66.59,97,66.59,32.41,-25.7,-84.54,165
3,1,489,400,400,762878,0.0-3.0-1.97,-67.42,33.54,57.18,2,valid,2,./sounds/normalized_sine_wave_784_hz.wav,./sounds/normalized_sine_wave_784_hz.wav,175,-135,11.46,98,11.46,33.54,-23.64,-79.04,165
3,1,494,400,400,768729,0.0-3.0-1.98,77.78,-1.94,19.05,3,valid,3,./sounds/normalized_sine_wave_1318_hz.wav,./sounds/normalized_sine_wave_1318_hz.wav,132,-175,-14.05,99,14.05,19.05,,20.99,165
3,1,499,400,400,776260,0.0-3.0-1.99,-4.07,11.26,50.78,1,valid,1,./sounds/normalized_sine_wave_330_hz.wav,./sounds/normalized_sine_wave_330_hz.wav,89,-132,52.07,100,52.07,-4.07,-15.33,,165
3,1,504,400,400,782497,0.0-3.0-1.100,-33.89,-45.16,0.82,1,neutral,1,./sounds/normalized_overlay_sine_waves.wav,./sounds/normalized_sine_wave_330_hz.wav,179,-89,-55.11,101,55.11,-33.89,11.27,,165
3,1,509,400,400,790894,0.0-3.0-1.101,61.19,-42.79,34.94,2,invalid,1,./sounds/normalized_sine_wave_784_hz.wav,./sounds/normalized_sine_wave_330_hz.wav,36,-179,-60.19,102,60.19,61.19,-76.02,,165
3,1,514,400,400,797174,0.0-3.0-1.102,-13.51,28.89,67.76,2,valid,2,./sounds/normalized_sine_wave_784_hz.wav,./sounds/normalized_sine_wave_784_hz.wav,148,-36,-64.89,103,64.89,28.89,-38.87,42.4,165
3,1,519,400,400,808061,0.0-3.0-1.103,5.91,89.06,83.95,2,valid,2,./sounds/normalized_sine_wave_784_hz.wav,./sounds/normalized_sine_wave_784_hz.wav,55,-148,-57.06,104,57.06,89.06,5.11,83.15,165
3,1,524,400,400,816479,0.0-3.0-1.104,63.19,-81.3,-60.44,1,neutral,1,./sounds/normalized_overlay_sine_waves.wav,./sounds/normalized_sine_wave_330_hz.wav,126,-55,61.81,105,61.81,63.19,-35.51,,165
3,1,529,400,400,823426,0.0-3.0-1.105,89.16,-62.55,1.17,2,neutral,1,./sounds/normalized_overlay_sine_waves.wav,./sounds/normalized_sine_wave_330_hz.wav,74,39,-50.16,106,50.16,89.16,-28.29,,165
3,1,534,400,400,832729,0.0-3.0-1.106,41.14,11.97,-4.92,2,invalid,1,./sounds/normalized_sine_wave_784_hz.wav,./sounds/normalized_sine_wave_330_hz.wav,83,46,4.86000000000001,107,4.86000000000001,41.14,29.17,,165
3,1,539,400,400,841463,0.0-3.0-1.107,44.99,49.47,-11.03,2,valid,2,./sounds/normalized_sine_wave_784_hz.wav,./sounds/normalized_sine_wave_784_hz.wav,78,-83,47.53,108,47.53,49.47,60.5,4.47999999999999,165
3,1,544,400,400,847327,0.0-3.0-1.108,3.28,78.92,4.76,3,invalid,1,./sounds/normalized_sine_wave_1318_hz.wav,./sounds/normalized_sine_wave_330_hz.wav,48,-78,-81.28,109,81.28,3.28,-75.64,,165
3,1,549,400,400,854045,0.0-3.0-1.109,-16.45,-63.76,-29.45,3,valid,3,./sounds/normalized_sine_wave_1318_hz.wav,./sounds/normalized_sine_wave_1318_hz.wav,18,-48,-18.55,110,18.55,-29.45,,34.31,165
3,1,554,400,400,860761,0.0-3.0-1.110,-22.84,78.39,11.75,1,valid,1,./sounds/normalized_sine_wave_330_hz.wav,./sounds/normalized_sine_wave_330_hz.wav,74,-18,4.84000000000003,111,4.84000000000003,-22.84,78.77,,165
3,1,559,400,400,868628,0.0-3.0-1.111,-28.26,-57.98,73.29,3,valid,3,./sounds/normalized_sine_wave_1318_hz.wav,./sounds/normalized_sine_wave_1318_hz.wav,34,-74,32.71,112,32.71,73.29,,-48.73,165
3,1,564,400,400,876709,0.0-3.0-1.112,45.22,34.18,56.32,1,valid,1,./sounds/normalized_sine_wave_330_hz.wav,./sounds/normalized_sine_wave_330_hz.wav,100,-34,-79.22,113,79.22,45.22,11.04,,165
3,1,569,400,400,883928,0.0-3.0-1.113,-21.97,46.93,14.29,3,invalid,2,./sounds/normalized_sine_wave_1318_hz.wav,./sounds/normalized_sine_wave_784_hz.wav,7,-100,33.07,114,33.07,46.93,32.64,68.9,165
3,1,574,400,400,893212,0.0-3.0-1.114,82.78,-6.6,33.76,2,neutral,3,./sounds/normalized_overlay_sine_waves.wav,./sounds/normalized_sine_wave_1318_hz.wav,76,-74,72.24,115,72.24,33.76,,40.36,165
3,1,579,400,400,906112,0.0-3.0-1.115,-4.69,21.16,-0.79,3,invalid,2,./sounds/normalized_sine_wave_1318_hz.wav,./sounds/normalized_sine_wave_784_hz.wav,133,-76,82.84,116,82.84,21.16,21.95,25.85,165
3,1,584,400,400,912361,0.0-3.0-1.116,-78.07,-25.37,44.83,2,neutral,1,./sounds/normalized_overlay_sine_waves.wav,./sounds/normalized_sine_wave_330_hz.wav,69,-133,-54.93,117,54.93,-78.07,-52.7,,165
3,1,589,400,400,923195,0.0-3.0-1.117,5.37,-49,41,2,valid,2,./sounds/normalized_sine_wave_784_hz.wav,./sounds/normalized_sine_wave_784_hz.wav,13,-69,-20,118,20,-49,-90,-54.37,165
3,1,594,400,400,930212,0.0-3.0-1.118,-32.72,26.4,-88.07,2,invalid,1,./sounds/normalized_sine_wave_784_hz.wav,./sounds/normalized_sine_wave_330_hz.wav,107,-13,19.72,119,19.72,-32.72,-59.12,,165
3,1,599,400,400,943129,0.0-3.0-1.119,60.31,13.24,-27.46,2,valid,2,./sounds/normalized_sine_wave_784_hz.wav,./sounds/normalized_sine_wave_784_hz.wav,85,-107,59.76,120,59.76,13.24,40.7,-47.07,165
3,1,604,400,400,952663,0.0-3.0-1.120,37.15,80.35,-17.84,3,neutral,2,./sounds/normalized_overlay_sine_waves.wav,./sounds/normalized_sine_wave_784_hz.wav,13,-85,14.65,121,14.65,80.35,-81.81,43.2,165
3,1,609,400,400,970277,0.0-3.0-1.121,50.54,-27.37,-34.67,2,neutral,3,./sounds/normalized_overlay_sine_waves.wav,./sounds/normalized_sine_wave_1318_hz.wav,17,-13,21.67,122,21.67,-34.67,,-7.3,165
3,1,614,400,400,980515,0.0-3.0-1.122,21.11,-51.43,-43.46,2,valid,2,./sounds/normalized_sine_wave_784_hz.wav,./sounds/normalized_sine_wave_784_hz.wav,130,-17,34.43,123,34.43,-51.43,-7.97,-72.54,165
3,1,619,400,400,987411,0.0-3.0-1.123,30.36,72.56,-45.95,1,valid,1,./sounds/normalized_sine_wave_330_hz.wav,./sounds/normalized_sine_wave_330_hz.wav,110,-130,19.64,124,19.64,30.36,-42.2,,165
3,1,624,400,400,993397,0.0-3.0-1.124,-51.83,-87.83,1.43,1,valid,1,./sounds/normalized_sine_wave_330_hz.wav,./sounds/normalized_sine_wave_330_hz.wav,86,-110,-58.17,125,58.17,-51.83,36,,165
3,1,629,400,400,999847,0.0-3.0-1.125,18.02,82.12,-30.4,3,valid,3,./sounds/normalized_sine_wave_1318_hz.wav,./sounds/normalized_sine_wave_1318_hz.wav,35,-86,-55.6,126,55.6,-30.4,,67.48,165
3,1,634,400,400,1007631,0.0-3.0-1.126,61.17,21.74,-55.23,1,invalid,2,./sounds/normalized_sine_wave_330_hz.wav,./sounds/normalized_sine_wave_784_hz.wav,139,-35,-56.74,127,56.74,21.74,76.97,-39.43,165
3,1,639,400,400,1017098,0.0-3.0-1.127,-72.56,10.09,20.17,3,valid,3,./sounds/normalized_sine_wave_1318_hz.wav,./sounds/normalized_sine_wave_1318_hz.wav,8,-139,20.83,128,20.83,20.17,,10.08,165
3,1,644,400,400,1025865,0.0-3.0-1.128,62.86,88.2,-45.68,2,valid,2,./sounds/normalized_sine_wave_784_hz.wav,./sounds/normalized_sine_wave_784_hz.wav,132,-8,83.8,129,83.8,88.2,-46.12,25.34,165
3,1,649,400,400,1033331,0.0-3.0-1.129,23.04,7.22,84.38,2,valid,2,./sounds/normalized_sine_wave_784_hz.wav,./sounds/normalized_sine_wave_784_hz.wav,145,-132,40.78,130,40.78,7.22,-77.16,-15.82,165
3,1,654,400,400,1039397,0.0-3.0-1.130,-45.09,-42.58,28.24,3,valid,3,./sounds/normalized_sine_wave_1318_hz.wav,./sounds/normalized_sine_wave_1318_hz.wav,164,-145,6.75999999999999,131,6.75999999999999,28.24,,70.82,165
3,1,659,400,400,1047214,0.0-3.0-1.131,2.15,16.17,19.91,1,neutral,3,./sounds/normalized_overlay_sine_waves.wav,./sounds/normalized_sine_wave_1318_hz.wav,77,-74,86.09,132,86.09,19.91,,3.74,165
3,1,664,400,400,1053266,0.0-3.0-1.132,-17.26,83.29,68.18,1,valid,1,./sounds/normalized_sine_wave_330_hz.wav,./sounds/normalized_sine_wave_330_hz.wav,44,-77,-59.74,133,59.74,-17.26,79.45,,165
3,1,669,400,400,1059964,0.0-3.0-1.133,-35.79,12.48,-55.91,2,valid,2,./sounds/normalized_sine_wave_784_hz.wav,./sounds/normalized_sine_wave_784_hz.wav,5,-44,-56.48,134,56.48,12.48,68.39,48.27,165
3,1,674,400,400,1066181,0.0-3.0-1.134,-55.65,34.37,-73.11,1,neutral,3,./sounds/normalized_overlay_sine_waves.wav,./sounds/normalized_sine_wave_1318_hz.wav,2,-5,68.11,135,68.11,-73.11,,72.52,165
3,1,679,400,400,1074765,0.0-3.0-1.135,20.38,-49.94,26.13,1,invalid,2,./sounds/normalized_sine_wave_330_hz.wav,./sounds/normalized_sine_wave_784_hz.wav,129,-2,47.94,136,47.94,-49.94,-76.07,-70.32,165
3,1,684,400,400,1082782,0.0-3.0-1.136,-0.51,89.35,-60.34,2,valid,2,./sounds/normalized_sine_wave_784_hz.wav,./sounds/normalized_sine_wave_784_hz.wav,32,-129,-38.35,137,38.35,89.35,-30.31,89.86,165
3,1,689,400,400,1089365,0.0-3.0-1.137,-75.39,-42.71,39.44,2,invalid,3,./sounds/normalized_sine_wave_784_hz.wav,./sounds/normalized_sine_wave_1318_hz.wav,55,-32,-71.44,138,71.44,39.44,,82.15,165
3,1,694,400,400,1095765,0.0-3.0-1.138,60.58,-22.96,7.2,3,valid,3,./sounds/normalized_sine_wave_1318_hz.wav,./sounds/normalized_sine_wave_1318_hz.wav,5,-55,-62.2,139,62.2,7.2,,30.16,165
3,1,699,400,400,1101665,0.0-3.0-1.139,-86.73,45.46,51.01,2,invalid,3,./sounds/normalized_sine_wave_784_hz.wav,./sounds/normalized_sine_wave_1318_hz.wav,47,-5,-56.01,140,56.01,51.01,,5.55,165
3,1,704,400,400,1111068,0.0-3.0-1.140,89.2,-8.85,36.75,3,valid,3,./sounds/normalized_sine_wave_1318_hz.wav,./sounds/normalized_sine_wave_1318_hz.wav,31,-47,-83.75,141,83.75,36.75,,45.6,165
3,1,709,400,400,1117133,0.0-3.0-1.141,16.49,-2.75,10.74,1,valid,1,./sounds/normalized_sine_wave_330_hz.wav,./sounds/normalized_sine_wave_330_hz.wav,65,-64,-80.49,142,80.49,16.49,19.24,,165
3,1,714,400,400,1123118,0.0-3.0-1.142,-53.1,80.02,78.64,3,invalid,1,./sounds/normalized_sine_wave_1318_hz.wav,./sounds/normalized_sine_wave_330_hz.wav,62,-65,-11.9,143,11.9,-53.1,46.88,,165
3,1,719,400,400,1130485,0.0-3.0-1.143,-30.79,62.94,86.46,2,valid,2,./sounds/normalized_sine_wave_784_hz.wav,./sounds/normalized_sine_wave_784_hz.wav,45,-62,55.06,144,55.06,62.94,-23.52,-86.27,165
3,1,724,400,400,1137517,0.0-3.0-1.144,-43.93,-16.09,-30.84,2,valid,2,./sounds/normalized_sine_wave_784_hz.wav,./sounds/normalized_sine_wave_784_hz.wav,149,-45,-28.91,145,28.91,-16.09,14.75,27.84,165
3,1,729,400,400,1143533,0.0-3.0-1.145,-37.64,25.8,-89.18,3,valid,3,./sounds/normalized_sine_wave_1318_hz.wav,./sounds/normalized_sine_wave_1318_hz.wav,122,-49,40.18,146,40.18,-89.18,,65.02,165
3,1,734,400,400,1150101,0.0-3.0-1.146,42.87,6.35,53.31,2,invalid,3,./sounds/normalized_sine_wave_784_hz.wav,./sounds/normalized_sine_wave_1318_hz.wav,2,56,2.69,147,2.69,53.31,,46.96,165
3,1,739,400,400,1157817,0.0-3.0-1.147,-26.83,-88.45,-11.24,2,neutral,2,./sounds/normalized_overlay_sine_waves.wav,./sounds/normalized_sine_wave_784_hz.wav,126,-5,83.45,148,83.45,-88.45,-77.21,-61.62,165
3,1,744,400,400,1164264,0.0-3.0-1.148,-65.63,-86.72,-2.38,1,invalid,2,./sounds/normalized_sine_wave_330_hz.wav,./sounds/normalized_sine_wave_784_hz.wav,59,-126,-39.28,149,39.28,-86.72,-84.34,-21.09,165
3,1,749,400,400,1170267,0.0-3.0-1.149,-67,-23.03,-48.08,3,valid,3,./sounds/normalized_sine_wave_1318_hz.wav,./sounds/normalized_sine_wave_1318_hz.wav,16,-26,22.08,150,22.08,-48.08,,-25.05,165
4,0,6,400,400,569703,0.0-5.0-1.0,70.49,-67.73,-67.17,1,valid,1,./sounds/normalized_sine_wave_330_hz.wav,./sounds/normalized_sine_wave_330_hz.wav,170,-65,44.51,1,44.51,70.49,-41.78,,165
4,0,11,400,400,583331,0.0-5.0-1.1,-89.44,12.06,38.07,3,neutral,3,./sounds/normalized_overlay_sine_waves.wav,./sounds/normalized_sine_wave_1318_hz.wav,32,-45,-83.07,2,83.07,38.07,,26.01,165
4,0,16,400,400,594649,0.0-5.0-1.2,-7.78,-82.71,-22.19,3,valid,3,./sounds/normalized_sine_wave_1318_hz.wav,./sounds/normalized_sine_wave_1318_hz.wav,19,-46,-23.81,3,23.81,-22.19,,60.52,165
4,0,21,400,400,605267,0.0-5.0-1.3,76.21,31.34,-39.73,1,valid,1,./sounds/normalized_sine_wave_330_hz.wav,./sounds/normalized_sine_wave_330_hz.wav,141,-52,51.79,4,51.79,76.21,44.87,,165
4,0,26,400,400,612836,0.0-5.0-1.4,23,36.2,83.06,2,valid,2,./sounds/normalized_sine_wave_784_hz.wav,./sounds/normalized_sine_wave_784_hz.wav,24,61,24.8,5,24.8,36.2,-46.86,13.2,165
4,0,31,400,400,620851,0.0-5.0-1.5,78.58,41.94,20.36,3,valid,3,./sounds/normalized_sine_wave_1318_hz.wav,./sounds/normalized_sine_wave_1318_hz.wav,91,55,34.64,6,34.64,20.36,,-21.58,165
4,0,36,400,400,627420,0.0-5.0-1.6,31.01,-39.3,-37.54,1,valid,1,./sounds/normalized_sine_wave_330_hz.wav,./sounds/normalized_sine_wave_330_hz.wav,146,-56,-87.01,7,87.01,31.01,70.31,,165
4,0,41,400,400,635752,0.0-5.0-1.7,-0.73,-60.36,76.02,3,valid,3,./sounds/normalized_sine_wave_1318_hz.wav,./sounds/normalized_sine_wave_1318_hz.wav,98,-89,14.98,8,14.98,76.02,,-43.62,165
4,0,46,400,400,646286,0.0-5.0-1.8,51.89,-54.72,-35.95,2,valid,2,./sounds/normalized_sine_wave_784_hz.wav,./sounds/normalized_sine_wave_784_hz.wav,48,-87,-32.28,9,32.28,-54.72,-18.77,73.39,165
4,0,51,400,400,652919,0.0-5.0-1.9,23.51,-29.88,4.87,2,neutral,1,./sounds/normalized_overlay_sine_waves.wav,./sounds/normalized_sine_wave_330_hz.wav,7,-48,-71.51,10,71.51,23.51,53.39,,165
4,0,56,400,400,659968,0.0-5.0-1.10,26.44,88.26,46.42,3,valid,3,./sounds/normalized_sine_wave_1318_hz.wav,./sounds/normalized_sine_wave_1318_hz.wav,53,83,36.58,11,36.58,46.42,,-41.84,165
4,0,61,400,400,666319,0.0-5.0-1.11,-46.2,20.99,-33.03,2,valid,2,./sounds/normalized_sine_wave_784_hz.wav,./sounds/normalized_sine_wave_784_hz.wav,144,-84,75.01,12,75.01,20.99,54.02,67.19,165
4,0,66,400,400,672550,0.0-5.0-1.12,-8.87,-60.88,-45.21,3,invalid,2,./sounds/normalized_sine_wave_1318_hz.wav,./sounds/normalized_sine_wave_784_hz.wav,98,-81,-20.12,13,20.12,-60.88,-15.67,-52.01,165
4,0,71,400,400,682701,0.0-5.0-1.13,-25.7,-73.52,-0.22,1,valid,1,./sounds/normalized_sine_wave_330_hz.wav,./sounds/normalized_sine_wave_330_hz.wav,18,-7,18.7,14,18.7,-25.7,47.82,,165
4,0,76,400,400,689501,0.0-5.0-1.14,-62.53,-45.88,-25.58,3,valid,3,./sounds/normalized_sine_wave_1318_hz.wav,./sounds/normalized_sine_wave_1318_hz.wav,52,-86,-60.42,15,60.42,-25.58,,20.3,165
4,1,4,400,400,14831,0.0-3.0-1.0,-9.29,-81.13,60.18,3,valid,3,./sounds/normalized_sine_wave_1318_hz.wav,./sounds/normalized_sine_wave_1318_hz.wav,143,67,6.81999999999999,1,6.81999999999999,60.18,,-38.69,165
4,1,9,400,400,21400,0.0-3.0-1.1,71.09,-57.99,81.34,3,neutral,3,./sounds/normalized_overlay_sine_waves.wav,./sounds/normalized_sine_wave_1318_hz.wav,55,74,-7.34000000000003,2,7.34000000000003,81.34,,-40.67,165
4,1,14,400,400,27484,0.0-3.0-1.2,-35.6,-84.69,-3.43,3,valid,3,./sounds/normalized_sine_wave_1318_hz.wav,./sounds/normalized_sine_wave_1318_hz.wav,12,-5,-1.56999999999999,3,1.56999999999999,-3.43,,81.26,165
4,1,19,400,400,34435,0.0-3.0-1.3,62.93,-66.63,-13.97,1,invalid,2,./sounds/normalized_sine_wave_330_hz.wav,./sounds/normalized_sine_wave_784_hz.wav,14,-73,-6.37000000000001,4,6.37000000000001,-66.63,-52.66,50.44,165
